time,seconds_elapsed,z,y,x
1783002559382486800,0.08548681640625,0.06898235081136227,0.07780950812846421,0.13179266192428768
1783002559392539000,0.095538818359375,0.08850421288311482,0.061314446531981225,0.2378040360558778
1783002559402589700,0.105589599609375,-0.01719020425379276,0.061511430408805606,0.20121935896966606
1783002559412642000,0.11564208984375,-0.31062486905157566,0.03296031257659197,0.12391608333028853
1783002559422694000,0.12569384765625,-0.38127836794555187,-0.03717873398922383,0.010047346761822699
1783002559432746000,0.13574609375,-0.08047346664071083,-0.06331511882990598,-0.15616050272248685
1783002559442797000,0.145797119140625,0.1838017391681671,-0.020509484869614243,-0.23320158376172184
1783002559452849000,0.155848876953125,0.14793781410455703,0.015254633081331848,-0.1926595838844776
1783002559462901000,0.16590087890625,-0.07209960604906082,0.030285540409386157,-0.06415821859054267
1783002559472951800,0.175951904296875,-0.3012771949917078,-0.002759162515029311,0.06325586292333901
1783002559483004000,0.18600390625,-0.3134504478663206,-0.07083367776647209,0.07494655644539744
1783002559493055700,0.1960556640625,-0.06565759030282498,-0.0004036854300647974,0.04832118251137435
1783002559503107800,0.20610791015625,0.10871405721902846,0.04378478119075298,-0.04382284817881882
1783002559513159000,0.216158935546875,0.10714578498899936,-0.0019933657743036745,-0.162331957899034
1783002559523211000,0.2262109375,0.12738427089750767,0.0051362669099122285,-0.18372787021435796
1783002559533262800,0.236262939453125,0.08401216216087341,0.03721490128114819,-0.16097959344200788
1783002559543315000,0.24631494140625,-0.054393268966674804,0.04723287581801414,-0.1815407719662413
1783002559553366000,0.256365966796875,-0.056499885857105255,0.014846417606621979,-0.11098072350937872
1783002559563417900,0.26641796875,-0.14990531478524208,0.01805047434493899,0.0533428465982899
1783002559573470000,0.276469970703125,-0.43579029485583304,0.044985316086933014,0.2320651270776987
1783002559583520800,0.286520751953125,-0.3920382468909025,0.0830878869228065,0.3277772255130112
1783002559593572900,0.29657275390625,-0.18085341075658798,0.03552417171522975,0.19775873365439472
1783002559603624700,0.306624755859375,0.046777533265948294,-0.015534034544602036,-0.008682013225369154
1783002559613676800,0.3166767578125,0.14221242219507693,0.024338833899423477,-0.10091445285137741
1783002559623727900,0.326727783203125,0.09860650470256804,0.03128288088366389,-0.14366514175403863
1783002559633780000,0.336780029296875,0.1304015728920698,-0.006330956587195396,-0.09016030952706933
1783002559643832000,0.34683203125,0.19606033223867414,-0.008618483002483844,-0.0741632240479812
1783002559653884000,0.3568837890625,0.08511281687915324,0.002299582179263234,-0.11617113175932317
1783002559663935000,0.36693505859375,-0.17600012550652025,-0.04918203712441027,0.007096972523629665
1783002559673986800,0.37698681640625,-0.43086335984766483,-0.13559037370681762,0.1747049345968291
1783002559684039000,0.387038818359375,-0.26166473104953764,-0.07178549859859049,0.2026827460531145
1783002559694090000,0.397090087890625,-0.00025777415335178375,0.024194091666489836,0.09292626710906625
1783002559704141800,0.407141845703125,-0.03526128299534321,-0.0021007716715335844,-0.08339680674150586
1783002559714194000,0.41719384765625,-0.27576865972578524,-0.07389569568559527,-0.1678777554579079
1783002559724245800,0.427245849609375,-0.23175591499805448,-0.09237316327095031,-0.10103606993705033
1783002559734296800,0.437296875,0.03545475974082946,-0.05149133698008954,-0.029119053913280367
1783002559744349000,0.447348876953125,0.12995149103701115,-0.020185586677491665,0.001047170965373516
1783002559754401000,0.457401123046875,-0.017289572975039483,-0.06497552632279693,0.02512991121187806
1783002559764452900,0.467452880859375,-0.3778004627019167,-0.13852730394154786,0.11821220913287252
1783002559774504000,0.47750390625,-0.4652326624393463,-0.12075053197145462,0.09056878073010594
1783002559784556000,0.48755615234375,-0.17753741807639598,-0.05959529458917677,0.0006182049635797738
1783002559794607900,0.49760791015625,0.035702597022056574,-0.052468365318700666,-0.0625894714364782
1783002559804660000,0.507659912109375,0.06214753635525703,-0.05006751472204923,-0.01839015462808311
1783002559814710800,0.517710693359375,0.048905777466297144,-0.04022796549201012,0.01597754052840173
1783002559824763000,0.527762939453125,-0.05542787271142006,-0.05642199831530451,-0.007871390962228178
1783002559834814700,0.537814697265625,-0.254836346334219,-0.05261851437911391,0.016121515576355158
1783002559844865800,0.54786572265625,-0.25603929238319395,-0.14375161446109413,0.026829956595413384
1783002559854918000,0.55791796875,0.00966565396785736,-0.11117153337374329,0.01981174839641899
1783002559864970000,0.567969970703125,0.19323826055526733,0.00655059068724513,0.011138101140595972
1783002559875021800,0.578021728515625,0.15863398016393185,0.04522102453894913,-0.009717457220330834
1783002559885073000,0.588072998046875,0.01393207924067974,-0.0033708646725863216,0.02714147022999823
1783002559895125000,0.598125,-0.1214788462460041,-0.03670578271523118,0.028744046588428315
1783002559905176800,0.6081767578125,-0.31561493242383004,-0.03011391016952693,0.0315900836693123
1783002559915229000,0.61822900390625,-0.2552507723540067,-0.02214446566030383,-0.02084748465232551
1783002559925279700,0.62827978515625,-0.024375731843709943,0.028111557371169327,-0.08856156909354031
1783002559935331800,0.638331787109375,0.03752396723031998,0.07138334753848612,-0.08726097135636955
1783002559945383700,0.6483837890625,-0.04238777387440204,0.06481288310699164,-0.02436173985097557
1783002559955436000,0.65843603515625,-0.10626900215446948,0.05925678334981203,0.025766492082364856
1783002559965487000,0.668487060546875,-0.06147007548511028,0.04673245201520621,0.10499342926070093
1783002559975539000,0.6785390625,-0.04211480215191841,-0.0667034460939467,0.1652887253453955
1783002559985591000,0.688591064453125,-0.08012509159445762,-0.09706994278505444,0.11366145049333572
1783002559995641900,0.698641845703125,-0.20662322730720042,-0.10502930429168045,0.03197477213796228
1783002560005694000,0.70869384765625,-0.09796411514580249,-0.11847637649439274,-0.036788930954039095
1783002560015745800,0.718745849609375,0.054501990038156506,-0.08332936752848327,-0.11102682767342775
1783002560025798000,0.7287978515625,0.0363987625926733,-0.1286672233801335,-0.2161202832425013
1783002560035849000,0.738848876953125,-0.012562544453144073,-0.16888539813049136,-0.23282752628494052
1783002560045900800,0.74890087890625,-0.017570143482089042,-0.16253595603853463,-0.2464553618820384
1783002560055953000,0.758952880859375,-0.011665303352475166,-0.1494553790606558,-0.2511373456858098
1783002560066003700,0.769003662109375,-0.01730535506606102,-0.13785466537699104,-0.1603639457616955
1783002560076056000,0.77905615234375,-0.21632044545710086,-0.0847635650500655,0.09524652675017714
1783002560086107600,0.789107666015625,-0.22587737835347652,-0.08324578089825808,0.24639314683340488
1783002560096159700,0.79915966796875,-0.19928104785084724,-0.14391878772154448,0.2299731232345104
1783002560106210800,0.8092109375,-0.2098053644746542,-0.16873254565633833,0.10642558095566927
1783002560116262700,0.8192626953125,-0.204723531165719,-0.15044066377095877,-0.08163600761406123
1783002560126314800,0.829314697265625,-0.17343991962969302,-0.1064534918759018,-0.19112181639056652
1783002560136366800,0.839366943359375,-0.10789864918291568,-0.09299326793067157,-0.1874121847502887
1783002560146418000,0.84941796875,0.08508066817522049,-0.14016608412452042,-0.1311145069343969
1783002560156469800,0.8594697265625,0.12040858666598796,-0.1697179764971137,-0.0523220887158066
1783002560166521900,0.86952197265625,0.06029927814006805,-0.13558357863985002,-0.013407690040394663
1783002560176572700,0.87957275390625,-0.014927520018815994,-0.09519903434664011,0.08574355253074317
1783002560186624800,0.889624755859375,-0.08804244059026241,-0.07996259450912475,0.18443923335410653
1783002560196676600,0.899676513671875,-0.015097031366825104,-0.11907872630171477,0.14626925983782857
1783002560206728700,0.909728759765625,0.04909165542721748,-0.1267025722436607,-0.002803805374354124
1783002560216779800,0.91977978515625,0.0913712927520275,-0.07354702837839722,-0.1238042021873407
1783002560226831600,0.92983154296875,0.12194529471397399,-0.05377257978506386,-0.17913466067258269
1783002560236884000,0.939884033203125,0.08807692738175392,-0.12555011427290738,-0.13503458472127094
1783002560246935800,0.949935791015625,0.01727086827456951,-0.1574294266797602,-0.0417279217261821
1783002560256987000,0.95998681640625,-0.030571079352498053,-0.10653590946234762,0.019994228823855518
1783002560267038700,0.970038818359375,-0.20662614991664885,-0.06356507500298321,0.0871147312860936
1783002560277090800,0.9800908203125,-0.35762978133261203,-0.05053184429816902,0.10476378522329031
1783002560287142000,0.990141845703125,-0.34815994219779967,-0.08198051020279526,-0.005889971354044974
1783002560297193700,1.00019384765625,-0.22278350399136543,-0.09544299917034804,-0.10939069610526785
1783002560307245800,1.010245849609375,-0.020144962406158446,-0.052637949731945986,-0.12810509598534553
1783002560317297700,1.020297607421875,0.12107201901078224,-0.03308510800004005,-0.08283288924843073
1783002560327348700,1.0303486328125,0.12031272507607936,-0.049782560300827026,-0.09365114731751382
1783002560337400600,1.040400634765625,0.01493687236905098,-0.07979118346497416,-0.11597330763228236
1783002560347453000,1.050452880859375,0.007554360902309418,-0.10274879213906823,-0.07939440269973129
1783002560357504800,1.0605048828125,0.030317396852374074,-0.10941146489866077,-0.05273640513774007
1783002560367555800,1.070555908203125,-0.10073825603425503,-0.09947510423064232,0.030380452151224015
1783002560377608000,1.08060791015625,-0.29690029508173466,-0.06152911219596863,0.16041205921974033
1783002560387659800,1.09065966796875,-0.2430751813918352,-0.03760609255582094,0.19334358409326521
1783002560397710800,1.1007109375,-0.0155459441781044,-0.050366789929568764,0.0394542411731556
1783002560407762700,1.1107626953125,0.03700783440172672,-0.07954203100949525,-0.13447667684387415
1783002560417814800,1.120814697265625,-0.023335282880067823,-0.03402333869822323,-0.144509520156309
1783002560427866600,1.13086669921875,-0.11299860267043113,-0.05196611488498747,-0.10805555677767842
1783002560437917700,1.140917724609375,-0.08733166197240352,-0.0898253054190427,-0.06915960707440971
1783002560447969800,1.1509697265625,-0.10571545992493629,-0.11536204386614263,-0.0007325155256316066
1783002560458022000,1.16102197265625,-0.13763620032072066,-0.11120441273003816,0.06428009140454233
1783002560468073700,1.17107373046875,-0.12383446946144103,-0.0871006296955049,0.10801456718016415
1783002560478124800,1.181124755859375,-0.13903671476840973,-0.07255896718911826,0.14503708769436924
1783002560488177000,1.191177001953125,-0.06091887134313583,-0.07771276975572108,0.16289112615175544
1783002560498228700,1.201228759765625,0.07913198890388011,-0.07003894719220698,0.060558659728616474
1783002560508279800,1.21127978515625,0.051339142093062395,-0.05337729685716331,-0.011120675081759691
1783002560518331600,1.22133154296875,-0.0628764351516962,-0.09887246216237544,-0.003051934916526079
1783002560528383700,1.2313837890625,-0.06708557727932929,-0.15710026779063044,0.004330722680687904
1783002560538435600,1.241435546875,0.02703764452934265,-0.15587562136650085,-0.005258614647947251
1783002560548486700,1.251486572265625,0.07707330280840397,-0.11677110694646835,-0.0023811229828745125
1783002560558538800,1.261538818359375,-0.025500351959466934,-0.07204933716654777,0.019920542533136902
1783002560568590800,1.2715908203125,-0.15859306363165376,-0.07159684415869415,0.07161690056603401
1783002560578643000,1.281642822265625,-0.13331015381515024,-0.04724631982147694,0.08319708291832358
1783002560588693800,1.29169384765625,-0.012702829706668852,-0.022001184732094406,0.044988750153034926
1783002560598745900,1.301745849609375,0.007578910821676253,-0.0015353928737342356,-0.01934595751557499
1783002560608797700,1.311797607421875,-0.08909925616681576,0.025258140701428053,-0.08246186397895217
1783002560618848800,1.321848876953125,-0.1628705948203802,0.030262305664271114,-0.08369845656920225
1783002560628900900,1.33190087890625,-0.19340192668437955,0.021306772727146744,-0.08966510988865047
1783002560638952700,1.34195263671875,-0.2899567595541477,-0.010018851319700478,-0.00142747551985085
1783002560649004800,1.3520048828125,-0.37968554579615593,-0.08421521045230329,0.08743369757477193
1783002560659055600,1.3620556640625,-0.42804362625181674,-0.09720241005830466,0.13353366037271916
1783002560669107700,1.372107666015625,-0.33696167183518405,-0.04018624524213373,0.11409644437711686
1783002560679159800,1.382159912109375,-0.13850713793635366,-0.0129502285964787,0.025564576302096246
1783002560689212000,1.3922119140625,0.01088087497651577,-0.0028968904852867123,-0.06844806127157062
1783002560699263000,1.402262939453125,0.024207389539480206,0.03872873991020023,-0.06662826196588575
1783002560709314800,1.412314697265625,0.18753741856515407,0.013248919282108544,-0.007461129660904407
1783002560719367000,1.422366943359375,0.2734212198168039,-0.029069369552657008,-0.016117022064328194
1783002560729417700,1.432417724609375,0.19125380873978137,0.014309461185708642,-0.013500957814417779
1783002560739469800,1.4424697265625,-0.02925415153503418,-0.042887832351028915,-0.01757200664561242
1783002560749521700,1.452521728515625,-0.20767712027430532,-0.08111381037086247,0.04306852268017828
1783002560759573800,1.46257373046875,-0.17987667467892168,-0.023270547080785034,0.09954984996728598
1783002560769624800,1.472624755859375,-0.04522328956127167,0.015095204735919833,0.012572371727414428
1783002560779676700,1.4826767578125,-0.004591419443488121,0.009856061973422765,-0.08266272031329572
1783002560789728800,1.492728759765625,-0.02451192544400692,0.007576061277464032,-0.10812438423018902
1783002560799780900,1.50278076171875,-0.04331307202577591,-0.023999372811987996,-0.08082688318826257
1783002560809832000,1.51283203125,0.027348610174655914,-0.02311922897659242,-0.06133176299296319
1783002560819883800,1.5228837890625,0.0717909784913063,-0.007605725763365626,-0.03641604252103716
1783002560829935900,1.532935791015625,-0.011499299135804176,0.0026519758135080335,-0.010801635727845132
1783002560839987700,1.54298779296875,-0.1549625981748104,-0.03622274843864143,0.02087941416054964
1783002560850038800,1.553038818359375,-0.16429741275310517,-0.06930672392752021,0.056574521995894606
1783002560860090600,1.563090576171875,-0.14125029916465281,-0.04988912594784051,0.08914539686348288
1783002560870142700,1.573142822265625,-0.14853402643203734,-0.03238981921225786,0.06445416932981461
1783002560880193800,1.58319384765625,-0.11741174293756484,-0.046645029460079965,-0.019602051168493926
1783002560890245600,1.59324560546875,-0.07458674668967723,-0.07886351069342344,-0.03821300894040614
1783002560900298000,1.603298095703125,-0.06574351502060889,-0.09283493556380272,0.007844685618393122
1783002560910349800,1.613349853515625,-0.04685644372105598,-0.10052391916383058,0.009848499721474944
1783002560920401000,1.62340087890625,-0.015991349858045577,-0.1070914244532585,0.03483699316866696
1783002560930452700,1.63345263671875,-0.06136076989173889,-0.14120456032678483,0.05866301870774478
1783002560940504800,1.6435048828125,-0.08022036866247653,-0.12684461106285452,0.10089779397752136
1783002560950556000,1.653555908203125,-0.15282558614611624,-0.07703545501604676,0.14901066750045866
1783002560960607700,1.663607666015625,-0.25691665973961353,-0.07839282444175333,0.1513684096077457
1783002560970659800,1.673659912109375,-0.1578735171854496,-0.08354870936758815,0.042236601900681854
1783002560980711700,1.683711669921875,-0.05475859514772892,-0.06781246678177266,-0.09382562710158526
1783002560990762800,1.6937626953125,-0.05529343267679214,-0.014856171815656124,-0.11549100400805473
1783002561000814600,1.703814697265625,-0.07820552170872688,-0.049498226934112606,-0.04396291423663497
1783002561010867000,1.713866943359375,-0.06013502748906612,-0.08387593202795833,-0.021604038640670477
1783002561020918800,1.723918701171875,0.016276012018322943,-0.06299308380130678,0.0071101973313838236
1783002561030969900,1.733969970703125,-0.014597265151143074,-0.052539348195679486,0.05907664100993424
1783002561041021700,1.744021728515625,-0.136893272998929,-0.08363521860726177,0.09870035699848086
1783002561051073800,1.75407373046875,-0.2292594220072031,-0.08428940819967537,0.12728424458913504
1783002561061125600,1.764125732421875,-0.14744740023911,-0.034393450652249156,0.08694909239560365
1783002561071176700,1.7741767578125,0.025309797823429105,0.0009880977218970656,-0.015206081231869756
1783002561081229600,1.7842294921875,0.08753039941489696,-0.015991203727573157,-0.08601897193863987
1783002561091281700,1.79428173828125,0.09306348362267017,-0.046310646406561136,-0.09372815807648002
1783002561101332700,1.804332763671875,0.0004243628919124603,-0.08807349331565201,-0.03725793670527637
1783002561111384600,1.814384521484375,-0.0022521628409624098,-0.10388656399734318,-0.044728309118561446
1783002561121436700,1.824436767578125,0.015358312651515006,-0.04531695919409394,-0.037895138630270955
1783002561131488500,1.834488525390625,-0.059658057627081866,-0.01154226149469614,0.010764591653086245
1783002561141539600,1.84453955078125,-0.18037059567570685,-0.04138721852973103,0.09058675477821379
1783002561151591400,1.85459130859375,-0.1947171009361744,-0.034489531437866386,0.13941895555164663
1783002561161643500,1.8646435546875,-0.10834639295041561,-0.04662683621626347,0.06328939986675977
1783002561171695600,1.874695556640625,-0.026844752305746077,-0.07617573291417211,-0.04209324790723622
1783002561181746700,1.88474658203125,-0.013706453791260719,-0.05726181014031172,-0.08386435118801891
1783002561191798800,1.894798828125,-0.055121583241224285,-0.03424757590815425,-0.04752170269675553
1783002561201850600,1.9048505859375,-0.14786474886834622,0.006399966702796518,0.11310093053374438
1783002561211901700,1.914901611328125,-0.4033756334632635,0.017476473849266767,0.23866426961440593
1783002561221953500,1.92495361328125,-0.452183795773983,-0.05343063447959721,0.25484683119561524
1783002561232005600,1.935005615234375,-0.31104981646537777,-0.13647961416412144,0.20140647903960196
1783002561242057500,1.945057373046875,-0.24045535428225992,-0.05639277222082018,0.16776739041861147
1783002561252108500,1.955108642578125,-0.3535463114112615,0.030026999071054158,0.1751750180603005
1783002561262160600,1.96516064453125,-0.39661505328714847,0.02228076885845512,0.20095696344012393
1783002561272212500,1.97521240234375,-0.17684300607144832,-0.014194639167003333,0.09202898947577923
1783002561282264800,1.985264892578125,0.05379471855163574,-0.006382065719924866,-0.07114113628044724
1783002561292315600,1.995315673828125,0.16026479623615741,-0.010198591800779104,-0.13072879555244
1783002561302367700,2.00536767578125,0.13273498427569866,-0.08966313712727278,-0.19186576662566512
1783002561312419600,2.015419677734375,0.11430676265954971,-0.1719065360499546,-0.3088881083868444
1783002561322470700,2.025470703125,0.16548282314538953,-0.23655308614671228,-0.2345910836250521
1783002561332522800,2.035522705078125,0.14090952290296554,-0.23049042510688303,-0.16380111713614315
1783002561342574600,2.04557470703125,0.06081599549055099,-0.19160247604697941,-0.08055106192156672
1783002561352626700,2.055626708984375,-0.04630816218852996,-0.13622205920647829,0.031136293753515926
1783002561362677500,2.065677490234375,-0.054822892555594444,-0.1181128769442439,0.05450513184331357
1783002561372729600,2.0757294921875,0.003688333123922348,-0.10716788722295313,-0.03997318701334297
1783002561382781400,2.085781494140625,-0.03219371211826801,-0.09403419181834906,-0.10299920496987178
1783002561392833800,2.095833740234375,-0.09787117616534233,-0.08605265501253306,-0.11805407769540324
1783002561402884600,2.105884521484375,-0.07485504223704338,-0.10725914570298045,-0.14134128365004434
1783002561412936700,2.115936767578125,-0.08648644331991671,-0.0833814995745197,-0.07840818640766666
1783002561422988500,2.125988525390625,-0.16810089668929576,-0.06006587124299258,0.009145648681744932
1783002561433040600,2.13604052734375,-0.1830097120076418,-0.03950235463120043,0.02078106835260987
1783002561443091700,2.146091796875,-0.26747604767680166,-0.019817739745788276,0.003450998970400542
1783002561453143600,2.1561435546875,-0.31650223665237426,-0.018972594158537685,0.021363069491647183
1783002561463195600,2.166195556640625,-0.2293026766270399,-0.0523747687511146,0.07703050484629348
1783002561473246500,2.17624658203125,-0.08142799088656902,-0.10079849832151085,-0.01584134692810476
1783002561483298600,2.186298583984375,0.05472410835623741,-0.07501841610521078,-0.1041787336106412
1783002561493350400,2.196350341796875,0.03204641260206699,-0.04910298053883016,-0.16693788079191
1783002561503402800,2.20640283203125,0.036218145328760144,-0.09482322330418974,-0.12726553988866507
1783002561513453800,2.216453857421875,0.07945873664021491,-0.12809771639648823,-0.026406251290626823
1783002561523505700,2.226505615234375,0.13841536799967288,-0.12604454672634602,-0.008584726863354444
1783002561533557800,2.236557861328125,0.13320669344067573,-0.12787950706854462,-0.03345808776458725
1783002561543608600,2.246608642578125,0.04097966064214706,-0.11823540734536946,0.01966634857635945
1783002561553660700,2.25666064453125,-0.0719435387045145,-0.1071488171963021,0.0976600358990021
1783002561563712500,2.26671240234375,-0.0245300456225872,-0.08521854227595031,0.11903187321899458
1783002561573764600,2.2767646484375,-0.07494388956427574,-0.09779584590680897,-0.009105627198610454
1783002561583815700,2.286815673828125,-0.14112228887081146,-0.082875961205177,-0.06610363530358299
1783002561593867500,2.296867431640625,-0.24081015906929967,-0.06936890244353562,-0.0108378760850057
1783002561603919600,2.306919677734375,-0.23822364970743654,-0.09161536717358976,-0.020203816453926264
1783002561613971700,2.3169716796875,-0.13108721706867218,-0.06645933513976633,-0.09098638508766889
1783002561624022800,2.327022705078125,-0.19008710304796694,-0.04721245408449322,-0.05303339705662802
1783002561634074600,2.33707470703125,-0.2659352479755878,-0.0727785647565499,0.01681152540082112
1783002561644126700,2.347126708984375,-0.2753787836253643,-0.02500244890730828,0.09249951133066787
1783002561654178600,2.357178466796875,-0.187897484049201,0.009351108125969766,0.07263743925280869
1783002561664229600,2.367229736328125,-0.06441723485291004,0.0016745090834796427,0.030971202852297573
1783002561674281500,2.377281494140625,-0.020607319220900533,-0.011722075041010974,-0.019536036727577446
1783002561684333600,2.38733349609375,0.0249877262622118,-0.017143661698326467,-0.05953693373175337
1783002561694384600,2.397384521484375,0.08452771046757697,-0.020317104102671145,-0.1695431313868612
1783002561704436500,2.4074365234375,0.10060264695584774,-0.029186420061066747,-0.22609628180116415
1783002561714488600,2.417488525390625,-0.018279753056168555,-0.03991141035612673,-0.13736620600661262
1783002561724540700,2.427540771484375,-0.06165127727091312,-0.029412008977867662,-0.04938830028623342
1783002561734591700,2.437591796875,0.05937631807625293,0.007378164085187018,-0.0020663579452782866
1783002561744643600,2.4476435546875,0.09798515793383121,0.007487688874267041,0.02247850165395066
1783002561754695700,2.45769580078125,0.09140110336840153,-0.028946473825350403,-0.01671666845791042
1783002561764747500,2.46774755859375,0.03364449544847011,-0.036745530203729865,0.011891732519492507
1783002561774798600,2.477798583984375,-0.20121055460870266,-0.014274791731126606,0.12082666594758629
1783002561784850700,2.4878505859375,-0.2900029367834329,-0.023229667081125078,0.09090676224650815
1783002561794902500,2.497902587890625,-0.19030162258148192,-0.0684492668479681,-0.02014470667783171
1783002561804953600,2.50795361328125,-0.08967617927193641,-0.06635613049361855,-0.06179384581306949
1783002561815005400,2.51800537109375,-0.10025193382203579,-0.04711681169029325,-0.052293392344284796
1783002561825057500,2.5280576171875,-0.1357084471285343,-0.051455315818637604,-0.03596146715395152
1783002561835109600,2.538109619140625,-0.0687058719575405,-0.07534381213467568,-0.054980530802719293
1783002561845160700,2.54816064453125,0.057098436272144316,-0.0567864842461422,-0.05028040855405852
1783002561855212800,2.558212890625,0.014565700969099997,-0.029243264814838764,-0.029681528367940333
1783002561865264600,2.5682646484375,-0.11072831965088843,-0.06491638001408427,-0.0076109499277547
1783002561875316700,2.578316650390625,-0.18714111272394657,-0.0801194655712694,0.05106852672444656
1783002561885367600,2.588367431640625,-0.18409283106923102,-0.047034394103847445,0.06201488641891628
1783002561895419600,2.598419677734375,-0.1460620833605528,-0.08152242770437151,0.03104388449601829
1783002561905471500,2.608471435546875,-0.08276596149206161,-0.10690361026357859,0.04192541705965996
1783002561915523600,2.618523681640625,-0.028143559944629668,-0.08604385065156966,0.03269145077364519
1783002561925574700,2.62857470703125,-0.0583148263245821,-0.07883724374100566,0.02634204521430656
1783002561935626500,2.63862646484375,-0.05793254900872707,-0.06948094798326492,0.01105519036380574
1783002561945678600,2.6486787109375,-0.027705753049254416,-0.07329992174953222,0.0104554343723692
1783002561955729700,2.658729736328125,-0.04034019369482994,-0.07832019759695977,0.031295448104292155
1783002561965781800,2.66878173828125,-0.02102934402525425,-0.09976674412097782,0.011960048515349625
1783002561975833600,2.67883349609375,-0.057062780436873434,-0.09938764514289795,-0.019542302071582526
1783002561985885700,2.6888857421875,-0.13984218593239783,-0.09307462607119232,-0.0005136851431801915
1783002561995936500,2.6989365234375,-0.18109890995025635,-0.07753313887249678,-0.0032622349326498806
1783002562005988600,2.708988525390625,-0.12717384301722048,-0.055935895298793906,-0.02797642321679741
1783002562016040400,2.71904052734375,-0.06793722567260264,-0.056966882314346726,-0.09458481143843382
1783002562026092500,2.729092529296875,-0.036702713975310323,-0.07527600759547204,-0.10676034760167821
1783002562036143600,2.7391435546875,0.0024257658421993253,-0.0700364629741758,-0.06155475809387862
1783002562046195500,2.749195556640625,-0.026736615756154058,-0.0691574516499415,-0.03680327000664547
1783002562056247800,2.759247802734375,-0.08672083659768104,-0.0669884005151689,-0.06314447497073561
1783002562066298600,2.769298583984375,-0.11416413931846618,-0.0879977611983195,-0.02269181561106816
1783002562076350700,2.779350830078125,-0.14094810134768485,-0.08015512140654027,0.0510674672785215
1783002562086402800,2.78940283203125,-0.28367607184946536,-0.030195560570992527,0.10243587199868634
1783002562096455000,2.799454833984375,-0.3106090869605541,-0.031400662044435736,0.14368673253133893
1783002562106506000,2.809506103515625,-0.31844460289180276,-0.07056260574012994,0.0786009325007908
1783002562116557800,2.819557861328125,-0.2978612490683794,-0.06693049631547182,-0.028402430076524612
1783002562126610000,2.82960986328125,-0.10596446624994277,-0.05399995880015194,-0.09411624407861381
1783002562136662000,2.839662109375,0.06918927156031131,-0.03827219178173691,-0.029848391101136802
1783002562146713000,2.849713134765625,0.10090367572903633,-0.07714684296865015,-0.05791181674795225
1783002562156765000,2.859764892578125,0.14882920998632906,-0.06176909496430307,-0.0933249110378325
1783002562166817000,2.869817138671875,0.13114859186708927,-0.02150514484345913,-0.05720412513632327
1783002562176868900,2.879868896484375,0.06539572449624538,-0.030634463444910942,0.06192936355993151
1783002562186920000,2.889919921875,0.00013853168785572052,-0.011232282230071724,0.12779376501385123
1783002562196971800,2.8999716796875,-0.041219314616918565,0.031124548516795036,0.13208578138565644
1783002562207023900,2.91002392578125,-0.07322714877426624,0.060323681928962467,0.03168694990621879
1783002562217075000,2.920074951171875,-0.08302841182053089,0.053696884200349446,-0.12372545612901449
1783002562227126800,2.930126708984375,-0.06247779122292995,0.058584729307144874,-0.17293125772150233
1783002562237179000,2.940178955078125,-0.050261283728480335,0.03912036957629025,-0.1000434421705082
1783002562247231000,2.95023095703125,0.015104630151391029,0.008917977405712008,-0.02930487707527354
1783002562257282000,2.960281982421875,0.0210357737660408,0.0024179478619247674,-0.037313265355397016
1783002562267334000,2.970333984375,0.0056564183264970775,-0.008013795107603073,-0.10094521331582218
1783002562277386000,2.980385986328125,-0.013078092759847641,-0.024525734773650765,-0.10144287890596315
1783002562287437000,2.99043701171875,-0.04741524664759636,-0.04472746886834502,0.01668713183617219
1783002562297489000,3.000489013671875,-0.11801789213716983,-0.04275331925116479,0.09299951500836759
1783002562307541000,3.010541015625,-0.17012684955894947,-0.02088810892365873,0.07351493447339162
1783002562317592800,3.0205927734375,-0.15933482190966605,-0.03676993399262428,0.0036910000050440427
1783002562327644000,3.030643798828125,-0.07712941690981388,-0.0656949266385287,-0.0313652619374916
1783002562337695700,3.04069580078125,0.022754852643609047,-0.04498743497878313,-0.005243051752634346
1783002562347747800,3.050747802734375,0.02086801598370075,-0.059618456269055604,0.0066465253423899405
1783002562357800000,3.060800048828125,0.02823006918430328,-0.09425970766991376,0.0065284519206732505
1783002562367851000,3.07085107421875,0.054120881766080854,-0.10121533549409359,0.020387064066343007
1783002562377903000,3.080903076171875,-0.04055237514078617,-0.07500869842879473,0.009383676955010741
1783002562387955000,3.090954833984375,-0.16721242341697215,-0.038404476391896605,0.04546469710171223
1783002562398007000,3.101007080078125,-0.19410802912712097,-0.015536007305979729,0.03666775225978344
1783002562408057900,3.111057861328125,-0.22029051813185213,0.008919365645200013,0.0085054510820657
1783002562418110000,3.12110986328125,-0.2285176637291908,-0.012301190103217959,0.015528079727850853
1783002562428161800,3.131161865234375,-0.15281681831777094,-0.024904066566750406,-0.012737572226487099
1783002562438212900,3.141212890625,-0.07293313426375389,-0.025401896553672847,-0.06491570416064933
1783002562448265000,3.151264892578125,0.0066927756369113914,-0.04640785970333963,-0.08880681255888194
1783002562458316800,3.16131689453125,0.04880816231071949,-0.04436122937183827,-0.09639679276384412
1783002562468369000,3.171368896484375,0.022279051825404166,-0.039204796456731854,-0.13562497009616345
1783002562478420000,3.181419921875,-0.04344985014796257,-0.05338259408678859,-0.08857610907554626
1783002562488472000,3.19147216796875,-0.047160395103693006,-0.0442136010620743,0.0006559066254645586
1783002562498524000,3.20152392578125,-0.044098669445514674,-0.006419548186101019,0.02689626329727471
1783002562508575000,3.211574951171875,-0.1395610309034586,-0.002668342426419258,0.05286094483286142
1783002562518626800,3.221626708984375,-0.2959872718900442,-0.010903013743087648,0.0839587514732033
1783002562528679000,3.231678955078125,-0.3545727318495512,-0.022081775687634943,0.04181234860662371
1783002562538730800,3.241730712890625,-0.2650532044440508,-0.06899130130279808,0.020577143278345464
1783002562548781800,3.25178173828125,-0.12840893777012824,-0.08033124515842646,0.014314393089152872
1783002562558834000,3.261833984375,-0.10681962177455424,-0.0900156403593719,0.01678056400697678
1783002562568885800,3.2718857421875,-0.09268822056949139,-0.11897044362165034,0.04868855451904237
1783002562578938000,3.281938232421875,-0.07783785744011401,-0.12261603358238934,0.06128226129543036
1783002562588989000,3.291989013671875,-0.021291794353723525,-0.07558050696738064,0.021048888975940643
1783002562599041000,3.302041015625,0.004321370330452919,-0.06109335112720728,0.03561422461885959
1783002562609092900,3.3120927734375,-0.03907295023798942,-0.08138144833110272,0.11085311507433653
1783002562619145000,3.32214501953125,0.007724456772208213,-0.08591178523711859,0.11100764804892241
1783002562629196000,3.332196044921875,-0.04171791178882122,-0.09622947337292134,0.013785327713750302
1783002562639248000,3.342247802734375,-0.09997896209955215,-0.07904949825219809,0.02219740142393857
1783002562649300000,3.352300048828125,-0.0338888255983591,-0.08725677010528743,0.005085340440273285
1783002562659350800,3.362350830078125,0.052764790982007974,-0.07069032377302646,-0.03374740783367306
1783002562669403000,3.37240283203125,0.1011053357809782,-0.04324840929172933,-0.041432080584764476
1783002562679454700,3.382454833984375,0.04431377350091934,-0.05387026800587773,-0.01177132101021707
1783002562689507000,3.392507080078125,0.004809446108341216,-0.06786964032910764,-0.020353088731504976
1783002562699558100,3.40255810546875,-0.03552548688948154,-0.04352116181850433,-0.03234992559328675
1783002562709610000,3.41260986328125,-0.06619125878810882,-0.00644183308314532,-0.075618062498793
1783002562719661800,3.422661865234375,-0.09088847767114638,0.0020246011627838016,-0.06195720141492784
1783002562729713000,3.432712890625,-0.03106792295873165,-0.032415720838494595,-0.104103458151035
1783002562739765000,3.442764892578125,-0.027384266009926793,-0.020760390890762207,-0.1864006696201861
1783002562749816800,3.45281689453125,0.013382628664374351,0.017959873452037572,-0.19246435357332228
1783002562759869000,3.462868896484375,0.008969488397240637,0.023117767671868204,-0.14065868994705377
1783002562769920000,3.472919921875,-0.03620002515017986,-0.015286635654792189,-0.0791716633271426
1783002562779971800,3.482971923828125,-0.00587853664457798,-0.03636387394238263,-0.0106407460777089
1783002562790023700,3.493023681640625,-0.005437222617864609,-0.000762472272478044,0.02706270590536296
1783002562800076000,3.503075927734375,-0.17350597060322762,0.008526274674385785,0.0033127778097987175
1783002562810127000,3.513127197265625,-0.2976093201339245,-0.008593823485262692,0.0029149010660126803
1783002562820179000,3.523178955078125,-0.2054179431706667,-0.023605660786665976,-0.015089797908440231
1783002562830231000,3.53323095703125,-0.09833353298008442,-0.010559899393841624,-0.06528908578399568
1783002562840283000,3.543282958984375,-0.09486790269613266,0.003940115927904844,-0.09259758314397186
1783002562850334000,3.553333984375,-0.10732347964346409,-0.024774704566039144,-0.0814818764982745
1783002562860385800,3.5633857421875,-0.041266660889983174,-0.043052083002030846,-0.04122662114053964
1783002562870438000,3.57343798828125,-0.053742696103453634,-0.05462185355816036,0.039703174432925877
1783002562880489000,3.583489013671875,-0.07181143675744533,-0.08773271705396472,0.06534143702574075
1783002562890540800,3.593540771484375,-0.06457096410989761,-0.11161010745409876,0.0783960393121466
1783002562900593000,3.603593017578125,-0.07723463084995746,-0.09961385511420666,0.1128586462104693
1783002562910645000,3.61364501953125,-0.11788228305876254,-0.09102843413110821,0.1298546795990318
1783002562920696000,3.623696044921875,-0.05786182186007499,-0.06234035551361739,0.00818531574960798
1783002562930748000,3.633747802734375,-0.0764355894267559,-0.07320621558409184,-0.09732176212165504
1783002562940800000,3.643800048828125,-0.1139887827515602,-0.1146037363121286,-0.04163918399680406
1783002562950851000,3.65385107421875,-0.11508359225094318,-0.1562204527487978,-0.019986630039289594
1783002562960903000,3.66390283203125,-0.03958849854469299,-0.17338618014845997,-0.023679237479530272
1783002562970955000,3.673955078125,-0.014891279661655425,-0.15364183443244545,0.0014515139825642107
1783002562981006800,3.6840068359375,-0.1087123036533594,-0.17604878695383666,0.034415845147147774
1783002562991058000,3.694057861328125,-0.146156775906682,-0.2003967905404046,0.04174330195840448
1783002563001109800,3.70410986328125,-0.07108838317990303,-0.1679134478257969,0.027098252142779528
1783002563011161900,3.714161865234375,-0.030661095723509786,-0.1472896523941308,-0.008462744451500475
1783002563021214000,3.7242138671875,-0.12592062808573246,-0.14445519615318625,0.009779818399436771
1783002563031264800,3.7342646484375,-0.3465326332569122,-0.16319080321807414,0.024854309140890835
1783002563041316900,3.74431689453125,-0.42442134410142895,-0.14757522786986083,-0.03506999820694327
1783002563051369000,3.754368896484375,-0.3660533262848854,-0.0761196553453803,-0.11236136421281843
1783002563061420000,3.764419921875,-0.35076048008501526,-0.09474584721904247,-0.05595872818510979
1783002563071471900,3.774471923828125,-0.2956856585949659,-0.0842207634102553,0.01874466715417802
1783002563081523700,3.784523681640625,-0.24142975227236746,-0.11427041270453482,0.05967935614343732
1783002563091575600,3.794575439453125,-0.13134206861257552,-0.05730038858503103,0.07095405274312942
1783002563101626600,3.804626708984375,-0.018205518776178358,-0.020166918509639798,0.08074768047221005
1783002563111678700,3.8146787109375,0.11897066281735896,-0.0017983911914750933,0.0219748081818223
1783002563121730600,3.82473046875,0.25089842236340043,0.02462608987558633,-0.049518210276216265
1783002563131782700,3.83478271484375,0.2065320418924093,0.009489128357172012,-0.060685720174387094
1783002563141833500,3.84483349609375,0.10466799669861793,0.0014020122850313783,-0.05740571212302893
1783002563151885800,3.8548857421875,0.09673194300234317,0.011037526842951773,-0.06621789106670767
1783002563161937700,3.864937744140625,0.029569208833575247,-0.014092019042745232,-0.1105215084997937
1783002563171988700,3.87498876953125,0.010673954227566718,-0.025999241392314434,-0.0853480869397521
1783002563182040600,3.88504052734375,0.041783962762355804,0.06432593984026462,-0.03235693985596299
1783002563192092700,3.8950927734375,0.034876667591929436,0.0906941241428256,-0.010698358016461133
1783002563202144500,3.90514453125,0.027236966493725773,0.05269757096469402,-0.03347692032922059
1783002563212195600,3.915195556640625,-0.05840776530504226,0.021911022230610252,-0.004441599176637828
1783002563222247700,3.92524755859375,-0.10483575448095798,0.034063305382430555,0.01910732645411044
1783002563232299500,3.935299560546875,-0.19474398894309997,0.018354206531867385,0.03510218344349414
1783002563242350600,3.9453505859375,-0.24253625220954417,-0.0027655191905796525,0.0005036021405830979
1783002563252402400,3.95540234375,-0.15123919373750686,0.006847272078879177,-0.04224741555564105
1783002563262454800,3.965454833984375,-0.09013970513045787,-0.013014306808635592,-0.022843882633931934
1783002563272506600,3.975506591796875,-0.02247720474600792,-0.0019065277410671114,-0.003741086224466562
1783002563282557700,3.9855576171875,0.012795184165239334,-0.0018859233444556594,-0.007076879583671689
1783002563292609800,3.99560986328125,-0.021768179693818092,-0.03768025377057493,0.005059000422619283
1783002563302661600,4.00566162109375,-0.021958149307966232,-0.0788125842237845,0.02562408793698996
1783002563312713700,4.015713623046875,0.03150631437599659,-0.08967373158652335,-0.01050944784823805
1783002563322764500,4.0257646484375,0.030153730723261832,-0.08247669622190296,-0.0012575988456606864
1783002563332816600,4.035816650390625,-0.010106383472681045,-0.0861312732066959,0.03785908093620091
1783002563342868500,4.045868408203125,-0.06180149939656257,-0.08002287332899868,0.050673736986890434
1783002563352919600,4.05591943359375,-0.1560685135900974,-0.10032920030932872,0.025012531909905374
1783002563362971600,4.0659716796875,-0.25731238105893134,-0.12438501601628958,0.09539872163720428
1783002563373023700,4.076023681640625,-0.2806558472454548,-0.14732771938219666,0.12519962033480406
1783002563383075800,4.086075927734375,-0.23348259266018867,-0.1469472321646288,0.07508399215471
1783002563393126700,4.096126708984375,-0.0967003788203001,-0.13809132367707788,0.027861162806674836
1783002563403178800,4.1061787109375,-0.0284732302904129,-0.11555588593780994,0.01763981118481606
1783002563413230600,4.116230712890625,-0.07843757689893245,-0.10219430006146431,0.012798106774687767
1783002563423281700,4.12628173828125,-0.13724047900140285,-0.12533139348831027,-0.05440799161177128
1783002563433333800,4.136333740234375,-0.10796060850322246,-0.10646196744330226,-0.04384560799989849
1783002563443385600,4.146385498046875,-0.14476035311222077,-0.07369239166583866,-0.0012724676212295888
1783002563453437400,4.1564375,-0.26287936753630636,-0.03286985781416297,0.040762693423219025
1783002563463488500,4.166488525390625,-0.23190847521126268,-0.025948826379328965,-0.04597794385347515
1783002563473540600,4.17654052734375,-0.17622399739027023,-0.028683146714046596,-0.1484946077371016
1783002563483592700,4.1865927734375,-0.08207271853089332,-0.02818812973871827,-0.06598813743144273
1783002563493644800,4.196644775390625,-0.03275894478559494,-0.02662946558725089,0.00863134248405695
1783002563503695600,4.206695556640625,0.02663724703490734,-0.015985796900093555,0.0021310572119429706
1783002563513747700,4.216747802734375,0.0617523995578289,-0.005873202882334589,0.022579349946230648
1783002563523799600,4.226799560546875,0.08833645510077476,-0.005090674202516674,0.00813435274735093
1783002563533850600,4.2368505859375,0.07554302450120448,0.012107896020822226,0.03600073971841484
1783002563543902700,4.24690283203125,-0.02068155350089073,-0.0008078457841649651,0.12918872650358826
1783002563553954600,4.25695458984375,-0.05504442635178566,-0.018720299897901714,0.05520396429505199
1783002563564006700,4.267006591796875,-0.05516542238295078,0.016179529373906553,-0.041929581778123975
1783002563574057500,4.277057373046875,-0.03991349271535873,0.03996438265237957,0.03561068095490336
1783002563584109600,4.287109619140625,-0.004925765964388847,0.024448577884212133,0.09246365456599742
1783002563594161700,4.29716162109375,0.00312660758793354,0.017881657116673885,0.05345967791099101
1783002563604212700,4.307212646484375,0.007304185533523559,0.010813180035166441,0.016917561324872075
1783002563614264800,4.317264892578125,0.048310149660706514,-0.0027661037124693394,0.033108013951592144
1783002563624316700,4.327316650390625,0.07416589092910289,-0.03728993927873671,0.03799143861159682
1783002563634368800,4.33736865234375,0.03166530432999134,-0.02221811541840434,0.0603968202304095
1783002563644419600,4.347419677734375,-0.13857728056311608,0.0003701119540259242,0.0361375178406015
1783002563654471700,4.3574716796875,-0.21699673728346824,-0.03873542537931353,-0.0597561477066949
1783002563664523500,4.3675234375,-0.09871464125216006,-0.07536357628107071,-0.07317530898917465
1783002563674575600,4.37757568359375,-0.08225684292614459,-0.07812365211155266,-0.03091777389831841
1783002563684626700,4.387626708984375,-0.1739028609663248,-0.06188559748344123,-0.048479734073951834
1783002563694678500,4.397678466796875,-0.208362179929018,-0.07752024285830557,-0.10202785745337604
1783002563704730600,4.407730712890625,-0.1798714139819145,-0.11814210303872823,-0.08524758570734411
1783002563714781700,4.41778173828125,-0.09264438142776489,-0.14217862952332944,-0.036921800086088474
1783002563724833800,4.427833740234375,0.03647475043833256,-0.15355415614899248,0.00464724128395319
1783002563734885600,4.4378857421875,0.020747604474425314,-0.13527531640827656,0.08259455044791102
1783002563744937700,4.447937744140625,-0.11906184823215007,-0.09679393885526806,0.07354275406207889
1783002563754988500,4.457988525390625,-0.2529442489773035,-0.07731277412008494,-0.019433270472846924
1783002563765040600,4.46804052734375,-0.26376316463351246,-0.11362035129796713,-0.007126892737857997
1783002563775092500,4.478092529296875,-0.08178104210793971,-0.09342537573762237,0.045170828721672295
1783002563785144600,4.48814453125,0.05934416937232017,-0.04799914748277515,0.03307491539958864
1783002563795195600,4.498195556640625,0.05557283414006233,-0.034977314954809845,-0.04969703744184226
1783002563805247500,4.50824755859375,0.008972995528578758,-0.044789062862470745,-0.10450254047121851
1783002563815299800,4.5182998046875,-0.07788754180073737,-0.0717720545951277,-0.12752689423859118
1783002563825350700,4.5283505859375,-0.14677227745652197,-0.046750060737133024,-0.05803597285058349
1783002563835402800,4.53840283203125,-0.23011107040047643,-0.006164915837906301,0.05845474625192582
1783002563845454600,4.54845458984375,-0.22457272549569607,-0.029391514179110526,0.10494407369364052
1783002563855506700,4.558506591796875,-0.14326105446517468,-0.05163626187611371,-0.003924808760918676
1783002563865557800,4.568557861328125,-0.14226736725270747,-0.0037132483694702384,-0.02876424912624061
1783002563875609600,4.578609619140625,-0.13920154994130135,0.008543371939659119,-0.023749526236765087
1783002563885661700,4.58866162109375,-0.22424247062802313,0.015535861175507306,-0.014325572070293127
1783002563895712500,4.59871240234375,-0.3889356047004461,0.015477372453920541,0.034625213581509884
1783002563905764600,4.6087646484375,-0.410931747931242,-0.02637362766265869,0.0031978096606209874
1783002563915816400,4.61881640625,-0.34557752448916434,-0.06487791116721928,0.02723787980917841
1783002563925868800,4.628868896484375,-0.26291911502480503,-0.09643829381801187,-0.01416775116007775
1783002563935919900,4.638919921875,-0.19239654903411865,-0.09939630337338894,-0.004366378515958786
1783002563945971700,4.6489716796875,-0.006945289093255996,-0.08996741730347275,0.006402030795719474
1783002563956023800,4.65902392578125,0.1782984655767679,-0.09525050880555062,-0.035055220762919635
1783002563966074600,4.66907470703125,0.16327742205560206,-0.07828099809773266,-0.015505740031879394
1783002563976126700,4.679126708984375,0.09605506665408611,-0.054361229860596355,0.00785040297312662
1783002563986178600,4.689178466796875,0.12972878819704056,-0.052913149944134055,-0.02968790330979973
1783002563996230700,4.699230712890625,0.19729834960103035,-0.08531126206070185,-0.04773938230173662
1783002564006281700,4.70928173828125,0.20664076296389103,-0.09774510210026055,-0.07080836066212505
1783002564016333600,4.71933349609375,0.1944248399913311,-0.08603457136657089,-0.05425974224749952
1783002564026385700,4.7293857421875,0.1780734246492386,-0.0788301198804751,-0.002047708043735474
1783002564036436500,4.7394365234375,0.0814157159268856,-0.08323547869995236,0.03826314995875582
1783002564046488800,4.74948876953125,-0.007348024675250053,-0.08179806630797684,0.07366592378402129
1783002564056540700,4.759540771484375,-0.04643383439481258,-0.05884166321028023,0.10197504955390467
1783002564066592800,4.7695927734375,-0.28862697225511075,-0.05683551101963967,0.15379848629888146
1783002564076643600,4.7796435546875,-0.40182957306504247,-0.09017572629190981,0.12267366378745063
1783002564086696000,4.789696044921875,-0.2401473112463951,-0.08397106296550481,-0.047502979729976504
1783002564096747800,4.799747802734375,-0.1152478429019451,-0.03465809293780476,-0.11113507382087409
1783002564106799900,4.8097998046875,-0.08718436245620251,-0.05576605515722185,-0.07645363654009997
1783002564116851000,4.819850830078125,-0.09511632449924945,-0.13918803287260234,-0.04732117515597492
1783002564126902800,4.82990283203125,-0.0345645329028368,-0.10037903080042451,-0.04173621463049203
1783002564136955000,4.839954833984375,-0.005295768320560455,-0.048215895505994553,-0.02710488281296566
1783002564147005700,4.850005615234375,0.05605389565527439,-0.07113419508300721,0.009808934896066785
1783002564157057800,4.860057861328125,0.03487725211381912,-0.08218063588477671,0.057003615861851716
1783002564167110000,4.87010986328125,-0.10759002162516117,-0.08316935466118157,0.00681981781637296
1783002564177161000,4.880160888671875,-0.1759200460076332,0.03173610454387962,-0.0008498400286771357
1783002564187213000,4.890213134765625,-0.13016834865808485,0.05294639462660998,0.007619900419190526
1783002564197265000,4.900264892578125,-0.10111877978444099,0.06325670317355543,-0.03302185177179053
1783002564207317000,4.91031689453125,-0.044052492216229436,0.10266195410583168,-0.07494045549817382
1783002564217367800,4.920367919921875,-0.027351532784104345,0.10417451409325003,-0.1671192104418762
1783002564227420000,4.930419921875,-0.0306692790299654,0.08542206549141555,-0.25504491105098276
1783002564237471700,4.9404716796875,-0.005172434201836586,0.054835496308840805,-0.30205135770197955
1783002564247523800,4.95052392578125,0.048288522350788114,0.04114230385795235,-0.28580248941890896
1783002564257575000,4.960574951171875,0.10338730923831463,0.054843533484824,-0.1446425354188308
1783002564267626800,4.970626708984375,0.07898410486578941,0.06971965210996568,-0.07725673308391123
1783002564277678800,4.980678955078125,-0.1107166292130947,0.05290551462695002,-0.007944784992001951
1783002564287730000,4.99072998046875,-0.21933950101733207,0.007848594608530402,0.01724664714876562
1783002564297782000,5.000781982421875,-0.11114508375823497,0.0007801540596410632,0.05371131458450108
1783002564307833900,5.010833740234375,-0.058580199262499806,-0.026328765607625246,0.07565024773534387
1783002564317886000,5.020885986328125,-0.03095803284347057,-0.07053834808170795,0.06936433586627244
1783002564327936800,5.030936767578125,0.08585340611338615,-0.1289776775687933,0.07303933458458632
1783002564337988900,5.04098876953125,0.20418109485208988,-0.16300203918032347,0.07989953921027482
1783002564348040700,5.051040771484375,0.20486440094113348,-0.16723616961874066,0.048553822223469614
1783002564358091800,5.061091796875,0.09663315880298613,-0.16906890147123485,0.06989559319876135
1783002564368144000,5.071143798828125,0.0003968903630971908,-0.17261859330944715,0.08284684470854699
1783002564378195700,5.08119580078125,-0.04240764761865139,-0.1374549254696816,-0.0035147666553035375
1783002564388248000,5.091248046875,-0.10133388383984565,-0.11497636901680379,0.015293905645795166
1783002564398298600,5.101298583984375,-0.20768997975587844,-0.14006642314232884,0.009672156773880124
1783002564408351000,5.11135107421875,-0.3006786445766687,-0.12647829850111156,0.025228841541707514
1783002564418402800,5.12140283203125,-0.3174824798613787,-0.1428947419034317,-0.010048077414184809
1783002564428454000,5.131453857421875,-0.2562304310411215,-0.1518625132676214,-0.011785532198660074
1783002564438506000,5.141506103515625,-0.23350480449199676,-0.1640831124152988,0.06976721757873892
1783002564448557800,5.151557861328125,-0.23952128830254077,-0.19352916979324072,0.06811408007685095
1783002564458610000,5.16160986328125,-0.17540742031037806,-0.17972130145411938,0.0633665202235803
1783002564468660700,5.17166064453125,-0.12614742257893086,-0.10384451495390384,0.06037592357285321
1783002564478712800,5.181712890625,-0.14683306773304938,-0.08157558266371488,0.09051317808534949
1783002564488764700,5.1917646484375,-0.205544199898839,-0.07635967464633285,0.11352021539174019
1783002564498817000,5.201817138671875,-0.26378946811854836,-0.06416355235278606,0.15034461951795963
1783002564508867800,5.211867919921875,-0.3194499805420637,-0.05793422950915992,0.12941077175643295
1783002564518920000,5.221919921875,-0.3017389672845602,-0.03507471091467887,0.083706347614713
1783002564528972000,5.231971923828125,-0.20426994217932223,-0.04022051283791661,0.04264675360415131
1783002564539022800,5.24202294921875,-0.08745733417868613,-0.035590405351854856,-0.008342113746516406
1783002564549075000,5.252074951171875,-0.015789105284214018,-0.020128340064920484,-0.04092500784546137
1783002564559126800,5.262126708984375,0.05305646740496158,-0.04562189695741981,-0.08771766561530529
1783002564569177900,5.272177734375,0.12650398093163967,-0.07334832746852189,-0.14626191678158937
1783002564579230000,5.28222998046875,0.14434592709243296,-0.04219265316110104,-0.13272541272975505
1783002564589281800,5.29228173828125,0.01135141509771347,0.014767324488423763,-0.012037862991914153
1783002564599334000,5.302333984375,-0.13566285442113876,0.004892594347149133,0.017956256722845135
1783002564609384700,5.312384765625,-0.0987701708316803,-0.0338678558755666,-0.057718869725428515
1783002564619436800,5.322436767578125,-0.09883388371765613,-0.03914630773514509,-0.041478696205466986
1783002564629489000,5.332489013671875,-0.16115560759603975,-0.02412409517019987,0.029519999396987257
1783002564639541000,5.342541015625,-0.19719372018277645,-0.06417893258500844,0.01662117219418287
1783002564649591800,5.352591796875,-0.12407470795810221,-0.07463054929878563,-0.06725158149600029
1783002564659644000,5.362643798828125,-0.11752338661849498,-0.05292933389395475,-0.07085475708711891
1783002564669695700,5.37269580078125,-0.14713234294056893,-0.08360168166384101,-0.0184184674071148
1783002564679746800,5.382746826171875,-0.19226561613082885,-0.11697729704305529,-0.02222264546304941
1783002564689799000,5.392798828125,-0.04382394415736198,-0.09566186608541756,-0.08032719003781676
1783002564699850800,5.402850830078125,0.0711725543320179,-0.029329153000004587,-0.12019669748097657
1783002564709901800,5.41290185546875,-0.031847675159573555,0.005754618003964424,-0.07838789253830909
1783002564719953700,5.42295361328125,-0.14415361939072607,-0.03604929156787693,-0.016463607012294233
1783002564730005800,5.433005859375,-0.09750117380917071,-0.05120378874298185,-0.015333726199530065
1783002564740057900,5.443057861328125,-0.02129237887561321,-0.030640089468099176,-0.019331381000950932
1783002564750109000,5.45310888671875,0.005555296039581299,-0.016055756863765418,-0.03611713263969868
1783002564760161000,5.4631611328125,0.06535831509530544,-0.04032952617034316,-0.03698116559050977
1783002564770212900,5.473212890625,0.06419453201293945,-0.04547025005966425,-0.008970365180075168
1783002564780265000,5.483264892578125,-0.06703881552815437,-0.04661799532268196,0.06027644525375217
1783002564790315800,5.493315673828125,-0.26392157006561756,-0.06915281200744211,0.08364866261072457
1783002564800367900,5.503367919921875,-0.26156477780640125,-0.05180537136532366,0.04722129497807473
1783002564810419700,5.513419677734375,-0.21901509136855601,-0.01911499830391258,0.03352181891687214
1783002564820470800,5.523470703125,-0.2076484787017107,-0.043570444320328534,0.004649360175803303
1783002564830523000,5.53352294921875,-0.13189502632021904,-0.08725194779969751,-0.01724555117022246
1783002564840574700,5.54357470703125,-0.06885141790807246,-0.09586012860387563,-0.05645922505315393
1783002564850627000,5.553626953125,0.07158171965479851,-0.09059329411685466,-0.07491963190585374
1783002564860678000,5.563677978515625,0.16599837145209312,-0.08110233912877737,-0.039387496079877016
1783002564870730000,5.57372998046875,0.12771452576518058,-0.10537910411003977,-0.042539055445976554
1783002564880781800,5.58378173828125,0.0768453392714262,-0.0878992327272892,-0.07306823188550769
1783002564890833000,5.5938330078125,0.06861351749897003,-0.0855054329259321,-0.0570179914470762
1783002564900885000,5.603885009765625,0.11028349849283695,-0.10941716398708522,-0.03561648964118212
1783002564910936800,5.613936767578125,0.199177002954483,-0.10613974975161254,-0.034736090077459814
1783002564920988700,5.62398876953125,0.16962942143082618,-0.04732475535254925,-0.040560668045096095
1783002564931039700,5.634039794921875,0.012318798825144767,-0.0020431597327813505,-0.08988445172775536
1783002564941091800,5.644091796875,-0.16095160945653914,0.005189714130200446,-0.03944638666026294
1783002564951143700,5.654143798828125,-0.36646775230467316,-0.014310009174980222,0.1128175104824826
1783002564961194800,5.66419482421875,-0.4468061943888664,-0.02754409621413797,0.11770900885108858
1783002564971246800,5.674246826171875,-0.3308481573909521,-0.016501418272033334,0.051678493582643564
1783002564981299000,5.684298828125,-0.3005436200201511,0.009623714522272347,0.09191285228282213
1783002564991350800,5.694350830078125,-0.2803746922165155,-0.031326902688480915,0.18290632469840346
1783002565001401900,5.70440185546875,-0.2684118672221899,-0.09121683284267783,0.12722758249845356
1783002565011454000,5.714453857421875,-0.47274435324370856,-0.10326452310886233,0.0254535536756739
1783002565021505800,5.724505859375,-0.6655056439369916,-0.0448272394483909,0.0019599018961191177
1783002565031556900,5.734556884765625,0.09537643674015998,-0.004761113454587757,-0.430679052789323
1783002565041608700,5.744608642578125,2.2595120346814395,0.24342494467757642,-0.25047267123199995
1783002565051660800,5.754660888671875,3.6995734798610207,0.49155207569673653,0.8580624980993569
1783002565061712600,5.764712646484375,-0.4484621449023485,-0.1074424298480153,0.5092926803749054
1783002565071763700,5.774763671875,-1.8935767818182705,-0.48705206086374814,-0.39747696734610943
1783002565081814800,5.784814697265625,-1.9841057785272598,-0.3380271091096103,-0.5390390724062919
1783002565091867000,5.794866943359375,-1.5017168141037225,-0.08084025412648915,-0.15258070800695567
1783002565101917700,5.804917724609375,-0.8003945913761854,-0.08887764930538833,-0.19312007753569632
1783002565111970000,5.814969970703125,-0.9064379680812358,-0.22117840688228607,-0.4228062735876068
1783002565122022000,5.82502197265625,-0.5475140552848577,-0.01656688472367823,-0.329146468039602
1783002565132073000,5.835072998046875,0.7322995447933673,0.2881326128669083,-0.12908891939092426
1783002565142124800,5.845124755859375,1.6840923198610542,0.036206710619293155,-0.054826765013113614
