time,seconds_elapsed,z,y,x
1783002559363640800,0.066640869140625,-0.9935760498046875,-0.0642852783203125,0.0489349365234375
1783002559373693000,0.07669287109375,-0.992523193359375,-0.060699462890625,0.05755615234375
1783002559383745000,0.0867451171875,-0.9882659912109375,-0.0626068115234375,0.0705108642578125
1783002559393796900,0.096796875,-0.987457275390625,-0.06488037109375,0.0771484375
1783002559403848000,0.106847900390625,-1.0045318603515625,-0.06597900390625,0.071136474609375
1783002559413899800,0.116899658203125,-1.0335693359375,-0.0710601806640625,0.0626220703125
1783002559423952000,0.126951904296875,-1.0295562744140625,-0.0787811279296875,0.0486297607421875
1783002559434003000,0.1370029296875,-0.9952545166015625,-0.079833984375,0.0326995849609375
1783002559444054800,0.1470546875,-0.9748992919921875,-0.075286865234375,0.0289306640625
1783002559454107000,0.15710693359375,-0.98583984375,-0.0728759765625,0.0359344482421875
1783002559464159000,0.167158935546875,-1.00921630859375,-0.071380615234375,0.0505218505859375
1783002559474209800,0.177209716796875,-1.03009033203125,-0.077606201171875,0.0604095458984375
1783002559484262000,0.187261962890625,-1.0226898193359375,-0.0801849365234375,0.0589141845703125
1783002559494314000,0.19731396484375,-0.9965057373046875,-0.0714569091796875,0.0552520751953125
1783002559504365800,0.20736572265625,-0.9836883544921875,-0.0695953369140625,0.0435638427734375
1783002559514417000,0.2174169921875,-0.9854736328125,-0.0739898681640625,0.0331268310546875
1783002559524469000,0.227468994140625,-0.9818878173828125,-0.0721435546875,0.0334625244140625
1783002559534520800,0.237520751953125,-0.9916229248046875,-0.069488525390625,0.0351104736328125
1783002559544572000,0.247572021484375,-1.0026092529296875,-0.0710601806640625,0.0348052978515625
1783002559554623700,0.257623779296875,-1.0015869140625,-0.074981689453125,0.0454864501953125
1783002559564675800,0.26767578125,-1.01800537109375,-0.0746307373046875,0.063690185546875
1783002559574728000,0.27772802734375,-1.0428314208984375,-0.072540283203125,0.0803680419921875
1783002559584778800,0.28777880859375,-1.030426025390625,-0.070404052734375,0.0848236083984375
1783002559594831000,0.2978310546875,-1.0080413818359375,-0.0778961181640625,0.0655975341796875
1783002559604883000,0.307883056640625,-0.9864044189453125,-0.081085205078125,0.0465545654296875
1783002559614935000,0.31793505859375,-0.9815521240234375,-0.0760955810546875,0.0380096435546875
1783002559624985900,0.32798583984375,-0.9861907958984375,-0.0768280029296875,0.0360260009765625
1783002559635038000,0.338037841796875,-0.9799041748046875,-0.0791778564453125,0.0427093505859375
1783002559645089800,0.34808984375,-0.976409912109375,-0.0780181884765625,0.0420989990234375
1783002559655140900,0.358140869140625,-0.9922637939453125,-0.077789306640625,0.0412750244140625
1783002559665193000,0.36819287109375,-1.0220489501953125,-0.0845489501953125,0.0583343505859375
1783002559675244800,0.378244873046875,-1.0396881103515625,-0.0910797119140625,0.07135009765625
1783002559685297000,0.388296875,-1.014556884765625,-0.08099365234375,0.0700836181640625
1783002559695347700,0.39834765625,-0.9931793212890625,-0.0744781494140625,0.05487060546875
1783002559705400000,0.408400146484375,-1.0052032470703125,-0.079498291015625,0.037567138671875
1783002559715452000,0.418451904296875,-1.027069091796875,-0.0860595703125,0.032806396484375
1783002559725504000,0.42850390625,-1.0126953125,-0.0853118896484375,0.041748046875
1783002559735554800,0.438554931640625,-0.9874114990234375,-0.0808563232421875,0.0479888916015625
1783002559745607000,0.44860693359375,-0.9838714599609375,-0.079742431640625,0.0507354736328125
1783002559755658800,0.45865869140625,-1.005279541015625,-0.08685302734375,0.0554656982421875
1783002559765709800,0.468709716796875,-1.0414886474609375,-0.0931854248046875,0.0628814697265625
1783002559775762000,0.478761962890625,-1.037506103515625,-0.089141845703125,0.0562744140625
1783002559785813800,0.488813720703125,-1.00653076171875,-0.0840911865234375,0.047088623046875
1783002559795866000,0.4988662109375,-0.9900360107421875,-0.085174560546875,0.0425872802734375
1783002559805916700,0.508916748046875,-0.989593505859375,-0.0841217041015625,0.0491180419921875
1783002559815969000,0.518968994140625,-0.9920196533203125,-0.08489990234375,0.050384521484375
1783002559826020900,0.529020751953125,-1.005584716796875,-0.08544921875,0.04925537109375
1783002559836073000,0.539072998046875,-1.0252532958984375,-0.0876312255859375,0.0523529052734375
1783002559846124000,0.5491240234375,-1.015838623046875,-0.09600830078125,0.0520172119140625
1783002559856175900,0.55917578125,-0.988372802734375,-0.0887603759765625,0.05108642578125
1783002559866228000,0.56922802734375,-0.9742889404296875,-0.078216552734375,0.0491485595703125
1783002559876279800,0.57927978515625,-0.9830322265625,-0.077911376953125,0.0474395751953125
1783002559886331000,0.589330810546875,-0.9970703125,-0.084228515625,0.0502166748046875
1783002559896382700,0.5993828125,-1.01275634765625,-0.0869903564453125,0.048797607421875
1783002559906435000,0.60943505859375,-1.02996826171875,-0.0863189697265625,0.047088623046875
1783002559916486000,0.61948583984375,-1.0154266357421875,-0.0846405029296875,0.03955078125
1783002559926538000,0.6295380859375,-0.994598388671875,-0.0787811279296875,0.033447265625
1783002559936590000,0.639590087890625,-0.992950439453125,-0.0756683349609375,0.03594970703125
1783002559946642000,0.649641845703125,-1.0023193359375,-0.07696533203125,0.0414886474609375
1783002559956693000,0.65969287109375,-1.0064697265625,-0.076904296875,0.046417236328125
1783002559966744800,0.669744873046875,-1.0008087158203125,-0.0800933837890625,0.0535430908203125
1783002559976797000,0.679796875,-0.9992828369140625,-0.091827392578125,0.0564422607421875
1783002559986848000,0.689847900390625,-1.0086212158203125,-0.09075927734375,0.0476531982421875
1783002559996899800,0.69989990234375,-1.0166015625,-0.0925445556640625,0.03753662109375
1783002560006952000,0.709951904296875,-1.00115966796875,-0.0904083251953125,0.029876708984375
1783002560017004000,0.720004150390625,-0.9896087646484375,-0.0882415771484375,0.0202789306640625
1783002560027054800,0.730054931640625,-0.994415283203125,-0.0935211181640625,0.0110931396484375
1783002560037107000,0.74010693359375,-0.997161865234375,-0.09649658203125,0.010467529296875
1783002560047159000,0.750158935546875,-0.9988861083984375,-0.095184326171875,0.0087738037109375
1783002560057211000,0.7602109375,-0.99609375,-0.094512939453125,0.01031494140625
1783002560067262000,0.770261962890625,-1.002349853515625,-0.092254638671875,0.0242767333984375
1783002560077313500,0.7803134765625,-1.0210418701171875,-0.087066650390625,0.050384521484375
1783002560087366000,0.790365966796875,-1.017486572265625,-0.0889434814453125,0.0599212646484375
1783002560097417700,0.800417724609375,-1.0169219970703125,-0.0949859619140625,0.05474853515625
1783002560107468800,0.81046875,-1.0179290771484375,-0.0953369140625,0.0395355224609375
1783002560117521000,0.82052099609375,-1.0166168212890625,-0.0927734375,0.0204010009765625
1783002560127572700,0.83057275390625,-1.0133514404296875,-0.088165283203125,0.0126495361328125
1783002560137623800,0.840623779296875,-1.00323486328125,-0.0884552001953125,0.0145721435546875
1783002560147675600,0.850675537109375,-0.9844512939453125,-0.0946044921875,0.021392822265625
1783002560157727700,0.860727783203125,-0.98553466796875,-0.095489501953125,0.0287933349609375
1783002560167779600,0.870779541015625,-0.991668701171875,-0.091888427734375,0.033050537109375
1783002560177830700,0.88083056640625,-1.000518798828125,-0.0883026123046875,0.044677734375
1783002560187882800,0.8908828125,-1.004852294921875,-0.0881805419921875,0.05157470703125
1783002560197934800,0.900934814453125,-0.995391845703125,-0.09197998046875,0.042449951171875
1783002560207986000,0.91098583984375,-0.990570068359375,-0.0900421142578125,0.0263671875
1783002560218037800,0.921037841796875,-0.9861297607421875,-0.0836639404296875,0.01544189453125
1783002560228089900,0.93108984375,-0.984039306640625,-0.0833282470703125,0.01263427734375
1783002560238141700,0.9411416015625,-0.98992919921875,-0.0912628173828125,0.02001953125
1783002560248192800,0.95119287109375,-0.9955291748046875,-0.091705322265625,0.0292816162109375
1783002560258244900,0.961244873046875,-1.00274658203125,-0.085693359375,0.0358428955078125
1783002560268296700,0.971296630859375,-1.023101806640625,-0.0826568603515625,0.042083740234375
1783002560278348800,0.981348876953125,-1.033599853515625,-0.081817626953125,0.0408935546875
1783002560288399600,0.991399658203125,-1.030487060546875,-0.08612060546875,0.027008056640625
1783002560298451700,1.00145166015625,-1.01422119140625,-0.085906982421875,0.0184326171875
1783002560308503800,1.01150390625,-0.9943389892578125,-0.0810089111328125,0.0187530517578125
1783002560318555000,1.021554931640625,-0.982574462890625,-0.080047607421875,0.0230560302734375
1783002560328606700,1.031606689453125,-0.9868621826171875,-0.0818328857421875,0.0213623046875
1783002560338658800,1.041658935546875,-0.9966583251953125,-0.0846099853515625,0.02130126953125
1783002560348710700,1.051710693359375,-0.9948883056640625,-0.0862579345703125,0.02630615234375
1783002560358761700,1.06176171875,-0.99493408203125,-0.0863800048828125,0.0294952392578125
1783002560368813800,1.071813720703125,-1.01275634765625,-0.0842132568359375,0.040313720703125
1783002560378865700,1.08186572265625,-1.028564453125,-0.080047607421875,0.051849365234375
1783002560388917800,1.091917724609375,-1.0159454345703125,-0.0783538818359375,0.049957275390625
1783002560398968600,1.101968505859375,-0.994537353515625,-0.0813751220703125,0.0308380126953125
1783002560409020700,1.112020751953125,-0.9943389892578125,-0.0820465087890625,0.016448974609375
1783002560419072800,1.12207275390625,-1.00128173828125,-0.0777435302734375,0.0184173583984375
1783002560429123800,1.132123779296875,-1.009185791015625,-0.0808258056640625,0.022247314453125
1783002560439176000,1.142176025390625,-1.00433349609375,-0.083770751953125,0.0283203125
1783002560449227800,1.152227783203125,-1.0092926025390625,-0.0861663818359375,0.035736083984375
1783002560459280000,1.16227978515625,-1.0100555419921875,-0.0849761962890625,0.0432281494140625
1783002560469330700,1.17233056640625,-1.00946044921875,-0.083160400390625,0.046417236328125
1783002560479382800,1.1823828125,-1.00994873046875,-0.08209228515625,0.0508270263671875
1783002560489434600,1.1924345703125,-0.9988555908203125,-0.082916259765625,0.049468994140625
1783002560499486700,1.20248681640625,-0.9873809814453125,-0.081512451171875,0.037933349609375
1783002560509537800,1.212537841796875,-0.9943084716796875,-0.0802154541015625,0.033935546875
1783002560519589600,1.222589599609375,-1.0043792724609375,-0.08624267578125,0.035491943359375
1783002560529642000,1.23264208984375,-1.0020904541015625,-0.0901336669921875,0.0361480712890625
1783002560539692800,1.24269287109375,-0.9910736083984375,-0.088592529296875,0.03570556640625
1783002560549745000,1.252744873046875,-0.99005126953125,-0.083160400390625,0.0371551513671875
1783002560559796700,1.262796630859375,-1.003204345703125,-0.0787811279296875,0.0407562255859375
1783002560569848800,1.272848876953125,-1.0145721435546875,-0.0780181884765625,0.0465545654296875
1783002560579900000,1.28289990234375,-1.0072021484375,-0.0742034912109375,0.0450592041015625
1783002560589951700,1.29295166015625,-0.99627685546875,-0.0710296630859375,0.0426788330078125
1783002560600003800,1.30300390625,-0.997650146484375,-0.0685882568359375,0.03448486328125
1783002560610055700,1.3130556640625,-1.008636474609375,-0.0649566650390625,0.0311431884765625
1783002560620106800,1.323106689453125,-1.0139923095703125,-0.0656280517578125,0.03131103515625
1783002560630158600,1.33315869140625,-1.0183868408203125,-0.0659027099609375,0.03350830078125
1783002560640211000,1.3432109375,-1.029052734375,-0.070953369140625,0.0436859130859375
1783002560650262800,1.3532626953125,-1.03765869140625,-0.0774993896484375,0.0523834228515625
1783002560660313900,1.36331396484375,-1.039794921875,-0.076995849609375,0.0552215576171875
1783002560670365700,1.37336572265625,-1.0265045166015625,-0.0714569091796875,0.0506134033203125
1783002560680417800,1.383417724609375,-1.0064544677734375,-0.070037841796875,0.04071044921875
1783002560690468900,1.39346875,-0.993743896484375,-0.0687408447265625,0.031219482421875
1783002560700520700,1.403520751953125,-0.992919921875,-0.0645294189453125,0.0364227294921875
1783002560710572800,1.41357275390625,-0.9727935791015625,-0.0699005126953125,0.0390625
1783002560720624600,1.423624755859375,-0.9701690673828125,-0.070281982421875,0.0395355224609375
1783002560730675700,1.43367578125,-0.98162841796875,-0.0671844482421875,0.0399932861328125
1783002560740727600,1.4437275390625,-1.00604248046875,-0.0739898681640625,0.04052734375
1783002560750780000,1.45377978515625,-1.019012451171875,-0.0742034912109375,0.0484161376953125
1783002560760831700,1.463831787109375,-1.0118255615234375,-0.067169189453125,0.0495758056640625
1783002560770882800,1.4738828125,-0.9995269775390625,-0.06390380859375,0.0390625
1783002560780935000,1.483934814453125,-0.9976348876953125,-0.0635528564453125,0.03033447265625
1783002560790986800,1.49398681640625,-1.00030517578125,-0.0637969970703125,0.029541015625
1783002560801037800,1.504037841796875,-1.000823974609375,-0.0662078857421875,0.0323944091796875
1783002560811089700,1.514089599609375,-0.992218017578125,-0.0652008056640625,0.034210205078125
1783002560821141800,1.524141845703125,-0.9909210205078125,-0.0636444091796875,0.0378875732421875
1783002560831193600,1.534193603515625,-1.00213623046875,-0.06329345703125,0.0401458740234375
1783002560841244700,1.54424462890625,-1.01495361328125,-0.0680999755859375,0.0440216064453125
1783002560851296800,1.554296875,-1.0125732421875,-0.06903076171875,0.0471038818359375
1783002560861348900,1.564348876953125,-1.0120391845703125,-0.066070556640625,0.0495758056640625
1783002560871401000,1.57440087890625,-1.0122528076171875,-0.064361572265625,0.044921875
1783002560881451800,1.58445166015625,-1.008056640625,-0.066680908203125,0.0370025634765625
1783002560891503900,1.59450390625,-1.0045166015625,-0.06939697265625,0.0373077392578125
1783002560901555700,1.6045556640625,-1.0039520263671875,-0.0703277587890625,0.042022705078125
1783002560911606800,1.614606689453125,-1.000701904296875,-0.070892333984375,0.0418701171875
1783002560921659000,1.624658935546875,-1.00018310546875,-0.071746826171875,0.0458221435546875
1783002560931710700,1.634710693359375,-1.004119873046875,-0.07464599609375,0.047760009765625
1783002560941762600,1.644762451171875,-1.006561279296875,-0.0711212158203125,0.05242919921875
1783002560951813600,1.654813720703125,-1.0163726806640625,-0.066558837890625,0.056396484375
1783002560961865700,1.66486572265625,-1.0230560302734375,-0.0673828125,0.0531005859375
1783002560971917800,1.674917724609375,-1.010009765625,-0.0678253173828125,0.0399017333984375
1783002560981970000,1.684969970703125,-1.002227783203125,-0.0652923583984375,0.0274658203125
1783002560992020700,1.695020751953125,-1.0037994384765625,-0.061248779296875,0.029205322265625
1783002561002072800,1.70507275390625,-1.0055389404296875,-0.066314697265625,0.036712646484375
1783002561012124700,1.715124755859375,-1.0020751953125,-0.0681915283203125,0.03790283203125
1783002561022175700,1.72517578125,-0.99481201171875,-0.06488037109375,0.04296875
1783002561032227800,1.735227783203125,-1.0017547607421875,-0.06463623046875,0.047607421875
1783002561042279700,1.74527978515625,-1.014556884765625,-0.0669708251953125,0.051605224609375
1783002561052331800,1.755331787109375,-1.020660400390625,-0.0655517578125,0.0526275634765625
1783002561062382600,1.765382568359375,-1.008148193359375,-0.059906005859375,0.045623779296875
1783002561072434700,1.7754345703125,-0.9923553466796875,-0.0579833984375,0.0352325439453125
1783002561082487600,1.785487548828125,-0.988067626953125,-0.060272216796875,0.02911376953125
1783002561092539600,1.79553955078125,-0.989837646484375,-0.0637969970703125,0.030426025390625
1783002561102590500,1.805590576171875,-0.9991912841796875,-0.067596435546875,0.0355987548828125
1783002561112642600,1.815642578125,-0.9966583251953125,-0.06695556640625,0.0341796875
1783002561122694400,1.8256943359375,-0.9970855712890625,-0.05975341796875,0.0363616943359375
1783002561132745500,1.835745361328125,-1.0072479248046875,-0.058563232421875,0.042327880859375
1783002561142797800,1.8457978515625,-1.017791748046875,-0.0611114501953125,0.0502166748046875
1783002561152849700,1.855849609375,-1.01593017578125,-0.0601348876953125,0.0518035888671875
1783002561162901800,1.86590185546875,-1.006134033203125,-0.0626220703125,0.0419921875
1783002561172952600,1.87595263671875,-0.999114990234375,-0.06488037109375,0.0316314697265625
1783002561183004700,1.886004638671875,-1,-0.062164306640625,0.0300140380859375
1783002561193056500,1.896056396484375,-1.0045928955078125,-0.0597991943359375,0.036376953125
1783002561203108600,1.906108642578125,-1.017822265625,-0.0546722412109375,0.05419921875
1783002561213159700,1.91615966796875,-1.0438079833984375,-0.05584716796875,0.062744140625
1783002561223211500,1.92621142578125,-1.04046630859375,-0.0645294189453125,0.061004638671875
1783002561233263600,1.936263671875,-1.026336669921875,-0.0708465576171875,0.0536651611328125
1783002561243314400,1.946314453125,-1.0236053466796875,-0.060516357421875,0.048797607421875
1783002561253366800,1.95636669921875,-1.0375518798828125,-0.0550994873046875,0.048004150390625
1783002561263418600,1.966418701171875,-1.0344390869140625,-0.0583038330078125,0.0457000732421875
1783002561273470700,1.976470703125,-1.0092010498046875,-0.0618133544921875,0.029083251953125
1783002561283521500,1.986521484375,-0.9887847900390625,-0.06036376953125,0.0129852294921875
1783002561293573600,1.99657373046875,-0.9810943603515625,-0.0628204345703125,0.00732421875
1783002561303625500,2.00662548828125,-0.986328125,-0.0716552734375,-0.0017242431640625
1783002561313677600,2.016677490234375,-0.9843902587890625,-0.078369140625,-0.0108184814453125
1783002561323728600,2.026728759765625,-0.981536865234375,-0.08282470703125,-0.00042724609375
1783002561333780500,2.036780517578125,-0.9852447509765625,-0.079864501953125,0.005126953125
1783002561343832600,2.04683251953125,-0.99481201171875,-0.07379150390625,0.0150146484375
1783002561353884700,2.056884765625,-1.0049896240234375,-0.0678863525390625,0.0248870849609375
1783002561363935700,2.066935791015625,-1.002166748046875,-0.0657958984375,0.0235748291015625
1783002561373987600,2.076987548828125,-0.9979248046875,-0.064788818359375,0.0128936767578125
1783002561384039700,2.087039794921875,-1.00347900390625,-0.06231689453125,0.0080718994140625
1783002561394090800,2.0970908203125,-1.00872802734375,-0.0634613037109375,0.006134033203125
1783002561404142600,2.107142578125,-1.0051727294921875,-0.0648651123046875,0.0051727294921875
1783002561414194700,2.117194580078125,-1.0090789794921875,-0.0620574951171875,0.014007568359375
1783002561424246500,2.12724658203125,-1.016998291015625,-0.060089111328125,0.022247314453125
1783002561434297600,2.137297607421875,-1.017486572265625,-0.05810546875,0.0219879150390625
1783002561444349400,2.147349365234375,-1.0287322998046875,-0.05615234375,0.0201568603515625
1783002561454401500,2.157401611328125,-1.0288543701171875,-0.0562896728515625,0.0241851806640625
1783002561464453600,2.16745361328125,-1.0190582275390625,-0.0605926513671875,0.0261688232421875
1783002561474504700,2.177504638671875,-1.00201416015625,-0.0636749267578125,0.0148162841796875
1783002561484556800,2.187556884765625,-0.9925384521484375,-0.060211181640625,0.0071258544921875
1783002561494608600,2.197608642578125,-0.99554443359375,-0.0594940185546875,0.002349853515625
1783002561504659700,2.20765966796875,-0.9936981201171875,-0.0651702880859375,0.010528564453125
1783002561514711600,2.217711669921875,-0.988555908203125,-0.06817626953125,0.0190582275390625
1783002561524763600,2.227763671875,-0.9834747314453125,-0.0679168701171875,0.0196380615234375
1783002561534815500,2.2378154296875,-0.98626708984375,-0.068328857421875,0.0188446044921875
1783002561544866600,2.247866455078125,-0.9977569580078125,-0.0672454833984375,0.02593994140625
1783002561554918400,2.25791845703125,-1.00506591796875,-0.0662994384765625,0.0335540771484375
1783002561564970500,2.267970458984375,-1.0008697509765625,-0.064453125,0.03173828125
1783002561575022600,2.278022705078125,-1.007598876953125,-0.0659027099609375,0.0181732177734375
1783002561585073700,2.28807373046875,-1.01495361328125,-0.063568115234375,0.0161285400390625
1783002561595125800,2.298125732421875,-1.0243377685546875,-0.0632781982421875,0.0223388671875
1783002561605177600,2.308177490234375,-1.0196380615234375,-0.0654144287109375,0.0182647705078125
1783002561615229700,2.318229736328125,-1.0108795166015625,-0.0619049072265625,0.01409912109375
1783002561625280500,2.328280517578125,-1.020538330078125,-0.0623931884765625,0.019927978515625
1783002561635332600,2.33833251953125,-1.02587890625,-0.064056396484375,0.0277862548828125
1783002561645384400,2.348384521484375,-1.02490234375,-0.058349609375,0.034149169921875
1783002561655435500,2.358435546875,-1.0139007568359375,-0.05621337890625,0.0302734375
1783002561665487600,2.368487548828125,-1.0026397705078125,-0.057464599609375,0.025665283203125
1783002561675539500,2.37853955078125,-0.9996490478515625,-0.0589599609375,0.0208892822265625
1783002561685591800,2.388591796875,-0.9936065673828125,-0.0588836669921875,0.0147247314453125
1783002561695642600,2.398642578125,-0.9889984130859375,-0.05963134765625,0.0035858154296875
1783002561705694700,2.40869482421875,-0.98883056640625,-0.0604248046875,0.0022735595703125
1783002561715746600,2.41874658203125,-1.00384521484375,-0.062103271484375,0.0135040283203125
1783002561725798700,2.428798583984375,-1.001007080078125,-0.0604095458984375,0.021575927734375
1783002561735849700,2.438849609375,-0.99029541015625,-0.0577850341796875,0.026702880859375
1783002561745901600,2.448901611328125,-0.98797607421875,-0.05963134765625,0.0280914306640625
1783002561755953700,2.45895361328125,-0.9888458251953125,-0.063507080078125,0.024200439453125
1783002561766004500,2.46900439453125,-0.9993438720703125,-0.062652587890625,0.030792236328125
1783002561776056600,2.479056640625,-1.0233917236328125,-0.0604095458984375,0.039306640625
1783002561786108400,2.4891083984375,-1.0257415771484375,-0.06134033203125,0.0322723388671875
1783002561796160800,2.499160888671875,-1.014007568359375,-0.0651092529296875,0.022003173828125
1783002561806211600,2.509211669921875,-1.0067291259765625,-0.06317138671875,0.019195556640625
1783002561816263700,2.519263671875,-1.00958251953125,-0.06109619140625,0.021087646484375
1783002561826315500,2.5293154296875,-1.0114288330078125,-0.0628814697265625,0.021759033203125
1783002561836367600,2.53936767578125,-1.0015869140625,-0.064483642578125,0.0202178955078125
1783002561846418700,2.549418701171875,-0.9911346435546875,-0.062225341796875,0.021881103515625
1783002561856470500,2.559470458984375,-0.9995880126953125,-0.0611114501953125,0.024200439453125
1783002561866522600,2.569522705078125,-1.0117950439453125,-0.065887451171875,0.0277862548828125
1783002561876573400,2.579573486328125,-1.017669677734375,-0.0652008056640625,0.0337677001953125
1783002561886625500,2.58962548828125,-1.0157318115234375,-0.0628204345703125,0.0333099365234375
1783002561896677400,2.599677490234375,-1.01153564453125,-0.067535400390625,0.03118896484375
1783002561906729700,2.609729736328125,-1.0045623779296875,-0.06854248046875,0.0328826904296875
1783002561916780800,2.61978076171875,-1.0007781982421875,-0.0665740966796875,0.0315399169921875
1783002561926832600,2.62983251953125,-1.0049896240234375,-0.0660247802734375,0.0313262939453125
1783002561936884700,2.639884765625,-1.0022735595703125,-0.06536865234375,0.0294647216796875
1783002561946936600,2.6499365234375,-1.0013275146484375,-0.0659637451171875,0.030426025390625
1783002561956987600,2.659987548828125,-1.0014801025390625,-0.066741943359375,0.0318450927734375
1783002561967039500,2.67003955078125,-1.0000762939453125,-0.068511962890625,0.02874755859375
1783002561977091600,2.680091552734375,-1.005645751953125,-0.067840576171875,0.0260162353515625
1783002561987143400,2.690143310546875,-1.0140380859375,-0.066864013671875,0.02838134765625
1783002561997194500,2.700194580078125,-1.015899658203125,-0.065277099609375,0.0274810791015625
1783002562007246600,2.71024658203125,-1.008880615234375,-0.0627899169921875,0.02410888671875
1783002562017298700,2.720298583984375,-1.0038909912109375,-0.0648193359375,0.017608642578125
1783002562027349800,2.730349853515625,-1.000457763671875,-0.06597900390625,0.0185546875
1783002562037401600,2.740401611328125,-0.9975738525390625,-0.065460205078125,0.0243988037109375
1783002562047453700,2.75045361328125,-1.002197265625,-0.065887451171875,0.0250396728515625
1783002562057505500,2.760505615234375,-1.007965087890625,-0.0662078857421875,0.023590087890625
1783002562067556600,2.770556640625,-1.009063720703125,-0.0688323974609375,0.029998779296875
1783002562077608700,2.780608642578125,-1.01519775390625,-0.0661468505859375,0.0370635986328125
1783002562087660800,2.790660888671875,-1.028961181640625,-0.062103271484375,0.0424346923828125
1783002562097713000,2.800712890625,-1.02935791015625,-0.064727783203125,0.04449462890625
1783002562107764000,2.810763916015625,-1.0304718017578125,-0.06719970703125,0.0359039306640625
1783002562117816000,2.820816162109375,-1.0252838134765625,-0.0676727294921875,0.0239410400390625
1783002562127868000,2.830867919921875,-1.0022430419921875,-0.065948486328125,0.021697998046875
1783002562137919000,2.8409189453125,-0.9893951416015625,-0.066375732421875,0.027069091796875
1783002562147970800,2.850970703125,-0.98590087890625,-0.07025146484375,0.0225067138671875
1783002562158023000,2.86102294921875,-0.9822235107421875,-0.0671539306640625,0.0198974609375
1783002562168074800,2.87107470703125,-0.9858856201171875,-0.063995361328125,0.0263519287109375
1783002562178125800,2.881125732421875,-0.99285888671875,-0.0653839111328125,0.03765869140625
1783002562188178000,2.891177978515625,-0.9986419677734375,-0.0626068115234375,0.042266845703125
1783002562198229800,2.901229736328125,-1.002777099609375,-0.0582275390625,0.039764404296875
1783002562208282000,2.9112822265625,-1.0060882568359375,-0.056671142578125,0.02679443359375
1783002562218333000,2.9213330078125,-1.005035400390625,-0.05706787109375,0.0120849609375
1783002562228385000,2.931385009765625,-1.0044403076171875,-0.0569305419921875,0.011566162109375
1783002562238436900,2.941436767578125,-1.0009918212890625,-0.0594635009765625,0.020172119140625
1783002562248488000,2.951488037109375,-0.9952392578125,-0.0619659423828125,0.0263519287109375
1783002562258540000,2.9615400390625,-0.9957733154296875,-0.06243896484375,0.02362060546875
1783002562268591900,2.971591796875,-0.997650146484375,-0.0637664794921875,0.0178070068359375
1783002562278644000,2.98164404296875,-0.9994354248046875,-0.065643310546875,0.021575927734375
1783002562288694800,2.99169482421875,-1.00390625,-0.067474365234375,0.0349884033203125
1783002562298747000,3.001746826171875,-1.01123046875,-0.06689453125,0.039520263671875
1783002562308798700,3.011798828125,-1.015655517578125,-0.065032958984375,0.0361480712890625
1783002562318851000,3.02185107421875,-1.0123291015625,-0.0677032470703125,0.028900146484375
1783002562328902000,3.03190185546875,-1.002349853515625,-0.0691070556640625,0.02734375
1783002562338954000,3.0419541015625,-0.99432373046875,-0.0673828125,0.0304107666015625
1783002562349005800,3.052005859375,-0.995880126953125,-0.0691986083984375,0.031097412109375
1783002562359057000,3.062056884765625,-0.993804931640625,-0.072509765625,0.0320587158203125
1783002562369109000,3.07210888671875,-0.9931793212890625,-0.072052001953125,0.0323638916015625
1783002562379160800,3.082160888671875,-1.005584716796875,-0.068572998046875,0.032989501953125
1783002562389213000,3.092212890625,-1.0162506103515625,-0.0654144287109375,0.036102294921875
1783002562399263700,3.102263671875,-1.017669677734375,-0.0620574951171875,0.034149169921875
1783002562409315800,3.11231591796875,-1.0211029052734375,-0.0608978271484375,0.03204345703125
1783002562419367700,3.12236767578125,-1.01953125,-0.063751220703125,0.0328521728515625
1783002562429420000,3.132419921875,-1.011138916015625,-0.0644073486328125,0.0284576416015625
1783002562439471000,3.14247119140625,-1.0027618408203125,-0.0647430419921875,0.0235443115234375
1783002562449523000,3.15252294921875,-0.9953460693359375,-0.0667572021484375,0.0219879150390625
1783002562459575000,3.162574951171875,-0.9925994873046875,-0.0653533935546875,0.0209808349609375
1783002562469625900,3.1726259765625,-0.9972991943359375,-0.06561279296875,0.018157958984375
1783002562479678000,3.182677978515625,-1.002197265625,-0.0660858154296875,0.0261077880859375
1783002562489729800,3.192729736328125,-1.002532958984375,-0.06390380859375,0.034088134765625
1783002562499782000,3.202781982421875,-1.003082275390625,-0.0603485107421875,0.0366668701171875
1783002562509833000,3.2128330078125,-1.0160980224609375,-0.0608062744140625,0.040435791015625
1783002562519884800,3.222884765625,-1.0308074951171875,-0.06195068359375,0.0422515869140625
1783002562529937000,3.23293701171875,-1.0326385498046875,-0.0641937255859375,0.03790283203125
1783002562539989000,3.242989013671875,-1.0207061767578125,-0.069488525390625,0.037017822265625
1783002562550040000,3.2530400390625,-1.00909423828125,-0.0706024169921875,0.0371246337890625
1783002562560092000,3.263091796875,-1.008270263671875,-0.073089599609375,0.0386505126953125
1783002562570144000,3.27314404296875,-1.006439208984375,-0.0765228271484375,0.04266357421875
1783002562580195800,3.28319580078125,-1.004150390625,-0.0759429931640625,0.0427093505859375
1783002562590247000,3.293246826171875,-0.997894287109375,-0.0712127685546875,0.039276123046875
1783002562600299000,3.303299072265625,-0.9976348876953125,-0.07232666015625,0.0435333251953125
1783002562610350800,3.313350830078125,-1.0005950927734375,-0.0747222900390625,0.0511627197265625
1783002562620402000,3.32340185546875,-0.9955596923828125,-0.0762939453125,0.047576904296875
1783002562630453800,3.333453857421875,-1.004425048828125,-0.0765533447265625,0.040130615234375
1783002562640505900,3.343505859375,-1.005401611328125,-0.07562255859375,0.0417022705078125
1783002562650558000,3.353557861328125,-0.998931884765625,-0.075531005859375,0.0399169921875
1783002562660609000,3.363609130859375,-0.988922119140625,-0.0722198486328125,0.036285400390625
1783002562670660900,3.373660888671875,-0.98809814453125,-0.06890869140625,0.03839111328125
1783002562680713000,3.383712890625,-0.993743896484375,-0.070068359375,0.040283203125
1783002562690764000,3.393763916015625,-0.997802734375,-0.069549560546875,0.039276123046875
1783002562700816000,3.40381591796875,-1.001220703125,-0.06591796875,0.0371551513671875
1783002562710868000,3.413867919921875,-1.0053863525390625,-0.0625457763671875,0.033233642578125
1783002562720919800,3.423919921875,-1.00531005859375,-0.062530517578125,0.0345306396484375
1783002562730971000,3.433970947265625,-0.99951171875,-0.0658721923828125,0.026947021484375
1783002562741022700,3.444022705078125,-1.00006103515625,-0.0624237060546875,0.02056884765625
1783002562751074800,3.45407470703125,-0.9947357177734375,-0.058685302734375,0.0215301513671875
1783002562761127000,3.464126953125,-0.9980926513671875,-0.058807373046875,0.0278778076171875
1783002562771178000,3.474177978515625,-1.0010223388671875,-0.0628204345703125,0.034149169921875
1783002562781230000,3.48422998046875,-0.99676513671875,-0.062591552734375,0.040985107421875
1783002562791282000,3.494281982421875,-1.0009307861328125,-0.058197021484375,0.04302978515625
1783002562801333000,3.5043330078125,-1.01983642578125,-0.0576019287109375,0.040130615234375
1783002562811384800,3.514384765625,-1.0274658203125,-0.0587005615234375,0.040435791015625
1783002562821437000,3.52443701171875,-1.0149078369140625,-0.059600830078125,0.037017822265625
1783002562831488800,3.53448876953125,-1.006591796875,-0.0572052001953125,0.031494140625
1783002562841539800,3.544539794921875,-1.0083770751953125,-0.0567474365234375,0.0303497314453125
1783002562851592000,3.554592041015625,-1.0069122314453125,-0.05975341796875,0.0318756103515625
1783002562861643800,3.564643798828125,-1.00140380859375,-0.0605010986328125,0.0380401611328125
1783002562871696000,3.57469580078125,-1.00390625,-0.061920166015625,0.0456695556640625
1783002562881747000,3.584746826171875,-1.005157470703125,-0.06488037109375,0.04736328125
1783002562891799000,3.594799072265625,-1.003814697265625,-0.066009521484375,0.048583984375
1783002562901851000,3.604850830078125,-1.007232666015625,-0.0639190673828125,0.0520477294921875
1783002562911902000,3.61490185546875,-1.008575439453125,-0.06268310546875,0.050384521484375
1783002562921953800,3.624953857421875,-1.003387451171875,-0.0593719482421875,0.0351715087890625
1783002562932006000,3.635005859375,-1.0066375732421875,-0.0618896484375,0.028717041015625
1783002562942057700,3.6450576171875,-1.0104827880859375,-0.06622314453125,0.0355987548828125
1783002562952108800,3.65510888671875,-1.007965087890625,-0.0704345703125,0.0358428955078125
1783002562962161000,3.665160888671875,-1.0000762939453125,-0.0710296630859375,0.0360870361328125
1783002562972212700,3.675212646484375,-1.00079345703125,-0.0691986083984375,0.0392608642578125
1783002562982265000,3.68526513671875,-1.011444091796875,-0.07269287109375,0.04229736328125
1783002562992316000,3.69531591796875,-1.01129150390625,-0.0730133056640625,0.0419769287109375
1783002563002368000,3.705367919921875,-1.0032501220703125,-0.0687255859375,0.0399169921875
1783002563012419800,3.715419921875,-1.001953125,-0.06744384765625,0.0364532470703125
1783002563022471000,3.725470947265625,-1.015838623046875,-0.0673828125,0.039306640625
1783002563032523000,3.73552294921875,-1.0378875732421875,-0.07012939453125,0.03912353515625
1783002563042574800,3.745574951171875,-1.0396881103515625,-0.06610107421875,0.0306854248046875
1783002563052627000,3.755626953125,-1.03509521484375,-0.0622100830078125,0.025787353515625
1783002563062677800,3.765677734375,-1.031829833984375,-0.064208984375,0.0321807861328125
1783002563072729900,3.775729736328125,-1.0274200439453125,-0.0640869140625,0.0388031005859375
1783002563082781400,3.785781494140625,-1.019287109375,-0.0661468505859375,0.0405120849609375
1783002563092832500,3.79583251953125,-1.009185791015625,-0.0580902099609375,0.04095458984375
1783002563102884900,3.805884765625,-0.9963836669921875,-0.0555419921875,0.039703369140625
1783002563112936700,3.815936767578125,-0.982177734375,-0.05224609375,0.0319061279296875
1783002563122988800,3.82598876953125,-0.971405029296875,-0.049896240234375,0.02569580078125
1783002563133039600,3.83603955078125,-0.9805145263671875,-0.0519866943359375,0.024993896484375
1783002563143091700,3.846091796875,-0.9879913330078125,-0.051849365234375,0.02569580078125
1783002563153143600,3.8561435546875,-0.9887542724609375,-0.0514373779296875,0.0235748291015625
1783002563163195600,3.866195556640625,-0.9973297119140625,-0.05548095703125,0.0202484130859375
1783002563173246700,3.876246826171875,-0.9952239990234375,-0.05413818359375,0.0245361328125
1783002563183298600,3.886298583984375,-0.994537353515625,-0.045562744140625,0.0301513671875
1783002563193350700,3.8963505859375,-0.99395751953125,-0.0453338623046875,0.0312347412109375
1783002563203401500,3.9064013671875,-0.9969635009765625,-0.050567626953125,0.0301055908203125
1783002563213453800,3.916453857421875,-1.005401611328125,-0.052093505859375,0.0338287353515625
1783002563223505700,3.926505615234375,-1.0101470947265625,-0.0509490966796875,0.036346435546875
1783002563233557800,3.936557861328125,-1.0204315185546875,-0.0535736083984375,0.036651611328125
1783002563243608800,3.94660888671875,-1.0209197998046875,-0.054473876953125,0.032440185546875
1783002563253660700,3.95666064453125,-1.011138916015625,-0.0543670654296875,0.029510498046875
1783002563263712800,3.966712646484375,-1.005615234375,-0.0563507080078125,0.03240966796875
1783002563273764600,3.9767646484375,-0.998626708984375,-0.0543060302734375,0.0340118408203125
1783002563283815700,3.986815673828125,-0.9970245361328125,-0.0551910400390625,0.03314208984375
1783002563293867500,3.996867431640625,-1.0012359619140625,-0.059478759765625,0.035400390625
1783002563303919600,4.006919677734375,-0.9987030029296875,-0.0623779296875,0.0357513427734375
1783002563313970700,4.016970703125,-0.9943389892578125,-0.062713623046875,0.0331268310546875
1783002563324022800,4.027022705078125,-0.9953460693359375,-0.062286376953125,0.035491943359375
1783002563334074600,4.03707470703125,-1.000274658203125,-0.0618896484375,0.03997802734375
1783002563344126700,4.047126708984375,-1.0062255859375,-0.0618438720703125,0.039794921875
1783002563354177800,4.057177734375,-1.0166473388671875,-0.0637054443359375,0.0396575927734375
1783002563364229600,4.067229736328125,-1.025421142578125,-0.066314697265625,0.047882080078125
1783002563374281700,4.07728173828125,-1.026580810546875,-0.068023681640625,0.0485382080078125
1783002563384333600,4.08733349609375,-1.0182952880859375,-0.0676422119140625,0.0427398681640625
1783002563394384600,4.097384521484375,-1.0051727294921875,-0.0668792724609375,0.03839111328125
1783002563404436500,4.1074365234375,-1.00115966796875,-0.0641632080078125,0.03790283203125
1783002563414488600,4.117488525390625,-1.0081787109375,-0.0640716552734375,0.035858154296875
1783002563424539600,4.12753955078125,-1.0115966796875,-0.0659637451171875,0.0295867919921875
1783002563434591700,4.137591796875,-1.008453369140625,-0.06341552734375,0.0325164794921875
1783002563444643800,4.147643798828125,-1.0162200927734375,-0.0598602294921875,0.037200927734375
1783002563454694700,4.157694580078125,-1.02508544921875,-0.05718994140625,0.0397186279296875
1783002563464746800,4.167746826171875,-1.0203094482421875,-0.0579833984375,0.0279388427734375
1783002563474798600,4.177798583984375,-1.0134735107421875,-0.0590057373046875,0.0224456787109375
1783002563484850700,4.1878505859375,-1.00396728515625,-0.0601806640625,0.03411865234375
1783002563494901800,4.19790185546875,-0.9998016357421875,-0.0608367919921875,0.038543701171875
1783002563504953600,4.20795361328125,-0.993408203125,-0.0598602294921875,0.0394287109375
1783002563515005700,4.218005615234375,-0.9906005859375,-0.060089111328125,0.0412750244140625
1783002563525057500,4.2280576171875,-0.988067626953125,-0.059356689453125,0.0404510498046875
1783002563535108600,4.238108642578125,-0.991790771484375,-0.058502197265625,0.0458831787109375
1783002563545160700,4.24816064453125,-1.0013427734375,-0.0605316162109375,0.053680419921875
1783002563555212800,4.258212890625,-1.00286865234375,-0.0612640380859375,0.0424652099609375
1783002563565264000,4.268263916015625,-1.0028228759765625,-0.0576019287109375,0.0370635986328125
1783002563575315700,4.278315673828125,-1.000457763671875,-0.0565948486328125,0.0466766357421875
1783002563585367600,4.288367431640625,-0.9972686767578125,-0.0585174560546875,0.0494232177734375
1783002563595419600,4.298419677734375,-0.9972686767578125,-0.05902099609375,0.0438232421875
1783002563605470700,4.308470703125,-0.9955596923828125,-0.059112548828125,0.041656494140625
1783002563615522600,4.3185224609375,-0.9917144775390625,-0.0606842041015625,0.042999267578125
1783002563625574700,4.32857470703125,-0.9895782470703125,-0.062591552734375,0.043426513671875
1783002563635626500,4.33862646484375,-0.9979095458984375,-0.059051513671875,0.04541015625
1783002563645677600,4.348677490234375,-1.015960693359375,-0.057861328125,0.04010009765625
1783002563655729400,4.3587294921875,-1.017486572265625,-0.06195068359375,0.0310821533203125
1783002563665781800,4.36878173828125,-1.005401611328125,-0.064727783203125,0.03204345703125
1783002563675832800,4.378832763671875,-1.0084991455078125,-0.0644073486328125,0.0360565185546875
1783002563685884700,4.388884765625,-1.01690673828125,-0.063140869140625,0.0321197509765625
1783002563695936800,4.398936767578125,-1.0189056396484375,-0.06573486328125,0.028778076171875
1783002563705988600,4.408988525390625,-1.0142974853515625,-0.07000732421875,0.0321807861328125
1783002563716039700,4.419039794921875,-1.0034027099609375,-0.071990966796875,0.037200927734375
1783002563726091500,4.429091552734375,-0.99249267578125,-0.07293701171875,0.0421600341796875
1783002563736143600,4.4391435546875,-0.998748779296875,-0.0697021484375,0.04901123046875
1783002563746194700,4.449194580078125,-1.0129547119140625,-0.06591796875,0.0448455810546875
1783002563756246500,4.45924658203125,-1.0257568359375,-0.065185546875,0.0369415283203125
1783002563766298600,4.469298583984375,-1.0209503173828125,-0.068695068359375,0.0403594970703125
1783002563776350700,4.479350830078125,-1.0010528564453125,-0.06439208984375,0.0443878173828125
1783002563786401800,4.48940185546875,-0.99072265625,-0.060577392578125,0.040618896484375
1783002563796453600,4.49945361328125,-0.992919921875,-0.0596771240234375,0.0320892333984375
1783002563806505700,4.509505615234375,-0.9987030029296875,-0.0618743896484375,0.0274658203125
1783002563816557600,4.5195576171875,-1.007110595703125,-0.063323974609375,0.0277252197265625
1783002563826608600,4.529608642578125,-1.0147857666015625,-0.06005859375,0.03729248046875
1783002563836660700,4.53966064453125,-1.022064208984375,-0.056671142578125,0.04876708984375
1783002563846712600,4.549712646484375,-1.018280029296875,-0.0606231689453125,0.0487213134765625
1783002563856763600,4.559763671875,-1.011627197265625,-0.060394287109375,0.03656005859375
1783002563866815500,4.5698154296875,-1.012481689453125,-0.0555877685546875,0.036590576171875
1783002563876867600,4.57986767578125,-1.0127105712890625,-0.0552978515625,0.0352935791015625
1783002563886919700,4.589919677734375,-1.024932861328125,-0.05377197265625,0.0379791259765625
1783002563896970800,4.599970703125,-1.0397796630859375,-0.0550689697265625,0.0396270751953125
1783002563907022600,4.610022705078125,-1.0383453369140625,-0.0592193603515625,0.0366668701171875
1783002563917074700,4.62007470703125,-1.0311431884765625,-0.0629425048828125,0.037078857421875
1783002563927125800,4.630125732421875,-1.0232696533203125,-0.0646514892578125,0.0312957763671875
1783002563937177600,4.640177490234375,-1.0143280029296875,-0.0643768310546875,0.032318115234375
1783002563947229700,4.650229736328125,-0.9927520751953125,-0.063568115234375,0.0306549072265625
1783002563957281500,4.660281494140625,-0.978271484375,-0.06378173828125,0.0261688232421875
1783002563967332600,4.67033251953125,-0.9836883544921875,-0.0616607666015625,0.0292205810546875
1783002563977384400,4.680384521484375,-0.9885101318359375,-0.059600830078125,0.0290985107421875
1783002563987436500,4.6904365234375,-0.9827423095703125,-0.0613250732421875,0.0252227783203125
1783002563997487600,4.700487548828125,-0.9774017333984375,-0.06524658203125,0.0236968994140625
1783002564007539700,4.710539794921875,-0.97747802734375,-0.065338134765625,0.021575927734375
1783002564017591800,4.720591796875,-0.9780120849609375,-0.0648193359375,0.0244903564453125
1783002564027643600,4.7306435546875,-0.981964111328125,-0.0639801025390625,0.02947998046875
1783002564037694700,4.74069482421875,-0.99237060546875,-0.0638427734375,0.03350830078125
1783002564047746600,4.75074658203125,-0.999603271484375,-0.06280517578125,0.03668212890625
1783002564057798700,4.760798583984375,-1.00677490234375,-0.059417724609375,0.0395965576171875
1783002564067849700,4.770849609375,-1.034088134765625,-0.06005859375,0.044677734375
1783002564077901800,4.78090185546875,-1.0364532470703125,-0.062957763671875,0.0362396240234375
1783002564087954000,4.790953857421875,-1.0182952880859375,-0.0607452392578125,0.019317626953125
1783002564098005800,4.801005859375,-1.008819580078125,-0.0566558837890625,0.016082763671875
1783002564108056800,4.811056884765625,-1.0072784423828125,-0.061676025390625,0.0206298828125
1783002564118108700,4.821108642578125,-1.0068817138671875,-0.0682373046875,0.0226287841796875
1783002564128161000,4.8311611328125,-1.000518798828125,-0.0616912841796875,0.0233917236328125
1783002564138211800,4.8412119140625,-0.997650146484375,-0.05804443359375,0.0250701904296875
1783002564148264000,4.851263916015625,-0.9912109375,-0.0593414306640625,0.0309295654296875
1783002564158315800,4.861315673828125,-0.9980010986328125,-0.0605926513671875,0.0335845947265625
1783002564168367900,4.871367919921875,-1.01263427734375,-0.05712890625,0.0287628173828125
1783002564178419000,4.8814189453125,-1.0153350830078125,-0.045318603515625,0.029205322265625
1783002564188470800,4.891470703125,-1.0109710693359375,-0.0458221435546875,0.028839111328125
1783002564198523000,4.90152294921875,-1.007415771484375,-0.04376220703125,0.0245208740234375
1783002564208574700,4.91157470703125,-1.001434326171875,-0.040771484375,0.01922607421875
1783002564218625800,4.921625732421875,-1.0014190673828125,-0.0423583984375,0.00872802734375
1783002564228677600,4.931677734375,-1.001007080078125,-0.0452423095703125,0.0023040771484375
1783002564238730000,4.94172998046875,-0.997467041015625,-0.0484161376953125,-0.00146484375
1783002564248781000,4.951781005859375,-0.9915008544921875,-0.049713134765625,0.0057373046875
1783002564258833000,4.9618330078125,-0.9868621826171875,-0.0481414794921875,0.020599365234375
1783002564268885000,4.971885009765625,-0.9932403564453125,-0.047210693359375,0.0283660888671875
1783002564278936800,4.981936767578125,-1.014678955078125,-0.05059814453125,0.0356597900390625
1783002564288988000,4.99198779296875,-1.0185546875,-0.0540924072265625,0.0392913818359375
1783002564299039700,5.002039794921875,-1.0062713623046875,-0.0550079345703125,0.0435028076171875
1783002564309091800,5.012091796875,-1.0040740966796875,-0.05810546875,0.04583740234375
1783002564319143000,5.022142822265625,-0.9983062744140625,-0.0625457763671875,0.0447235107421875
1783002564329194800,5.03219482421875,-0.98590087890625,-0.0682220458984375,0.0462646484375
1783002564339246800,5.042246826171875,-0.9753570556640625,-0.0694427490234375,0.04595947265625
1783002564349299000,5.052298828125,-0.9791107177734375,-0.069183349609375,0.044036865234375
1783002564359350000,5.06235009765625,-0.991302490234375,-0.0684814453125,0.047576904296875
1783002564369401900,5.07240185546875,-0.999114990234375,-0.0673065185546875,0.04705810546875
1783002564379454000,5.082453857421875,-1.0036773681640625,-0.0626678466796875,0.040374755859375
1783002564389505000,5.092505126953125,-1.0103912353515625,-0.0623016357421875,0.0446624755859375
1783002564399556900,5.102556884765625,-1.0217742919921875,-0.06402587890625,0.045013427734375
1783002564409609000,5.11260888671875,-1.0296173095703125,-0.062896728515625,0.047607421875
1783002564419660800,5.122660888671875,-1.029205322265625,-0.066009521484375,0.044342041015625
1783002564429712000,5.1327119140625,-1.0218048095703125,-0.066680908203125,0.048828125
1783002564439763700,5.142763671875,-1.0224609375,-0.06915283203125,0.0568084716796875
1783002564449815800,5.15281591796875,-1.0206756591796875,-0.0720977783203125,0.0564727783203125
1783002564459867000,5.162866943359375,-1.01361083984375,-0.0687255859375,0.0567779541015625
1783002564469919000,5.1729189453125,-1.0103759765625,-0.0613555908203125,0.0578460693359375
1783002564479970800,5.182970703125,-1.0133514404296875,-0.060760498046875,0.0616912841796875
1783002564490023000,5.19302294921875,-1.0201568603515625,-0.0600128173828125,0.0649261474609375
1783002564500074000,5.203073974609375,-1.0251617431640625,-0.059906005859375,0.0674285888671875
1783002564510125800,5.213125732421875,-1.03070068359375,-0.0592803955078125,0.0640106201171875
1783002564520178000,5.223177978515625,-1.0257110595703125,-0.0581817626953125,0.0594329833984375
1783002564530228700,5.233228759765625,-1.014892578125,-0.05987548828125,0.05401611328125
1783002564540280800,5.24328076171875,-1.0036773681640625,-0.0592498779296875,0.0490875244140625
1783002564550332700,5.253332763671875,-0.99737548828125,-0.0589141845703125,0.045684814453125
1783002564560384800,5.263384765625,-0.9896392822265625,-0.0626220703125,0.040069580078125
1783002564570435800,5.273435791015625,-0.982940673828125,-0.064483642578125,0.0348358154296875
1783002564580488000,5.283488037109375,-0.9841156005859375,-0.06011962890625,0.0399627685546875
1783002564590540000,5.2935400390625,-1.0008544921875,-0.05535888671875,0.051544189453125
1783002564600590800,5.3035908203125,-1.01129150390625,-0.057830810546875,0.050750732421875
1783002564610643000,5.313642822265625,-1.0064544677734375,-0.0615234375,0.043731689453125
1783002564620694800,5.32369482421875,-1.007904052734375,-0.0603790283203125,0.0482025146484375
1783002564630747000,5.333746826171875,-1.015869140625,-0.060516357421875,0.0539703369140625
1783002564640798000,5.3437978515625,-1.0155792236328125,-0.064697265625,0.049713134765625
1783002564650849800,5.353849853515625,-1.00885009765625,-0.064239501953125,0.041717529296875
1783002564660902000,5.36390185546875,-1.0095672607421875,-0.0634002685546875,0.0442352294921875
1783002564670953700,5.37395361328125,-1.0135345458984375,-0.0678253173828125,0.0478973388671875
1783002564681004800,5.3840048828125,-1.0153656005859375,-0.0700225830078125,0.045501708984375
1783002564691057000,5.394056884765625,-0.996307373046875,-0.066925048828125,0.039031982421875
1783002564701109000,5.40410888671875,-0.9910430908203125,-0.0598907470703125,0.03631591796875
1783002564711160000,5.41416015625,-1.0042572021484375,-0.0588836669921875,0.042388916015625
1783002564721212000,5.4242119140625,-1.0119476318359375,-0.0637359619140625,0.0471954345703125
1783002564731264000,5.434263916015625,-1.0045623779296875,-0.0643310546875,0.0465545654296875
1783002564741315800,5.44431591796875,-0.99884033203125,-0.0624542236328125,0.0459442138671875
1783002564751367000,5.454366943359375,-0.9945526123046875,-0.062469482421875,0.0447540283203125
1783002564761418800,5.464418701171875,-0.9900970458984375,-0.064666748046875,0.0451507568359375
1783002564771470800,5.474470947265625,-0.991729736328125,-0.06475830078125,0.0495758056640625
1783002564781522000,5.48452197265625,-1.0095977783203125,-0.065521240234375,0.056884765625
1783002564791573800,5.49457373046875,-1.025970458984375,-0.0672760009765625,0.0567779541015625
1783002564801625900,5.5046259765625,-1.021759033203125,-0.06451416015625,0.0536956787109375
1783002564811678000,5.514677978515625,-1.019561767578125,-0.0625762939453125,0.0513763427734375
1783002564821729000,5.52472900390625,-1.0165863037109375,-0.066925048828125,0.0477752685546875
1783002564831780900,5.53478076171875,-1.0086822509765625,-0.0709075927734375,0.0446319580078125
1783002564841833000,5.5448330078125,-1.0014801025390625,-0.071319580078125,0.0399627685546875
1783002564851883800,5.5548837890625,-0.9857635498046875,-0.0695953369140625,0.038970947265625
1783002564861935900,5.564935791015625,-0.980712890625,-0.0693511962890625,0.0428619384765625
1783002564871987700,5.57498779296875,-0.9853363037109375,-0.0708770751953125,0.0408782958984375
1783002564882039800,5.585039794921875,-0.9903106689453125,-0.06854248046875,0.03924560546875
1783002564892091000,5.5950908203125,-0.98956298828125,-0.0692596435546875,0.0418243408203125
1783002564902142700,5.605142822265625,-0.9837493896484375,-0.071990966796875,0.043548583984375
1783002564912195000,5.615195068359375,-0.97576904296875,-0.0702362060546875,0.0439605712890625
1783002564922245600,5.62524560546875,-0.9832305908203125,-0.0641021728515625,0.042724609375
1783002564932298000,5.635298095703125,-0.99993896484375,-0.060821533203125,0.039306640625
1783002564942349800,5.645349853515625,-1.0186004638671875,-0.0604705810546875,0.0495147705078125
1783002564952402000,5.65540185546875,-1.0379486083984375,-0.06304931640625,0.0638580322265625
1783002564962453000,5.665452880859375,-1.0408172607421875,-0.063140869140625,0.060028076171875
1783002564972504800,5.6755048828125,-1.0278167724609375,-0.06103515625,0.056365966796875
1783002564982557000,5.685556884765625,-1.028350830078125,-0.059661865234375,0.061859130859375
1783002564992607700,5.695607666015625,-1.0239715576171875,-0.064666748046875,0.06915283203125
1783002565002659800,5.705659912109375,-1.02728271484375,-0.06988525390625,0.0587158203125
1783002565012711700,5.715711669921875,-1.0533905029296875,-0.0691986083984375,0.0522613525390625
1783002565022764000,5.725763916015625,-1.0560455322265625,-0.0626220703125,0.04095458984375
1783002565032814800,5.73581494140625,-0.959991455078125,-0.0584564208984375,-0.0016937255859375
1783002565042867000,5.745866943359375,-0.6338348388671875,-0.0240325927734375,0.0601959228515625
1783002565052918800,5.755918701171875,-0.74188232421875,-0.0340423583984375,0.148162841796875
1783002565062969900,5.765969970703125,-1.09906005859375,-0.10302734375,0.0830078125
1783002565073022000,5.77602197265625,-1.197052001953125,-0.128570556640625,0.0008697509765625
1783002565083073000,5.786072998046875,-1.19268798828125,-0.1023406982421875,0.00836181640625
1783002565093124900,5.796124755859375,-1.1274871826171875,-0.076995849609375,0.0401611328125
1783002565103176000,5.806176025390625,-1.0747528076171875,-0.078857421875,0.0254974365234375
1783002565113227800,5.816227783203125,-1.090789794921875,-0.08111572265625,0.0052490234375
1783002565123280000,5.82627978515625,-1.02587890625,-0.0433197021484375,0.0234375
1783002565133331000,5.8363310546875,-0.8885040283203125,-0.0228424072265625,0.0389862060546875
1783002565143382800,5.8463828125,-0.8243408203125,-0.051849365234375,0.0504608154296875
