time,seconds_elapsed,z,y,x
1783002559382486800,0.08548681640625,0.02413112483918667,-0.049899257719516754,0.03995984047651291
1783002559392539000,0.095538818359375,-0.0005404003895819187,-0.03695576265454292,0.08864908665418625
1783002559402589700,0.105589599609375,-0.02453131228685379,-0.03471069037914276,0.09889266639947891
1783002559412642000,0.11564208984375,-0.03425690904259682,-0.0475042462348938,0.08125481754541397
1783002559422694000,0.12569384765625,-0.02450709231197834,-0.019108910113573074,0.061280716210603714
1783002559432746000,0.13574609375,-0.017721623182296753,0.0233346875756979,0.05412799492478371
1783002559442797000,0.145797119140625,-0.00869731791317463,0.05673084035515785,0.044118378311395645
1783002559452849000,0.155848876953125,-0.004119077231734991,0.0430789440870285,0.03179566562175751
1783002559462901000,0.16590087890625,-0.0049456022679805756,-0.0035004462115466595,-0.006049527321010828
1783002559472951800,0.175951904296875,0.011656809598207474,-0.05207889899611473,-0.047365278005599976
1783002559483004000,0.18600390625,0.011159347370266914,-0.06201586872339249,-0.0518919862806797
1783002559493055700,0.1960556640625,0.00347586115822196,-0.03880429267883301,-0.038723453879356384
1783002559503107800,0.20610791015625,0.005200743675231934,-0.01139528863132,-0.021169887855648994
1783002559513159000,0.216158935546875,0.019526686519384384,0.007627671584486961,0.005039079114794731
1783002559523211000,0.2262109375,0.029652094468474388,0.0338713712990284,0.03582581877708435
1783002559533262800,0.236262939453125,0.032104067504405975,0.0510849766433239,0.06411684304475784
1783002559543315000,0.24631494140625,0.03121422789990902,0.062136679887771606,0.09586292505264282
1783002559553366000,0.256365966796875,0.03151489794254303,0.057122208178043365,0.103899285197258
1783002559563417900,0.26641796875,0.019656842574477196,0.004881043452769518,0.09193556755781174
1783002559573470000,0.276469970703125,0.0066004288382828236,-0.06354328989982605,0.09037868678569794
1783002559583520800,0.286520751953125,-0.012067781761288643,-0.09696720540523529,0.0823640301823616
1783002559593572900,0.29657275390625,-0.01361854001879692,-0.08644505590200424,0.06107072904706001
1783002559603624700,0.306624755859375,-0.015536387450993061,-0.0526750311255455,0.015958700329065323
1783002559613676800,0.3166767578125,-0.01700964942574501,-0.029394742101430893,-0.035364940762519836
1783002559623727900,0.326727783203125,-0.011121665127575397,-0.00927429273724556,-0.07168805599212646
1783002559633780000,0.336780029296875,-0.010696890763938427,0.04191592335700989,-0.07163186371326447
1783002559643832000,0.34683203125,-0.010773202404379845,0.09008931368589401,-0.04410669207572937
1783002559653884000,0.3568837890625,-0.009094877168536186,0.07754475623369217,-0.022665582597255707
1783002559663935000,0.36693505859375,0.001340201823040843,-0.011925116181373596,-0.027642367407679558
1783002559673986800,0.37698681640625,0.010687630623579025,-0.076844722032547,-0.016266141086816788
1783002559684039000,0.387038818359375,0.006976192817091942,-0.08043842762708664,0.019314825534820557
1783002559694090000,0.397090087890625,-0.002629030030220747,-0.05468139797449112,0.03451455384492874
1783002559704141800,0.407141845703125,-0.0033362931571900845,-0.024215787649154663,0.0028067510575056076
1783002559714194000,0.41719384765625,0.00431656651198864,-0.022976884618401527,-0.03387057036161423
1783002559724245800,0.427245849609375,0.0018611785490065813,0.012623172253370285,-0.035695768892765045
1783002559734296800,0.437296875,-0.012307902798056602,0.0521940179169178,0.005115576088428497
1783002559744349000,0.447348876953125,-0.01727382093667984,0.045552194118499756,0.059999413788318634
1783002559754401000,0.457401123046875,-0.013986948877573013,-0.010609610006213188,0.06574944406747818
1783002559764452900,0.467452880859375,-0.007519273553043604,-0.06643383204936981,0.036274828016757965
1783002559774504000,0.47750390625,-0.002504541538655758,-0.06330408155918121,0.029044875875115395
1783002559784556000,0.48755615234375,-0.005504372995346785,-0.016724582761526108,0.03683475777506828
1783002559794607900,0.49760791015625,-0.005356034729629755,0.00541161373257637,0.04233232140541077
1783002559804660000,0.507659912109375,-0.008153701201081276,0.015383735299110413,0.03388730436563492
1783002559814710800,0.517710693359375,-0.006931043695658445,0.038022469729185104,0.025494353845715523
1783002559824763000,0.527762939453125,-0.010023208335042,0.02944539487361908,0.013485626317560673
1783002559834814700,0.537814697265625,0.0012387670576572418,-0.010433578863739967,-0.0013673561625182629
1783002559844865800,0.54786572265625,0.011472534388303757,-0.041018176823854446,-0.00006074458360671997
1783002559854918000,0.55791796875,0.005516641307622194,-0.04682706296443939,0.030905161052942276
1783002559864970000,0.567969970703125,0.0001592189073562622,-0.04407887905836105,0.06527139246463776
1783002559875021800,0.578021728515625,-0.005097861401736736,-0.06982658803462982,0.08455507457256317
1783002559885073000,0.588072998046875,-0.005087943281978369,-0.10102793574333191,0.08103291690349579
1783002559895125000,0.598125,-0.011077392846345901,-0.12601931393146515,0.04278433322906494
1783002559905176800,0.6081767578125,-0.012753762304782867,-0.12379137426614761,0.0020751813426613808
1783002559915229000,0.61822900390625,-0.018875038251280785,-0.07302699983119965,-0.013161562383174896
1783002559925279700,0.62827978515625,-0.03027002140879631,-0.03053046204149723,-0.002772961277514696
1783002559935331800,0.638331787109375,-0.04298288747668266,-0.02866411954164505,0.0037986552342772484
1783002559945383700,0.6483837890625,-0.04885651916265488,-0.05376129224896431,0.0019761044532060623
1783002559955436000,0.65843603515625,-0.057519782334566116,-0.08257988840341568,-0.007962279953062534
1783002559965487000,0.668487060546875,-0.06926950812339783,-0.10942761600017548,-0.0253902655094862
1783002559975539000,0.6785390625,-0.08078661561012268,-0.13906382024288177,-0.05089722201228142
1783002559985591000,0.688591064453125,-0.0810730904340744,-0.1782158613204956,-0.08886978030204773
1783002559995641900,0.698641845703125,-0.07056265324354172,-0.17384561896324158,-0.09963640570640564
1783002560005694000,0.70869384765625,-0.07314014434814453,-0.11540108919143677,-0.07457804679870605
1783002560015745800,0.718745849609375,-0.06212184205651283,-0.057256028056144714,-0.0368485152721405
1783002560025798000,0.7287978515625,-0.045122209936380386,-0.018377967178821564,-0.0075406176038086414
1783002560035849000,0.738848876953125,-0.02493704855442047,0.011388184502720833,0.016766320914030075
1783002560045900800,0.74890087890625,-0.013338102027773857,0.03381001949310303,0.017371783033013344
1783002560055953000,0.758952880859375,0.0006163306534290314,0.044745225459337234,0.005205930210649967
1783002560066003700,0.769003662109375,0.0013395361602306366,0.001676841638982296,-0.003486152272671461
1783002560076056000,0.77905615234375,-0.0032235239632427692,-0.04917994886636734,-0.013728137128055096
1783002560086107600,0.789107666015625,-0.004353049211204052,-0.07088348269462585,-0.017252646386623383
1783002560096159700,0.79915966796875,-0.0055666519328951836,-0.06231236085295677,-0.027155078947544098
1783002560106210800,0.8092109375,0.0039024529978632927,-0.031235303729772568,-0.03473203629255295
1783002560116262700,0.8192626953125,0.015737541019916534,-0.008709490299224854,-0.02704855054616928
1783002560126314800,0.829314697265625,0.030585188418626785,-0.015591938979923725,-0.005564362742006779
1783002560136366800,0.839366943359375,0.03922821208834648,-0.009072787128388882,0.019814496859908104
1783002560146418000,0.84941796875,0.03705987334251404,0.00822528451681137,0.029759075492620468
1783002560156469800,0.8594697265625,0.03165871649980545,0.017290152609348297,0.030947111546993256
1783002560166521900,0.86952197265625,0.02593829296529293,0.010140614584088326,0.02135186828672886
1783002560176572700,0.87957275390625,0.01956508308649063,-0.03555336967110634,0.0076546985656023026
1783002560186624800,0.889624755859375,0.013387391343712807,-0.0805317759513855,-0.018349871039390564
1783002560196676600,0.899676513671875,0.012013467028737068,-0.0981171652674675,-0.04866090416908264
1783002560206728700,0.909728759765625,0.01943793147802353,-0.061462823301553726,-0.07625237107276917
1783002560216779800,0.91977978515625,0.008551194332540035,0.013758955523371696,-0.07595383375883102
1783002560226831600,0.92983154296875,0.006625574082136154,0.06440646946430206,-0.05033623427152634
1783002560236884000,0.939884033203125,0.015359411016106606,0.06346264481544495,-0.029753191396594048
1783002560246935800,0.949935791015625,0.024019010365009308,0.05252515897154808,-0.010473440401256084
1783002560256987000,0.95998681640625,0.01754726469516754,0.022223444655537605,0.005586486309766769
1783002560267038700,0.970038818359375,0.005272429436445236,-0.026205142959952354,0.016387470066547394
1783002560277090800,0.9800908203125,0.0028822424355894327,-0.04687153920531273,0.01852652244269848
1783002560287142000,0.990141845703125,0.005483876448124647,-0.04504331946372986,0.006753686815500259
1783002560297193700,1.00019384765625,0.00882454589009285,-0.03254590556025505,-0.009832214564085007
1783002560307245800,1.010245849609375,0.007664237171411514,-0.005421973764896393,-0.01870320551097393
1783002560317297700,1.020297607421875,0.008309787139296532,0.05117792263627052,-0.025585612282156944
1783002560327348700,1.0303486328125,0.0054864282719790936,0.08276678621768951,-0.029194585978984833
1783002560337400600,1.040400634765625,0.0011883527040481567,0.08362779021263123,-0.03126945346593857
1783002560347453000,1.050452880859375,0.008035372942686081,0.07333669811487198,-0.027213996276259422
1783002560357504800,1.0605048828125,0.010137139819562435,0.037156328558921814,-0.02706991881132126
1783002560367555800,1.070555908203125,-0.00018480606377124786,-0.021504392847418785,-0.027695756405591965
1783002560377608000,1.08060791015625,-0.006593969184905291,-0.07308822870254517,-0.00928052980452776
1783002560387659800,1.09065966796875,-0.011520775966346264,-0.0741836428642273,0.010805094614624977
1783002560397710800,1.1007109375,-0.009718081913888454,-0.03870180994272232,0.013800617307424545
1783002560407762700,1.1107626953125,-0.011618822813034058,-0.004453237634152174,-0.005486856214702129
1783002560417814800,1.120814697265625,-0.006940712686628103,0.025180021300911903,-0.033346716314554214
1783002560427866600,1.13086669921875,-0.0019255699589848518,0.06321843713521957,-0.03577752783894539
1783002560437917700,1.140917724609375,-0.0017484701238572598,0.09861397743225098,-0.017723694443702698
1783002560447969800,1.1509697265625,-0.0002722200006246567,0.08100948482751846,0.007883662357926369
1783002560458022000,1.16102197265625,0.0007941096555441618,0.03769051283597946,0.03063877485692501
1783002560468073700,1.17107373046875,0.0030138613656163216,-0.007995976135134697,0.02808194048702717
1783002560478124800,1.181124755859375,0.0019717663526535034,-0.02900618687272072,0.015913959592580795
1783002560488177000,1.191177001953125,0.003758977400138974,-0.0046637714840471745,0.002135762944817543
1783002560498228700,1.201228759765625,-0.00013642804697155952,0.03369080647826195,-0.015890374779701233
1783002560508279800,1.21127978515625,0.008457234129309654,0.041681919246912,-0.03036757931113243
1783002560518331600,1.22133154296875,0.011051151901483536,0.036708999425172806,-0.034958600997924805
1783002560528383700,1.2313837890625,0.014686414040625095,0.04020118713378906,-0.03767063468694687
1783002560538435600,1.241435546875,0.02159225568175316,0.05731732398271561,-0.051136910915374756
1783002560548486700,1.251486572265625,0.014384090900421143,0.06426974385976791,-0.07180509716272354
1783002560558538800,1.261538818359375,0.0033149279188364744,0.04717198386788368,-0.09162726998329163
1783002560568590800,1.2715908203125,-0.0003977930173277855,0.02299177087843418,-0.08815537393093109
1783002560578643000,1.281642822265625,-0.008408315479755402,0.03568999096751213,-0.07148825377225876
1783002560588693800,1.29169384765625,-0.01573086343705654,0.03899645805358887,-0.0602293387055397
1783002560598745900,1.301745849609375,-0.01716337911784649,0.04528231546282768,-0.05270085483789444
1783002560608797700,1.311797607421875,-0.02044501341879368,0.055227428674697876,-0.04455097019672394
1783002560618848800,1.321848876953125,-0.01673123426735401,0.07154861837625504,-0.03067217580974102
1783002560628900900,1.33190087890625,-0.016814017668366432,0.07155175507068634,-0.015478778630495071
1783002560638952700,1.34195263671875,-0.007442088332027197,0.043184295296669006,-0.0005469671450555325
1783002560649004800,1.3520048828125,-0.0034023085609078407,0.002717727329581976,0.004710908979177475
1783002560659055600,1.3620556640625,-0.0021112076938152313,-0.0368344783782959,0.022444631904363632
1783002560669107700,1.372107666015625,-0.006838075816631317,-0.04486509785056114,0.04096272587776184
1783002560679159800,1.382159912109375,-0.009465283714234829,-0.04039125144481659,0.043998729437589645
1783002560689212000,1.3922119140625,-0.013850711286067963,-0.01340917032212019,0.019068878144025803
1783002560699263000,1.402262939453125,-0.020367732271552086,-0.00497360760346055,-0.009754514321684837
1783002560709314800,1.412314697265625,-0.011863218620419502,0.030082520097494125,-0.026061248034238815
1783002560719367000,1.422366943359375,-0.014478709548711777,0.058851320296525955,-0.027658611536026
1783002560729417700,1.432417724609375,-0.01549871452152729,0.05297017842531204,-0.03828608989715576
1783002560739469800,1.4424697265625,-0.012413442134857178,0.0067084054462611675,-0.06130059435963631
1783002560749521700,1.452521728515625,-0.014561973512172699,-0.04387668892741203,-0.0759342759847641
1783002560759573800,1.46257373046875,-0.015858665108680725,-0.05869824439287186,-0.07795108109712601
1783002560769624800,1.472624755859375,-0.017642401158809662,-0.0433695949614048,-0.08445725589990616
1783002560779676700,1.4826767578125,-0.016923878341913223,-0.022633424028754234,-0.08437629789113998
1783002560789728800,1.492728759765625,-0.010279609821736813,-0.011591453105211258,-0.07142447680234909
1783002560799780900,1.50278076171875,-0.00005626725032925606,0.010043801739811897,-0.03640390560030937
1783002560809832000,1.51283203125,0.0008250477258116007,0.030894815921783447,-0.0011202036403119564
1783002560819883800,1.5228837890625,-0.0011100051924586296,0.030225295573472977,0.006637051701545715
1783002560829935900,1.532935791015625,-0.0015494432300329208,0.014414651319384575,-0.013178747147321701
1783002560839987700,1.54298779296875,0.0005003917030990124,-0.008431009948253632,-0.0473518967628479
1783002560850038800,1.553038818359375,-0.004635907709598541,-0.01782042905688286,-0.061904266476631165
1783002560860090600,1.563090576171875,-0.013442182913422585,-0.020811427384614944,-0.05987919867038727
1783002560870142700,1.573142822265625,-0.014848379418253899,-0.009994450025260448,-0.03421231359243393
1783002560880193800,1.58319384765625,-0.011984417214989662,0.0027903211303055286,-0.013295583426952362
1783002560890245600,1.59324560546875,-0.010352367535233498,0.016026299446821213,-0.011543494649231434
1783002560900298000,1.603298095703125,-0.001487769652158022,0.02324453368782997,-0.01954309642314911
1783002560910349800,1.613349853515625,0.0014731481205672026,0.02819809503853321,-0.02427034266293049
1783002560920401000,1.62340087890625,0.00436960207298398,0.02337777242064476,-0.026828575879335403
1783002560930452700,1.63345263671875,0.004638461861759424,-0.0030965395271778107,-0.035064324736595154
1783002560940504800,1.6435048828125,0.002653075149282813,-0.03527924418449402,-0.04329908639192581
1783002560950556000,1.653555908203125,-0.00411297706887126,-0.07205868512392044,-0.026005247607827187
1783002560960607700,1.663607666015625,-0.01116742379963398,-0.07088129967451096,0.003924954682588577
1783002560970659800,1.673659912109375,-0.0062838029116392136,-0.03547947481274605,0.021707866340875626
1783002560980711700,1.683711669921875,-0.00677409116178751,0.006872775498777628,0.030921338126063347
1783002560990762800,1.6937626953125,-0.0056161945685744286,0.029447076842188835,0.017219778150320053
1783002561000814600,1.703814697265625,-0.0016416925936937332,0.03945603221654892,-0.01030399277806282
1783002561010867000,1.713866943359375,0.005816086195409298,0.04849755018949509,-0.03972691670060158
1783002561020918800,1.723918701171875,0.004143354948610067,0.03548242151737213,-0.05659911036491394
1783002561030969900,1.733969970703125,0.0029011061415076256,-0.0029269345104694366,-0.06025248020887375
1783002561041021700,1.744021728515625,0.004129356238991022,-0.04422084614634514,-0.05111384391784668
1783002561051073800,1.75407373046875,0.0005274522118270397,-0.06416703015565872,-0.016840189695358276
1783002561061125600,1.764125732421875,-0.00412003044039011,-0.051316745579242706,0.006239296868443489
1783002561071176700,1.7741767578125,-0.003607897087931633,-0.0258339811116457,0.016074150800704956
1783002561081229600,1.7842294921875,0.0008462399709969759,-0.007701582740992308,0.013834698125720024
1783002561091281700,1.79428173828125,0.0036405157297849655,0.0023557236418128014,-0.015619713813066483
1783002561101332700,1.804332763671875,0.01617521606385708,0.010096200741827488,-0.04028245061635971
1783002561111384600,1.814384521484375,0.01475762389600277,0.02744620479643345,-0.046155720949172974
1783002561121436700,1.824436767578125,0.01196237001568079,0.025719942525029182,-0.034015968441963196
1783002561131488500,1.834488525390625,0.010731079615652561,-0.008226841688156128,-0.02544386312365532
1783002561141539600,1.84453955078125,0.004204470664262772,-0.047934308648109436,-0.004603829234838486
1783002561151591400,1.85459130859375,-0.006199449300765991,-0.04894159734249115,0.013745219446718693
1783002561161643500,1.8646435546875,-0.002571425400674343,-0.023265793919563293,0.02049766480922699
1783002561171695600,1.874695556640625,0.0018702636007219553,0.0030969460494816303,0.00687219575047493
1783002561181746700,1.88474658203125,0.003362965304404497,0.008444307371973991,-0.00787399336695671
1783002561191798800,1.894798828125,-0.002867649309337139,0.009578017517924309,-0.020351625978946686
1783002561201850600,1.9048505859375,-0.00544612156227231,-0.037875253707170486,-0.026236679404973984
1783002561211901700,1.914901611328125,-0.00787074863910675,-0.09673286229372025,-0.014770031906664371
1783002561221953500,1.92495361328125,-0.010181574150919914,-0.15048344433307648,0.025932125747203827
1783002561232005600,1.935005615234375,-0.018086282536387444,-0.1926291435956955,0.06714040786027908
1783002561242057500,1.945057373046875,-0.03141540661454201,-0.238764688372612,0.08282668888568878
1783002561252108500,1.955108642578125,-0.05418882891535759,-0.2815949022769928,0.08108098804950714
1783002561262160600,1.96516064453125,-0.0701259896159172,-0.26313573122024536,0.06900275498628616
1783002561272212500,1.97521240234375,-0.07596775889396667,-0.20804359018802643,0.05029299110174179
1783002561282264800,1.985264892578125,-0.0864744633436203,-0.15282747149467468,0.02574183978140354
1783002561292315600,1.995315673828125,-0.09457114338874817,-0.09660933911800385,-0.007298945914953947
1783002561302367700,2.00536767578125,-0.0756368637084961,-0.04925912991166115,-0.04568814858794212
1783002561312419600,2.015419677734375,-0.03949156776070595,-0.016057083383202553,-0.08137091994285583
1783002561322470700,2.025470703125,-0.02601197548210621,-0.0185061264783144,-0.1088653951883316
1783002561332522800,2.035522705078125,-0.004298203159123659,-0.02303455024957657,-0.12486312538385391
1783002561342574600,2.04557470703125,0.005114739295095205,-0.022335205227136612,-0.11368077993392944
1783002561352626700,2.055626708984375,-0.0024553430266678333,-0.0288948193192482,-0.0930217057466507
1783002561362677500,2.065677490234375,-0.01740499772131443,-0.027479615062475204,-0.06084539368748665
1783002561372729600,2.0757294921875,-0.016686102375388145,-0.0384075790643692,-0.03308926895260811
1783002561382781400,2.085781494140625,-0.005441171117126942,-0.028275849297642708,-0.01240050233900547
1783002561392833800,2.095833740234375,0.012454919517040253,-0.002011415548622608,0.019213421270251274
1783002561402884600,2.105884521484375,0.01388796791434288,0.035638488829135895,0.03551196679472923
1783002561412936700,2.115936767578125,0.020831923931837082,0.04369285702705383,0.03164798393845558
1783002561422988500,2.125988525390625,0.016635848209261894,0.040461376309394836,0.012880421243607998
1783002561433040600,2.13604052734375,0.01035599410533905,0.025837332010269165,-0.006931290030479431
1783002561443091700,2.146091796875,0.010974645614624023,-0.011151311919093132,-0.028327390551567078
1783002561453143600,2.1561435546875,0.0060116685926914215,-0.03220979869365692,-0.03171740472316742
1783002561463195600,2.166195556640625,0.005410060286521912,-0.04050794243812561,-0.03310570865869522
1783002561473246500,2.17624658203125,0.007584241218864918,-0.013335568830370903,-0.011619790457189083
1783002561483298600,2.186298583984375,0.0033330372534692287,0.02856580913066864,0.013404603116214275
1783002561493350400,2.196350341796875,0.009399959817528725,0.04815642908215523,0.04100567474961281
1783002561503402800,2.20640283203125,0.015908725559711456,0.03942898288369179,0.04215509444475174
1783002561513453800,2.216453857421875,0.020754065364599228,0.03225833922624588,0.04315843805670738
1783002561523505700,2.226505615234375,0.021801486611366272,0.0413474440574646,0.03784463182091713
1783002561533557800,2.236557861328125,0.02151808701455593,0.05191026255488396,0.023074064403772354
1783002561543608600,2.246608642578125,0.016352886334061623,0.02660437300801277,0.013892283663153648
1783002561553660700,2.25666064453125,0.01160784624516964,0.008878668770194054,0.0060692522674798965
1783002561563712500,2.26671240234375,0.009340164251625538,-0.0007449300028383732,-0.0029950826428830624
1783002561573764600,2.2767646484375,0.009449511766433716,0.006710269954055548,-0.0005427044816315174
1783002561583815700,2.286815673828125,0.00773017480969429,0.009092200547456741,0.002628321759402752
1783002561593867500,2.296867431640625,0.015332208015024662,0.013467983342707157,-0.0027535962872207165
1783002561603919600,2.306919677734375,0.014364414848387241,0.04927471652626991,0.018119193613529205
1783002561613971700,2.3169716796875,0.006298376247286797,0.06341493874788284,0.03580532222986221
1783002561624022800,2.327022705078125,0.015183480456471443,0.055120792239904404,0.03303270414471626
1783002561634074600,2.33707470703125,0.013089882209897041,0.0302983820438385,0.026440192013978958
1783002561644126700,2.347126708984375,0.0058586010709404945,0.007199187763035297,0.013992313295602798
1783002561654178600,2.357178466796875,0.00337544409558177,-0.00881425105035305,0.006397554650902748
1783002561664229600,2.367229736328125,-0.0028771255165338516,-0.03151104226708412,-0.0009165508672595024
1783002561674281500,2.377281494140625,-0.004436036571860313,-0.04314154386520386,-0.006947949528694153
1783002561684333600,2.38733349609375,-0.0016708765178918839,-0.012278171256184578,-0.007725325878709555
1783002561694384600,2.397384521484375,0.00011152634397149086,0.03745388612151146,0.007790007628500462
1783002561704436500,2.4074365234375,-0.001786508597433567,0.07052608579397202,0.030348047614097595
1783002561714488600,2.417488525390625,0.0009363763965666294,0.06175610423088074,0.04232001304626465
1783002561724540700,2.427540771484375,-0.0006396821700036526,0.054100312292575836,0.05604381486773491
1783002561734591700,2.437591796875,-0.002197614870965481,0.04693116620182991,0.06314712762832642
1783002561744643600,2.4476435546875,-0.004703383427113295,0.04354708641767502,0.047026749700307846
1783002561754695700,2.45769580078125,-0.0010480773635208607,0.028774887323379517,0.019390277564525604
1783002561764747500,2.46774755859375,-0.004565580282360315,-0.016409635543823242,-0.02757669799029827
1783002561774798600,2.477798583984375,-0.005655335262417793,-0.041334375739097595,-0.06552404165267944
1783002561784850700,2.4878505859375,-0.0026459633372724056,-0.029475055634975433,-0.08139754086732864
1783002561794902500,2.497902587890625,-0.0013144691474735737,-0.007084988988935947,-0.07508018612861633
1783002561804953600,2.50795361328125,-0.004982707090675831,0.0028251660987734795,-0.051145024597644806
1783002561815005400,2.51800537109375,-0.006899227388203144,0.0057290662080049515,-0.0185149684548378
1783002561825057500,2.5280576171875,-0.0021084672771394253,0.017242709174752235,0.007818367332220078
1783002561835109600,2.538109619140625,0.0047596353106200695,0.0343317911028862,0.03595099598169327
1783002561845160700,2.54816064453125,0.0002740733325481415,0.042723145335912704,0.04909555986523628
1783002561855212800,2.558212890625,0.0006003915332257748,0.028899097815155983,0.034923408180475235
1783002561865264600,2.5682646484375,0.0003260858356952667,0.029407760128378868,0.00890432484447956
1783002561875316700,2.578316650390625,-0.0062582362443208694,0.035000018775463104,-0.0035295789130032063
1783002561885367600,2.588367431640625,-0.007669446058571339,0.03802323713898659,0.001703266054391861
1783002561895419600,2.598419677734375,-0.004431833513081074,0.03194008767604828,0.008437401615083218
1783002561905471500,2.608471435546875,-0.003831024281680584,0.02931101620197296,0.010239296592772007
1783002561915523600,2.618523681640625,-0.005364628974348307,0.02301979251205921,0.0116076385602355
1783002561925574700,2.62857470703125,-0.0023014615289866924,0.01530967466533184,0.006053882651031017
1783002561935626500,2.63862646484375,0.002645667642354965,0.010295150801539421,0.003924215212464333
1783002561945678600,2.6486787109375,0.007950417697429657,-0.010276436805725098,-0.0037291767075657845
1783002561955729700,2.658729736328125,0.010646861046552658,-0.024099882692098618,-0.01250515691936016
1783002561965781800,2.66878173828125,0.015492748469114304,-0.027514852583408356,-0.018560387194156647
1783002561975833600,2.67883349609375,0.015350276604294777,-0.013756122440099716,-0.023496489971876144
1783002561985885700,2.6888857421875,0.010111839510500431,-0.006828708574175835,-0.015933379530906677
1783002561995936500,2.6989365234375,0.00714009627699852,0.0023172711953520775,0.003114476799964905
1783002562005988600,2.708988525390625,0.001943470211699605,0.01627543196082115,0.015027862042188644
1783002562016040400,2.71904052734375,0.0021433953661471605,0.02202184684574604,0.017473313957452774
1783002562026092500,2.729092529296875,0.0006120777688920498,0.027292510494589806,0.01853431761264801
1783002562036143600,2.7391435546875,0.0007343485485762358,0.03321581333875656,0.024983424693346024
1783002562046195500,2.749195556640625,0.00303265661932528,0.04563333839178085,0.02443375065922737
1783002562056247800,2.759247802734375,0.008989159017801285,0.04087068885564804,0.021564587950706482
1783002562066298600,2.769298583984375,0.01822526752948761,0.037228018045425415,0.011007284745573997
1783002562076350700,2.779350830078125,0.023929715156555176,0.02310049720108509,0.009131490252912045
1783002562086402800,2.78940283203125,0.021694790571928024,0.006048808805644512,0.01629512757062912
1783002562096455000,2.799454833984375,0.029401365667581558,-0.013754342682659626,0.03624633699655533
1783002562106506000,2.809506103515625,0.021189242601394653,-0.01831234246492386,0.04587686061859131
1783002562116557800,2.819557861328125,0.038768965750932693,-0.01862453483045101,0.04597220569849014
1783002562126610000,2.82960986328125,0.049123603850603104,-0.014237508177757263,0.04841485619544983
1783002562136662000,2.839662109375,0.052313461899757385,-0.010650557465851307,0.0359797477722168
1783002562146713000,2.849713134765625,0.06034715473651886,-0.000952922971919179,0.021029027178883553
1783002562156765000,2.859764892578125,0.061211805790662766,0.003231549635529518,0.011353101581335068
1783002562166817000,2.869817138671875,0.06176814064383507,-0.017410878092050552,-0.0005301893688738346
1783002562176868900,2.879868896484375,0.055517394095659256,-0.04936609044671059,0.003152100369334221
1783002562186920000,2.889919921875,0.045348379760980606,-0.06624067574739456,0.00789705477654934
1783002562196971800,2.8999716796875,0.02895401045680046,-0.052040450274944305,0.013895154930651188
1783002562207023900,2.91002392578125,0.019890740513801575,-0.01704731583595276,0.009592819027602673
1783002562217075000,2.920074951171875,0.011691246181726456,0.01922103948891163,0.010018318891525269
1783002562227126800,2.930126708984375,0.003494302975013852,0.03337440639734268,-0.00040822383016347885
1783002562237179000,2.940178955078125,-0.0003853761591017246,0.035377632826566696,-0.00901021622121334
1783002562247231000,2.95023095703125,-0.004557217471301556,0.03341834619641304,-0.01324970182031393
1783002562257282000,2.960281982421875,-0.0023740162141621113,0.04070663824677467,-0.0031876293942332268
1783002562267334000,2.970333984375,-0.0016086236573755741,0.04322332516312599,0.002979452721774578
1783002562277386000,2.980385986328125,-0.004263582173734903,0.03226146101951599,0.02118196152150631
1783002562287437000,2.99043701171875,-0.002260352950543165,0.02087751403450966,0.023996390402317047
1783002562297489000,3.000489013671875,-0.003927030600607395,0.011869793757796288,0.011364423669874668
1783002562307541000,3.010541015625,-0.000714725349098444,0.003979380242526531,-0.0004075472243130207
1783002562317592800,3.0205927734375,0.0000080806203186512,0.008020053617656231,-0.008751299232244492
1783002562327644000,3.030643798828125,0.004570874851197004,0.010352983139455318,-0.014735423028469086
1783002562337695700,3.04069580078125,-0.001374546904116869,0.020000744611024857,-0.02070949785411358
1783002562347747800,3.050747802734375,0.003662822302430868,0.022531546652317047,-0.017311837524175644
1783002562357800000,3.060800048828125,0.00213462277315557,0.027315497398376465,-0.014796875417232513
1783002562367851000,3.07085107421875,-0.00026035774499177933,0.019801387563347816,-0.013365427032113075
1783002562377903000,3.080903076171875,-0.004672103561460972,0.009629962034523487,-0.02162109687924385
1783002562387955000,3.090954833984375,-0.013333502225577831,0.011556759476661682,-0.015740036964416504
1783002562398007000,3.101007080078125,-0.023465247824788094,0.008836789056658745,-0.007581309415400028
1783002562408057900,3.111057861328125,-0.021009014919400215,-0.003369011217728257,0.0012039262801408768
1783002562418110000,3.12110986328125,-0.020027492195367813,-0.013017072342336178,0.005235146731138229
1783002562428161800,3.131161865234375,-0.014840453863143921,-0.00782737135887146,0.008895128965377808
1783002562438212900,3.141212890625,-0.013535902835428715,-0.0004719407297670841,0.0006194943562150002
1783002562448265000,3.151264892578125,-0.011572887189686298,0.01097192894667387,-0.017803987488150597
1783002562458316800,3.16131689453125,-0.004577843006700277,0.03388594835996628,-0.03295963630080223
1783002562468369000,3.171368896484375,-0.0023916540667414665,0.04086343199014664,-0.0435640774667263
1783002562478420000,3.181419921875,-0.00406093942001462,0.0429195761680603,-0.035182442516088486
1783002562488472000,3.19147216796875,-0.0024995277635753155,0.04607142508029938,-0.020113743841648102
1783002562498524000,3.20152392578125,-0.0016452893614768982,0.04825347661972046,-0.003449421375989914
1783002562508575000,3.211574951171875,0.004150015767663717,0.04157187044620514,0.0025834375992417336
1783002562518626800,3.221626708984375,0.004209137987345457,0.03731027990579605,0.024112962186336517
1783002562528679000,3.231678955078125,0.003632030915468931,0.04538844898343086,0.05138612911105156
1783002562538730800,3.241730712890625,0.011181090027093887,0.06504330784082413,0.0703873261809349
1783002562548781800,3.25178173828125,0.009955237619578838,0.07450099289417267,0.08020267635583878
1783002562558834000,3.261833984375,0.012069637887179852,0.056668028235435486,0.06950095295906067
1783002562568885800,3.2718857421875,0.014086183160543442,0.03683333843946457,0.0488864928483963
1783002562578938000,3.281938232421875,0.012212838977575302,0.04392492026090622,0.0414433591067791
1783002562588989000,3.291989013671875,0.006139233708381653,0.050935156643390656,0.05131489783525467
1783002562599041000,3.302041015625,0.001130242832005024,0.04135660082101822,0.06807629019021988
1783002562609092900,3.3120927734375,-0.002068746369332075,0.02878515049815178,0.07819017767906189
1783002562619145000,3.32214501953125,-0.0010227891616523266,0.0406237468123436,0.0734429657459259
1783002562629196000,3.332196044921875,-0.005123258102685213,0.030185487121343613,0.03772358596324921
1783002562639248000,3.342247802734375,-0.005108794663101435,0.036654502153396606,-0.014436623081564903
1783002562649300000,3.352300048828125,0.0000902288593351841,0.05724712833762169,-0.06829213351011276
1783002562659350800,3.362350830078125,0.000736510381102562,0.07136416435241699,-0.10568563640117645
1783002562669403000,3.37240283203125,-0.008566177450120449,0.04527583718299866,-0.11297604441642761
1783002562679454700,3.382454833984375,-0.008499661460518837,0.026553748175501823,-0.09329075366258621
1783002562689507000,3.392507080078125,-0.008500460535287857,-0.0038291900418698788,-0.06636965274810791
1783002562699558100,3.40255810546875,-0.006189870182424784,-0.026948723942041397,-0.031142426654696465
1783002562709610000,3.41260986328125,-0.006449528504163027,-0.05211346596479416,-0.01469501107931137
1783002562719661800,3.422661865234375,0.0022834530100226402,-0.04542229697108269,-0.01505659706890583
1783002562729713000,3.432712890625,0.007022282108664513,-0.01714964769780636,-0.0293178241699934
1783002562739765000,3.442764892578125,0.006977839395403862,0.004198151640594006,-0.042644284665584564
1783002562749816800,3.45281689453125,0.003729315707460046,0.017515555024147034,-0.04344216734170914
1783002562759869000,3.462868896484375,0.006756394635885954,0.007567761931568384,-0.05047684907913208
1783002562769920000,3.472919921875,0.00927175022661686,0.00024406937882304192,-0.06174308806657791
1783002562779971800,3.482971923828125,0.0004210295155644417,0.0010762084275484085,-0.07166123390197754
1783002562790023700,3.493023681640625,-0.007117846515029669,-0.0019435498397797346,-0.07188467681407928
1783002562800076000,3.503075927734375,-0.0081309350207448,-0.019421203061938286,-0.058950431644916534
1783002562810127000,3.513127197265625,-0.00466802716255188,-0.03298787772655487,-0.039505891501903534
1783002562820179000,3.523178955078125,0.0030584167689085007,-0.03330659866333008,-0.025572221726179123
1783002562830231000,3.53323095703125,0.003245370462536812,-0.02308511920273304,-0.01953882724046707
1783002562840283000,3.543282958984375,0.011857686564326286,0.0022438783198595047,-0.03033822402358055
1783002562850334000,3.553333984375,0.0180740375071764,0.030052606016397476,-0.03340485692024231
1783002562860385800,3.5633857421875,0.01514418050646782,0.04091128706932068,-0.04072368144989014
1783002562870438000,3.57343798828125,0.01485496200621128,0.022605514153838158,-0.038675978779792786
1783002562880489000,3.583489013671875,0.019208407029509544,-0.0029044991824775934,-0.045776695013046265
1783002562890540800,3.593540771484375,0.019498957321047783,-0.03318756818771362,-0.05767969414591789
1783002562900593000,3.603593017578125,0.016984110698103905,-0.06929696351289749,-0.05275943502783775
1783002562910645000,3.61364501953125,0.013817345723509789,-0.058849118649959564,-0.0374438613653183
1783002562920696000,3.623696044921875,0.01867208629846573,-0.029673585668206215,-0.01701076328754425
1783002562930748000,3.633747802734375,0.017639046534895897,-0.01478518359363079,-0.0012911893427371979
1783002562940800000,3.643800048828125,0.022595219314098358,-0.0055060307495296,0.010279711335897446
1783002562950851000,3.65385107421875,0.030634503811597824,0.0012533385306596756,0.009017638862133026
1783002562960903000,3.66390283203125,0.024371538311243057,0.007905606180429459,0.003767416812479496
1783002562970955000,3.673955078125,0.020683594048023224,-0.003333998378366232,-0.01905294507741928
1783002562981006800,3.6840068359375,0.022330235689878464,-0.012938380241394043,-0.03742389380931854
1783002562991058000,3.694057861328125,0.0187541414052248,-0.015315784141421318,-0.04479845613241196
1783002563001109800,3.70410986328125,0.01358383521437645,-0.012659532018005848,-0.036255694925785065
1783002563011161900,3.714161865234375,0.0062886374071240425,-0.010034188628196716,-0.015365062281489372
1783002563021214000,3.7242138671875,0.0029544509015977383,-0.023284776136279106,0.01026972196996212
1783002563031264800,3.7342646484375,0.0071497284807264805,-0.021898867562413216,0.03829869255423546
1783002563041316900,3.74431689453125,0.004766480531543493,-0.018664641305804253,0.06883197277784348
1783002563051369000,3.754368896484375,0.007416858337819576,-0.041611235588788986,0.06970442086458206
1783002563061420000,3.764419921875,0.0036369357258081436,-0.07148659229278564,0.041042622178792953
1783002563071471900,3.774471923828125,-0.003106987103819847,-0.0960310846567154,0.003045969642698765
1783002563081523700,3.784523681640625,-0.01541152037680149,-0.10287688672542572,-0.02418425679206848
1783002563091575600,3.794575439453125,-0.02654646337032318,-0.10067232698202133,-0.05220843851566315
1783002563101626600,3.804626708984375,-0.03233640640974045,-0.08390964567661285,-0.0652429461479187
1783002563111678700,3.8146787109375,-0.044723302125930786,-0.05507666990160942,-0.06229136139154434
1783002563121730600,3.82473046875,-0.05082409456372261,-0.02468559890985489,-0.044394854456186295
1783002563131782700,3.83478271484375,-0.05108135566115379,-0.011769001372158527,-0.021848000586032867
1783002563141833500,3.84483349609375,-0.046705152839422226,0.006331050302833319,0.00954974815249443
1783002563151885800,3.8548857421875,-0.03782111406326294,0.016185011714696884,0.03415895625948906
1783002563161937700,3.864937744140625,-0.026873160153627396,0.02204948291182518,0.04721548408269882
1783002563171988700,3.87498876953125,-0.021809160709381104,0.03095642477273941,0.04540560021996498
1783002563182040600,3.88504052734375,-0.021440614014863968,0.03219645097851753,0.04152291268110275
1783002563192092700,3.8950927734375,-0.026436440646648407,0.04529840499162674,0.0347619503736496
1783002563202144500,3.90514453125,-0.02400638535618782,0.03987068682909012,0.026632186025381088
1783002563212195600,3.915195556640625,-0.02750498056411743,0.022955620661377907,0.008365298621356487
1783002563222247700,3.92524755859375,-0.02286708727478981,0.0026229186914861202,-0.0023315544240176678
1783002563232299500,3.935299560546875,-0.023267094045877457,-0.0004205417353659868,-0.0013025091029703617
1783002563242350600,3.9453505859375,-0.015985995531082153,0.014600303024053574,0.010271722450852394
1783002563252402400,3.95540234375,-0.012101508677005768,0.018409954383969307,0.01458204910159111
1783002563262454800,3.965454833984375,-0.011305319145321846,0.00603178795427084,0.005476160906255245
1783002563272506600,3.975506591796875,-0.005338241346180439,-0.004660270642489195,-0.005648395512253046
1783002563282557700,3.9855576171875,-0.004368731286376715,-0.0024294215254485607,-0.022509194910526276
1783002563292609800,3.99560986328125,-0.006137337069958448,0.005303865764290094,-0.0327458530664444
1783002563302661600,4.00566162109375,-0.0051367077976465225,0.01838364452123642,-0.023046158254146576
1783002563312713700,4.015713623046875,-0.0046799760311841965,0.02458721026778221,-0.019843973219394684
1783002563322764500,4.0257646484375,-0.003983513917773962,0.02873227186501026,-0.0159161314368248
1783002563332816600,4.035816650390625,-0.002627698704600334,0.039943378418684006,-0.020993446931242943
1783002563342868500,4.045868408203125,-0.004924777429550886,0.06250842660665512,-0.01902664825320244
1783002563352919600,4.05591943359375,-0.0032792100682854652,0.05895230174064636,-0.010477367788553238
1783002563362971600,4.0659716796875,-0.0039860582910478115,0.023019088432192802,-0.010855134576559067
1783002563373023700,4.076023681640625,-0.0006653624586760998,-0.0062519824132323265,-0.002189474646002054
1783002563383075800,4.086075927734375,-0.00009998120367527008,-0.018539583310484886,0.004530944861471653
1783002563393126700,4.096126708984375,0.0006592860445380211,-0.02030019834637642,0.016650192439556122
1783002563403178800,4.1061787109375,-0.008458182215690613,-0.018521785736083984,0.008819294162094593
1783002563413230600,4.116230712890625,-0.00712952995672822,-0.005785483401268721,-0.000024796463549137115
1783002563423281700,4.12628173828125,-0.006790663581341505,0.004505157470703125,0.0006691636517643929
1783002563433333800,4.136333740234375,-0.010212559252977371,0.006859125569462776,0.008150515146553516
1783002563443385600,4.146385498046875,-0.018624750897288322,0.0021137455478310585,0.03828950226306915
1783002563453437400,4.1564375,-0.02288980409502983,0.02556208148598671,0.0729161873459816
1783002563463488500,4.166488525390625,-0.019827285781502724,0.043626122176647186,0.09906144440174103
1783002563473540600,4.17654052734375,-0.01679021678864956,0.04405888542532921,0.10484449565410614
1783002563483592700,4.1865927734375,-0.014473061077296734,0.04587562754750252,0.09192311018705368
1783002563493644800,4.196644775390625,-0.012602190487086773,0.05621854588389397,0.07573268562555313
1783002563503695600,4.206695556640625,-0.01174885407090187,0.05592752993106842,0.06052204221487045
1783002563513747700,4.216747802734375,-0.007722952868789434,0.051681119948625565,0.03951635956764221
1783002563523799600,4.226799560546875,-0.009585149586200714,0.037369996309280396,0.022373929619789124
1783002563533850600,4.2368505859375,-0.01358761452138424,0.0224674791097641,0.01266564056277275
1783002563543902700,4.24690283203125,-0.009060567244887352,0.031018998473882675,0.010779580101370811
1783002563553954600,4.25695458984375,0.0015705048572272062,0.03298094868659973,0.029458723962306976
1783002563564006700,4.267006591796875,0.004967786371707916,0.006234682630747557,0.035620756447315216
1783002563574057500,4.277057373046875,0.011327947489917278,-0.021620916202664375,0.028215834870934486
1783002563584109600,4.287109619140625,0.014100046828389168,-0.0251694954931736,0.011310486122965813
1783002563594161700,4.29716162109375,0.0179712176322937,-0.025243263691663742,-0.016667086631059647
1783002563604212700,4.307212646484375,0.01836642250418663,-0.024517862126231194,-0.04951511323451996
1783002563614264800,4.317264892578125,0.01705268584191799,-0.024598821997642517,-0.07377331703901291
1783002563624316700,4.327316650390625,0.010936861857771873,-0.023118149489164352,-0.08648312836885452
1783002563634368800,4.33736865234375,0.005704549606889486,-0.024019628763198853,-0.08525487780570984
1783002563644419600,4.347419677734375,0.011376533657312393,-0.017883965745568275,-0.05935175344347954
1783002563654471700,4.3574716796875,0.01569484919309616,-0.004698655568063259,-0.02639220654964447
1783002563664523500,4.3675234375,0.01465982012450695,0.0008278908208012581,-0.0027032671496272087
1783002563674575600,4.37757568359375,0.009685035794973373,0.0015634559094905853,0.0013223672285676003
1783002563684626700,4.387626708984375,0.007437140680849552,0.02668951079249382,0.0033212658017873764
1783002563694678500,4.397678466796875,0.012118712067604065,0.046278391033411026,0.011476398445665836
1783002563704730600,4.407730712890625,0.01145764347165823,0.03498510271310806,0.01342969760298729
1783002563714781700,4.41778173828125,0.011186533607542515,0.010283220559358597,0.00783759169280529
1783002563724833800,4.427833740234375,0.01334904320538044,-0.008571568876504898,-0.005533942021429539
1783002563734885600,4.4378857421875,0.005472743418067694,-0.012919178232550621,-0.019697964191436768
1783002563744937700,4.447937744140625,-0.003770694602280855,0.007346457336097956,-0.017277542501688004
1783002563754988500,4.457988525390625,-0.005441029090434313,0.003428148105740547,-0.014556323178112507
1783002563765040600,4.46804052734375,-0.004316460341215134,-0.01739570125937462,-0.013597862794995308
1783002563775092500,4.478092529296875,-0.008806017227470875,-0.028690965846180916,-0.012941659428179264
1783002563785144600,4.48814453125,-0.010854578576982021,-0.02888251654803753,-0.012589054182171822
1783002563795195600,4.498195556640625,-0.010389057919383049,0.00572712579742074,-0.013015426695346832
1783002563805247500,4.50824755859375,-0.006776177324354649,0.0443226620554924,-0.00492627639323473
1783002563815299800,4.5182998046875,-0.0047055697068572044,0.05526399239897728,0.00572477001696825
1783002563825350700,4.5283505859375,-0.007240402512252331,0.022421151399612427,0.0022881627082824707
1783002563835402800,4.53840283203125,-0.009799967519938946,-0.020683176815509796,-0.003454145509749651
1783002563845454600,4.54845458984375,-0.004206199198961258,-0.03896220400929451,-0.008578537032008171
1783002563855506700,4.558506591796875,-0.003123091533780098,-0.05051446706056595,-0.007542833220213652
1783002563865557800,4.568557861328125,-0.0019086902029812336,-0.05356458202004433,-0.00835696142166853
1783002563875609600,4.578609619140625,-0.0035284245386719704,-0.04656153544783592,-0.006684496533125639
1783002563885661700,4.58866162109375,-0.014308826066553593,-0.06026463583111763,-0.013963783159852028
1783002563895712500,4.59871240234375,-0.013232377357780933,-0.08185487985610962,-0.02022407576441765
1783002563905764600,4.6087646484375,-0.015960346907377243,-0.10366569459438324,-0.021445531398057938
1783002563915816400,4.61881640625,-0.01525567565113306,-0.12986667454242706,-0.033879298716783524
1783002563925868800,4.628868896484375,-0.01194240152835846,-0.140803262591362,-0.035518940538167953
1783002563935919900,4.638919921875,-0.013528047129511833,-0.1308789998292923,-0.033010244369506836
1783002563945971700,4.6489716796875,-0.0182235985994339,-0.1013796478509903,-0.01914835162460804
1783002563956023800,4.65902392578125,-0.020885959267616272,-0.06742008030414581,0.006696028634905815
1783002563966074600,4.66907470703125,-0.025285154581069946,-0.048050716519355774,0.0226855780929327
1783002563976126700,4.679126708984375,-0.02308511734008789,-0.033127427101135254,0.03470283001661301
1783002563986178600,4.689178466796875,-0.021732525900006294,-0.017862621694803238,0.044843610376119614
1783002563996230700,4.699230712890625,-0.017147362232208252,-0.003246395383030176,0.04788387566804886
1783002564006281700,4.70928173828125,-0.015608818270266056,-0.001405675197020173,0.03591622784733772
1783002564016333600,4.71933349609375,-0.008552771992981434,-0.012737158685922623,0.00725608691573143
1783002564026385700,4.7293857421875,-0.005020033568143845,-0.01604260504245758,-0.03042284958064556
1783002564036436500,4.7394365234375,0.0009132232517004013,-0.011641998775303364,-0.06374538689851761
1783002564046488800,4.74948876953125,0.007386821322143078,-0.0027961269952356815,-0.07810794562101364
1783002564056540700,4.759540771484375,0.0014386512339115143,-0.019167643040418625,-0.06728379428386688
1783002564066592800,4.7695927734375,-0.00010868022218346596,-0.03976180776953697,-0.03423216938972473
1783002564076643600,4.7796435546875,0.004408840090036392,-0.03385678306221962,-0.012286122888326645
1783002564086696000,4.789696044921875,0.007036369293928146,-0.02346612513065338,0.011826136149466038
1783002564096747800,4.799747802734375,0.001886615063995123,-0.014438275247812271,0.02378612384200096
1783002564106799900,4.8097998046875,0.0017835907638072968,-0.005209638737142086,0.01087605394423008
1783002564116851000,4.819850830078125,0.002823022659868002,0.005947408266365528,-0.015646101906895638
1783002564126902800,4.82990283203125,-0.007786293514072895,0.01876150444149971,-0.04550519585609436
1783002564136955000,4.839954833984375,-0.009941589087247849,0.02218286693096161,-0.07099058479070663
1783002564147005700,4.850005615234375,-0.008076414465904236,0.04336213693022728,-0.08010537922382355
1783002564157057800,4.860057861328125,-0.01179871428757906,0.04891163110733032,-0.06273570656776428
1783002564167110000,4.87010986328125,-0.022640101611614227,0.02502189576625824,-0.03531487286090851
1783002564177161000,4.880160888671875,-0.036180946975946426,0.011807022616267204,-0.006848877761512995
1783002564187213000,4.890213134765625,-0.047319572418928146,-0.013489026576280594,0.024547789245843887
1783002564197265000,4.900264892578125,-0.049838125705718994,-0.0233368631452322,0.04856124892830849
1783002564207317000,4.91031689453125,-0.03789205849170685,-0.009999372996389866,0.06501279771327972
1783002564217367800,4.920367919921875,-0.024671325460076332,0.025727732107043266,0.06680723279714584
1783002564227420000,4.930419921875,-0.018792079761624336,0.07607455551624298,0.059123944491147995
1783002564237471700,4.9404716796875,-0.009878212586045265,0.10886472463607788,0.044922906905412674
1783002564247523800,4.95052392578125,-0.000021165236830711365,0.12898457050323486,0.029651805758476257
1783002564257575000,4.960574951171875,0.0028356078546494246,0.13722039759159088,0.02870877832174301
1783002564267626800,4.970626708984375,-0.0028934492729604244,0.14064139127731323,0.0225785281509161
1783002564277678800,4.980678955078125,0.0024251495487987995,0.11656775325536728,0.016843676567077637
1783002564287730000,4.99072998046875,0.006645943969488144,0.0917818620800972,0.0046914611011743546
1783002564297782000,5.000781982421875,0.006367643363773823,0.07142385840415955,-0.008205695077776909
1783002564307833900,5.010833740234375,0.007516602985560894,0.03884933143854141,-0.027321400120854378
1783002564317886000,5.020885986328125,0.01546986773610115,0.019018903374671936,-0.046371523290872574
1783002564327936800,5.030936767578125,0.018880967050790787,0.017607081681489944,-0.066435307264328
1783002564337988900,5.04098876953125,0.01463162899017334,0.03718078136444092,-0.07254273444414139
1783002564348040700,5.051040771484375,0.01064576581120491,0.043031491339206696,-0.08118836581707001
1783002564358091800,5.061091796875,0.009072902612388134,0.050500061362981796,-0.08610695600509644
1783002564368144000,5.071143798828125,0.004529207479208708,0.0871012881398201,-0.06780403852462769
1783002564378195700,5.08119580078125,-0.0045023709535598755,0.11861394345760345,-0.03608739376068115
1783002564388248000,5.091248046875,-0.007774374447762966,0.1308586299419403,-0.005342126823961735
1783002564398298600,5.101298583984375,-0.012015724554657936,0.12722128629684448,0.012149248272180557
1783002564408351000,5.11135107421875,-0.012295284308493137,0.12647204101085663,0.035857103765010834
1783002564418402800,5.12140283203125,0.001008536433801055,0.1305682510137558,0.05087333917617798
1783002564428454000,5.131453857421875,0.006073766853660345,0.11957997828722,0.05351373553276062
1783002564438506000,5.141506103515625,0.016493383795022964,0.09923822432756424,0.04285789281129837
1783002564448557800,5.151557861328125,0.024149268865585327,0.08501748740673065,0.032568834722042084
1783002564458610000,5.16160986328125,0.02796824276447296,0.08161556720733643,0.015251096338033676
1783002564468660700,5.17166064453125,0.029594121500849724,0.0669451355934143,0.0009487885981798172
1783002564478712800,5.181712890625,0.030069496482610703,0.05390044301748276,0.015248099341988564
1783002564488764700,5.1917646484375,0.030864045023918152,0.029625732451677322,0.04019693285226822
1783002564498817000,5.201817138671875,0.03540686517953873,0.0026345946826040745,0.059550389647483826
1783002564508867800,5.211867919921875,0.03631675988435745,-0.026187609881162643,0.07482827454805374
1783002564518920000,5.221919921875,0.04092589393258095,-0.03495553508400917,0.07987044006586075
1783002564528972000,5.231971923828125,0.04208643361926079,-0.03551784157752991,0.0722995400428772
1783002564539022800,5.24202294921875,0.038345225155353546,-0.0253584124147892,0.05889398232102394
1783002564549075000,5.252074951171875,0.03781101852655411,-0.01710807904601097,0.03971249610185623
1783002564559126800,5.262126708984375,0.04400845989584923,0.001313537359237671,0.026086965575814247
1783002564569177900,5.272177734375,0.04572761431336403,0.01417604275047779,0.019142504781484604
1783002564579230000,5.28222998046875,0.03322407230734825,-0.004196838941425085,0.007654426619410515
1783002564589281800,5.29228173828125,0.016939925029873848,-0.017658192664384842,-0.0009761457331478596
1783002564599334000,5.302333984375,0.014804337173700333,-0.010867930948734283,-0.004546646028757095
1783002564609384700,5.312384765625,0.012444905936717987,-0.00794035755097866,-0.00953181367367506
1783002564619436800,5.322436767578125,0.00644640251994133,-0.011869585141539574,-0.003687772899866104
1783002564629489000,5.332489013671875,0.006252641323953867,-0.012408962473273277,0.0010660337284207344
1783002564639541000,5.342541015625,0.01446689572185278,-0.0006335293874144554,0.0035931067541241646
1783002564649591800,5.352591796875,0.01161877904087305,-0.007043488323688507,0.019979873672127724
1783002564659644000,5.362643798828125,0.009740451350808144,-0.027742108330130577,0.020958852022886276
1783002564669695700,5.37269580078125,0.014321642927825451,-0.03683028742671013,0.026011066511273384
1783002564679746800,5.382746826171875,0.017671367153525352,-0.040044188499450684,0.019691120833158493
1783002564689799000,5.392798828125,0.021173669025301933,-0.017986949533224106,0.02320389822125435
1783002564699850800,5.402850830078125,0.010592663660645485,-0.011981789022684097,0.026378117501735687
1783002564709901800,5.41290185546875,0.008689279668033123,-0.018959928303956985,0.02415337972342968
1783002564719953700,5.42295361328125,0.01116815023124218,-0.00921036209911108,0.02837555669248104
1783002564730005800,5.433005859375,0.011000723578035831,0.005719022359699011,0.040361374616622925
1783002564740057900,5.443057861328125,0.0032314839772880077,0.0064375433139503,0.03673601523041725
1783002564750109000,5.45310888671875,0.004883688408881426,0.020787861198186874,0.020929954946041107
1783002564760161000,5.4631611328125,0.006010205484926701,0.029997605830430984,-0.00006907060742378235
1783002564770212900,5.473212890625,0.0042197261936962605,0.028441311791539192,-0.01099235750734806
1783002564780265000,5.483264892578125,0.004531049635261297,0.016980929300189018,-0.016746915876865387
1783002564790315800,5.493315673828125,0.009501976892352104,-0.000617732759565115,-0.00476828683167696
1783002564800367900,5.503367919921875,0.010043663904070854,-0.014421429485082626,0.027796048671007156
1783002564810419700,5.513419677734375,0.006060442887246609,-0.04347289353609085,0.04842623323202133
1783002564820470800,5.523470703125,0.010141737759113312,-0.07322173565626144,0.04233051836490631
1783002564830523000,5.53352294921875,0.014376341365277767,-0.0810418650507927,0.013470703735947609
1783002564840574700,5.54357470703125,0.019636616110801697,-0.06012832373380661,-0.022788500413298607
1783002564850627000,5.553626953125,0.01521393097937107,-0.025219440460205078,-0.037274498492479324
1783002564860678000,5.563677978515625,0.007548288442194462,0.002301400061696768,-0.04592311382293701
1783002564870730000,5.57372998046875,0.0036051254719495773,0.017970895394682884,-0.03115062415599823
1783002564880781800,5.58378173828125,0.0033372114412486553,0.02937321923673153,-0.007102813106030226
1783002564890833000,5.5938330078125,0.006187107879668474,0.021327834576368332,0.01539843250066042
1783002564900885000,5.603885009765625,0.01104684453457594,0.021605871617794037,0.025172501802444458
1783002564910936800,5.613936767578125,0.013038840144872665,0.039157141000032425,0.018997764214873314
1783002564920988700,5.62398876953125,0.013175195083022118,0.07463976740837097,0.014768397435545921
1783002564931039700,5.634039794921875,0.007322204299271107,0.09693509340286255,0.007379722781479359
1783002564941091800,5.644091796875,0.0021399594843387604,0.07472512871026993,-0.002980240620672703
1783002564951143700,5.654143798828125,-0.0022628908045589924,0.0403003916144371,-0.020280200988054276
1783002564961194800,5.66419482421875,-0.0009470228105783463,0.024362172931432724,-0.034837037324905396
1783002564971246800,5.674246826171875,-0.0011203265748918056,-0.0036639822646975517,-0.03015533648431301
1783002564981299000,5.684298828125,-0.007347063161432743,-0.03414572402834892,-0.015682388097047806
1783002564991350800,5.694350830078125,-0.0178992860019207,-0.037880413234233856,-0.01114629115909338
1783002565001401900,5.70440185546875,-0.005477238446474075,-0.046612389385700226,-0.016574613749980927
1783002565011454000,5.714453857421875,0.0003947122022509575,-0.05570555478334427,-0.02580273151397705
1783002565021505800,5.724505859375,0.019609685987234116,0.00354498578235507,-0.0023208418861031532
1783002565031556900,5.734556884765625,0.033174820244312286,0.13617131114006042,0.045521579682826996
1783002565041608700,5.744608642578125,-0.13020291924476624,0.3813861310482025,0.6484711170196533
1783002565051660800,5.754660888671875,-0.18340888619422913,0.14307934045791626,0.7585505247116089
1783002565061712600,5.764712646484375,-0.08803468197584152,-0.021531186997890472,0.4308549463748932
1783002565071763700,5.774763671875,0.011726399883627892,-0.08520975708961487,-0.020148372277617455
1783002565081814800,5.784814697265625,0.031053490936756134,-0.178389772772789,-0.30993011593818665
1783002565091867000,5.794866943359375,0.034880295395851135,-0.11506791412830353,-0.46680548787117004
1783002565101917700,5.804917724609375,0.08977150917053223,-0.07116544246673584,-0.6078997254371643
1783002565111970000,5.814969970703125,0.12166707962751389,-0.08422641456127167,-0.68600994348526
1783002565122022000,5.82502197265625,0.09959639608860016,-0.0325954407453537,-0.5780946612358093
1783002565132073000,5.835072998046875,0.06564643234014511,0.10610127449035645,-0.2769962251186371
1783002565142124800,5.845124755859375,0.027810636907815933,0.1831054985523224,0.038275185972452164
