time,seconds_elapsed,z,y,x
1783002559363640800,0.066640869140625,0.057071276009082794,0.008387626148760319,-0.08990325778722763
1783002559373693000,0.07669287109375,0.039384424686431885,-0.02539696916937828,-0.010967429727315903
1783002559383745000,0.0867451171875,0.016208531334996223,-0.04638267681002617,0.053944192826747894
1783002559393796900,0.096796875,-0.010005496442317963,-0.032514799386262894,0.10206858068704605
1783002559403848000,0.106847900390625,-0.03339311107993126,-0.03322559595108032,0.11056379228830338
1783002559413899800,0.116899658203125,-0.040219057351350784,-0.040829189121723175,0.08765954524278641
1783002559423952000,0.126951904296875,-0.030724089592695236,-0.010756773874163628,0.06856174767017365
1783002559434003000,0.1370029296875,-0.021163608878850937,0.03540033474564552,0.06175125017762184
1783002559444054800,0.1470546875,-0.012207663618028164,0.06419576704502106,0.04879843071103096
1783002559454107000,0.15710693359375,-0.006730074528604746,0.04084623232483864,0.03801848739385605
1783002559464159000,0.167158935546875,-0.008305334486067295,-0.004059189930558205,-0.0028493159916251898
1783002559474209800,0.177209716796875,0.009240902960300446,-0.0518469512462616,-0.04327130690217018
1783002559484262000,0.187261962890625,0.005791310220956802,-0.05609096586704254,-0.042326416820287704
1783002559494314000,0.19731396484375,-0.003111903788521886,-0.030725155025720596,-0.027593543753027916
1783002559504365800,0.20736572265625,0.004858138505369425,-0.006301837973296642,-0.010843059979379177
1783002559514417000,0.2174169921875,0.0154340835288167,0.016221847385168076,0.0180535688996315
1783002559524469000,0.227468994140625,0.02472931519150734,0.038481611758470535,0.047266848385334015
1783002559534520800,0.237520751953125,0.028768265619874,0.05847316235303879,0.0771014392375946
1783002559544572000,0.247572021484375,0.028180239722132683,0.06654706597328186,0.10073593258857727
1783002559554623700,0.257623779296875,0.026079803705215454,0.05778074264526367,0.11262907832860947
1783002559564675800,0.26767578125,0.01395576260983944,-0.001955026527866721,0.09903524070978165
1783002559574728000,0.27772802734375,-0.0029494508635252714,-0.06447326391935349,0.09721789509057999
1783002559584778800,0.28777880859375,-0.01774490810930729,-0.09363195300102234,0.08822653442621231
1783002559594831000,0.2978310546875,-0.01943095587193966,-0.07770784199237823,0.0646279975771904
1783002559604883000,0.307883056640625,-0.02153218910098076,-0.0448383130133152,0.01763305626809597
1783002559614935000,0.31793505859375,-0.020710337907075882,-0.02334021031856537,-0.0327795185148716
1783002559624985900,0.32798583984375,-0.01889273151755333,-0.004177700728178024,-0.06701552122831345
1783002559635038000,0.338037841796875,-0.014681740663945675,0.052322592586278915,-0.061892397701740265
1783002559645089800,0.34808984375,-0.015852466225624084,0.09730950742959976,-0.032772328704595566
1783002559655140900,0.358140869140625,-0.012989302165806293,0.07406943291425705,-0.014845258556306362
1783002559665193000,0.36819287109375,-0.0032703618053346872,-0.017658889293670654,-0.017677264288067818
1783002559675244800,0.378244873046875,0.006741259712725878,-0.07447876036167145,-0.003020024625584483
1783002559685297000,0.388296875,0.002532133599743247,-0.07280603051185608,0.03165433183312416
1783002559695347700,0.39834765625,-0.009600695222616196,-0.04410967230796814,0.04063184931874275
1783002559705400000,0.408400146484375,-0.006422479171305895,-0.020383035764098167,0.004461593925952911
1783002559715452000,0.418451904296875,-0.0007488809060305357,-0.017237043008208275,-0.03009105660021305
1783002559725504000,0.42850390625,-0.0011523497523739934,0.023232351988554,-0.024119984358549118
1783002559735554800,0.438554931640625,-0.018440525978803635,0.0599173940718174,0.02232048474252224
1783002559745607000,0.44860693359375,-0.021312478929758072,0.04252828657627106,0.0724204033613205
1783002559755658800,0.45865869140625,-0.01902402564883232,-0.013277988880872726,0.07100094109773636
1783002559765709800,0.468709716796875,-0.010801514610648155,-0.06537368148565292,0.04077912122011185
1783002559775762000,0.478761962890625,-0.0060080913826823235,-0.05474952980875969,0.03750236704945564
1783002559785813800,0.488813720703125,-0.010667824186384678,-0.006982808467000723,0.04560317099094391
1783002559795866000,0.4988662109375,-0.011381817981600761,0.01025743130594492,0.04885196313261986
1783002559805916700,0.508916748046875,-0.012041216716170311,0.02195776253938675,0.03995806723833084
1783002559815969000,0.518968994140625,-0.010582869872450829,0.043542418628931046,0.03284050524234772
1783002559826020900,0.529020751953125,-0.013043363578617573,0.02955229952931404,0.01883920095860958
1783002559836073000,0.539072998046875,-0.0027838023379445076,-0.010812966153025627,0.002388855442404747
1783002559846124000,0.5491240234375,0.006691991351544857,-0.03916870802640915,0.009705890901386738
1783002559856175900,0.55917578125,0.002928145695477724,-0.03936498239636421,0.04521115496754646
1783002559866228000,0.56922802734375,-0.004550276789814234,-0.04463031888008118,0.07859254628419876
1783002559876279800,0.57927978515625,-0.007714645005762577,-0.06921368837356567,0.09517259150743484
1783002559886331000,0.589330810546875,-0.011384480632841587,-0.09988744556903839,0.08638016134500504
1783002559896382700,0.5993828125,-0.01549507025629282,-0.1231008917093277,0.0452905148267746
1783002559906435000,0.60943505859375,-0.019347332417964935,-0.1131712943315506,0.00848536379635334
1783002559916486000,0.61948583984375,-0.024704547598958015,-0.0607866495847702,-0.0023092268966138363
1783002559926538000,0.6295380859375,-0.03659023344516754,-0.02231915481388569,0.005988916382193565
1783002559936590000,0.639590087890625,-0.050147853791713715,-0.027529096230864525,0.01239408552646637
1783002559946642000,0.649641845703125,-0.05470878630876541,-0.05582518130540848,0.010832940228283405
1783002559956693000,0.65969287109375,-0.06263275444507599,-0.07886498421430588,-0.002754773711785674
1783002559966744800,0.669744873046875,-0.07634803652763367,-0.10940025746822357,-0.016319850459694862
1783002559976797000,0.679796875,-0.08536522835493088,-0.14043781161308289,-0.04753396287560463
1783002559986848000,0.689847900390625,-0.08507228642702103,-0.1761356145143509,-0.08508453518152237
1783002559996899800,0.69989990234375,-0.07635735720396042,-0.16271062195301056,-0.08969313651323318
1783002560006952000,0.709951904296875,-0.07726415991783142,-0.10384224355220795,-0.06233900785446167
1783002560017004000,0.720004150390625,-0.06719368696212769,-0.046975232660770416,-0.02557726576924324
1783002560027054800,0.730054931640625,-0.046014897525310516,-0.009897904470562935,0.004792358260601759
1783002560037107000,0.74010693359375,-0.027766650542616844,0.02160010114312172,0.027525633573532104
1783002560047159000,0.750158935546875,-0.01727992109954357,0.04066753387451172,0.024393755942583084
1783002560057211000,0.7602109375,-0.004254932515323162,0.047757137566804886,0.012623650021851063
1783002560067262000,0.770261962890625,-0.002630404196679592,-0.002186721656471491,0.0032796829473227262
1783002560077313500,0.7803134765625,-0.008599347434937954,-0.047620780766010284,-0.005123921670019627
1783002560087366000,0.790365966796875,-0.00899855513125658,-0.06757424771785736,-0.012432967312633991
1783002560097417700,0.800417724609375,-0.0073196981102228165,-0.053944457322359085,-0.021952969953417778
1783002560107468800,0.81046875,0.0006708502769470215,-0.0220887903124094,-0.025857163593173027
1783002560117521000,0.82052099609375,0.015338742174208164,-0.004764128942042589,-0.01571265049278736
1783002560127572700,0.83057275390625,0.02527686022222042,-0.013784787617623806,0.003945473115891218
1783002560137623800,0.840623779296875,0.03419658541679382,-0.0009811085183173418,0.027340544387698174
1783002560147675600,0.850675537109375,0.031022364273667336,0.012023906223475933,0.03929680585861206
1783002560157727700,0.860727783203125,0.027569308876991272,0.02118704468011856,0.037644315510988235
1783002560167779600,0.870779541015625,0.023629695177078247,0.009669139049947262,0.030426083132624626
1783002560177830700,0.88083056640625,0.014021809212863445,-0.039085615426301956,0.010221478529274464
1783002560187882800,0.8908828125,0.007906658574938774,-0.08281871676445007,-0.012692359276115894
1783002560197934800,0.900934814453125,0.008171376772224903,-0.09110380709171295,-0.04464816302061081
1783002560207986000,0.91098583984375,0.01101749762892723,-0.04840295389294624,-0.0682685375213623
1783002560218037800,0.921037841796875,0.0021907163318246603,0.027237214148044586,-0.06626823544502258
1783002560228089900,0.93108984375,0.003877029987052083,0.0677231177687645,-0.03977697342634201
1783002560238141700,0.9411416015625,0.013454556465148926,0.0673779770731926,-0.021759890019893646
1783002560248192800,0.95119287109375,0.017375262454152107,0.052676793187856674,-0.0005850964807905257
1783002560258244900,0.961244873046875,0.008873119950294495,0.02154124528169632,0.013864150270819664
1783002560268296700,0.971296630859375,-0.0009680590592324734,-0.024591362103819847,0.028240958228707314
1783002560278348800,0.981348876953125,-0.005221127066761255,-0.04115089774131775,0.02847105637192726
1783002560288399600,0.991399658203125,0.0007752461824566126,-0.04176156222820282,0.01284655649214983
1783002560298451700,1.00145166015625,0.0025965820532292128,-0.025196965783834457,-0.005655488930642605
1783002560308503800,1.01150390625,0.0065284729935228825,0.006284527480602264,-0.014426076784729958
1783002560318555000,1.021554931640625,0.003442401997745037,0.0612468458712101,-0.016923056915402412
1783002560328606700,1.031606689453125,-0.0011853729374706745,0.0890854001045227,-0.021391840651631355
1783002560338658800,1.041658935546875,-0.0009355684742331505,0.09039594233036041,-0.02215110883116722
1783002560348710700,1.051710693359375,0.0033997914288192987,0.07173623889684677,-0.018804579973220825
1783002560358761700,1.06176171875,0.0027305390685796738,0.03665974363684654,-0.018336396664381027
1783002560368813800,1.071813720703125,-0.005566272884607315,-0.02473970130085945,-0.020864002406597137
1783002560378865700,1.08186572265625,-0.012144280597567558,-0.07335437834262848,0.001044491771608591
1783002560388917800,1.091917724609375,-0.015909723937511444,-0.06661844253540039,0.019090604037046432
1783002560398968600,1.101968505859375,-0.014362427406013012,-0.03212091699242592,0.021290374919772148
1783002560409020700,1.112020751953125,-0.012389292009174824,0.003212304785847664,-0.002715891692787409
1783002560419072800,1.12207275390625,-0.009267534129321575,0.03321787342429161,-0.029394373297691345
1783002560429123800,1.132123779296875,-0.007641141768544912,0.07338686287403107,-0.025239309296011925
1783002560439176000,1.142176025390625,-0.005373726598918438,0.10310880839824677,-0.004337224178016186
1783002560449227800,1.152227783203125,-0.003772101365029812,0.07887563854455948,0.019712451845407486
1783002560459280000,1.16227978515625,-0.00307568465359509,0.0364067442715168,0.037935130298137665
1783002560469330700,1.17233056640625,0.0008966863388195634,-0.00785525981336832,0.03335129842162132
1783002560479382800,1.1823828125,-0.0013017531018704176,-0.027122963219881058,0.02418256737291813
1783002560489434600,1.1924345703125,-0.001511876587755978,0.004180363845080137,0.004954544827342033
1783002560499486700,1.20248681640625,-0.0030485205352306366,0.04313788190484047,-0.012734171003103256
1783002560509537800,1.212537841796875,0.003409911412745714,0.04458264634013176,-0.024511201307177544
1783002560519589600,1.222589599609375,0.007636880502104759,0.04008909687399864,-0.026860110461711884
1783002560529642000,1.23264208984375,0.012661200016736984,0.04554617777466774,-0.028178375214338303
1783002560539692800,1.24269287109375,0.014612232334911823,0.06272010505199432,-0.04499863460659981
1783002560549745000,1.252744873046875,0.009323992766439915,0.06915030628442764,-0.06669194251298904
1783002560559796700,1.262796630859375,-0.0005542038124985993,0.048834651708602905,-0.0846395194530487
1783002560569848800,1.272848876953125,-0.006110356654971838,0.028370920568704605,-0.07768946886062622
1783002560579900000,1.28289990234375,-0.014708371832966805,0.03952503949403763,-0.06064177677035332
1783002560589951700,1.29295166015625,-0.02076839469373226,0.04616163671016693,-0.0526467002928257
1783002560600003800,1.30300390625,-0.021396901458501816,0.04916461557149887,-0.04219645634293556
1783002560610055700,1.3130556640625,-0.025363946333527565,0.060501426458358765,-0.03188655897974968
1783002560620106800,1.323106689453125,-0.022429941222071648,0.07656960934400558,-0.020907944068312645
1783002560630158600,1.33315869140625,-0.019602462649345398,0.07136206328868866,-0.0049007488414645195
1783002560640211000,1.3432109375,-0.011504323221743107,0.0416497103869915,0.004056260455399752
1783002560650262800,1.3532626953125,-0.005796103738248348,0.001219461439177394,0.014855378307402134
1783002560660313900,1.36331396484375,-0.00755006168037653,-0.036497823894023895,0.031923845410346985
1783002560670365700,1.37336572265625,-0.012142948806285858,-0.04062199592590332,0.053403835743665695
1783002560680417800,1.383417724609375,-0.013903032056987286,-0.036861877888441086,0.049977947026491165
1783002560690468900,1.39346875,-0.018808841705322266,-0.005345230456441641,0.023015303537249565
1783002560700520700,1.403520751953125,-0.02462119050323963,0.0032325449865311384,-0.005239502992480993
1783002560710572800,1.41357275390625,-0.014012754894793034,0.03825124725699425,-0.018941467627882957
1783002560720624600,1.423624755859375,-0.018871426582336426,0.06292623281478882,-0.019523367285728455
1783002560730675700,1.43367578125,-0.02039794996380806,0.050571564584970474,-0.033609624952077866
1783002560740727600,1.4437275390625,-0.016113989055156708,0.0032812808640301228,-0.05420864373445511
1783002560750780000,1.45377978515625,-0.01792706921696663,-0.04470488801598549,-0.06733616441488266
1783002560760831700,1.463831787109375,-0.02130901627242565,-0.05461584031581879,-0.06787678599357605
1783002560770882800,1.4738828125,-0.02148691564798355,-0.036791834980249405,-0.07485346496105194
1783002560780935000,1.483934814453125,-0.02040913514792919,-0.016022909432649612,-0.07571286708116531
1783002560790986800,1.49398681640625,-0.011816445738077164,-0.005144428461790085,-0.05849074199795723
1783002560801037800,1.504037841796875,-0.0029230855870991945,0.016638364642858505,-0.024466460570693016
1783002560811089700,1.514089599609375,-0.004062119405716658,0.03638783469796181,0.009079781360924244
1783002560821141800,1.524141845703125,-0.00603339122608304,0.034382741898298264,0.014771755784749985
1783002560831193600,1.534193603515625,-0.003623763332143426,0.012341887690126896,-0.01139832939952612
1783002560841244700,1.54424462890625,-0.0031457259319722652,-0.006849916651844978,-0.04081374406814575
1783002560851296800,1.554296875,-0.010913900099694729,-0.014756575226783752,-0.05542704090476036
1783002560861348900,1.564348876953125,-0.018562499433755875,-0.016757141798734665,-0.04694806784391403
1783002560871401000,1.57440087890625,-0.01732945628464222,-0.003403519745916128,-0.02147466503083706
1783002560881451800,1.58445166015625,-0.015931295230984688,0.0076147764921188354,-0.004205930046737194
1783002560891503900,1.59450390625,-0.010323211550712585,0.017480190843343735,-0.006600112188607454
1783002560901555700,1.6045556640625,-0.004787032026797533,0.027705930173397064,-0.011152519844472408
1783002560911606800,1.614606689453125,-0.0034818167332559824,0.03338325768709183,-0.01589001715183258
1783002560921659000,1.624658935546875,0.0012040151050314307,0.025055818259716034,-0.018438927829265594
1783002560931710700,1.634710693359375,0.00007430219557136297,-0.002017610939219594,-0.029696643352508545
1783002560941762600,1.644762451171875,-0.0031497206073254347,-0.03476729989051819,-0.03569221869111061
1783002560951813600,1.654813720703125,-0.009526926092803478,-0.0700022503733635,-0.015530223958194256
1783002560961865700,1.66486572265625,-0.015429556369781494,-0.06358510255813599,0.012193283066153526
1783002560971917800,1.674917724609375,-0.01137116551399231,-0.025829998776316643,0.030553115531802177
1783002560981970000,1.684969970703125,-0.01152749266475439,0.013437777757644653,0.03977670893073082
1783002560992020700,1.695020751953125,-0.010999388061463833,0.03261014074087143,0.024649687111377716
1783002561002072800,1.70507275390625,-0.003566771512851119,0.04297356680035591,-0.007417968939989805
1783002561012124700,1.715124755859375,-0.0002801645314320922,0.05151325836777687,-0.03363039717078209
1783002561022175700,1.72517578125,0.001290834159590304,0.0374259352684021,-0.048344362527132034
1783002561032227800,1.735227783203125,-0.001145425601862371,-0.005411543417721987,-0.05175454169511795
1783002561042279700,1.74527978515625,-0.0013811152894049883,-0.045396510511636734,-0.03832022473216057
1783002561052331800,1.755331787109375,-0.003953196108341217,-0.06049690023064613,-0.0065263425931334496
1783002561062382600,1.765382568359375,-0.007471764925867319,-0.04342843219637871,0.018375013023614883
1783002561072434700,1.7754345703125,-0.004911401774734259,-0.02161022089421749,0.02576235495507717
1783002561082487600,1.785487548828125,-0.003934021573513746,-0.0011677960865199566,0.01834332011640072
1783002561092539600,1.79553955078125,-0.0005291700945235789,0.006003564223647118,-0.012010323815047741
1783002561102590500,1.805590576171875,0.013510748744010925,0.017251424491405487,-0.03454599156975746
1783002561112642600,1.815642578125,0.008314388804137707,0.03502003476023674,-0.03611938655376434
1783002561122694400,1.8256943359375,0.006537261418998241,0.02660098485648632,-0.025008413940668106
1783002561132745500,1.835745361328125,0.005179582163691521,-0.0129323098808527,-0.01555099617689848
1783002561142797800,1.8457978515625,-0.001079645473510027,-0.04583113640546799,0.006057892460376024
1783002561152849700,1.855849609375,-0.010296046733856201,-0.04132426902651787,0.022877352312207222
1783002561162901800,1.86590185546875,-0.007302387617528439,-0.013257215730845928,0.028594359755516052
1783002561172952600,1.87595263671875,-0.00392683083191514,0.009461145848035812,0.014282000251114368
1783002561183004700,1.886004638671875,-0.0016772588714957237,0.012051336467266083,-0.002019474981352687
1783002561193056500,1.896056396484375,-0.007703726179897785,0.011090467683970928,-0.01450011320412159
1783002561203108600,1.906108642578125,-0.011247328482568264,-0.04189125820994377,-0.020000074058771133
1783002561213159700,1.91615966796875,-0.013131514191627502,-0.09846212714910507,-0.0018764632986858487
1783002561223211500,1.92621142578125,-0.013005014508962631,-0.15281245112419128,0.03669196739792824
1783002561233263600,1.936263671875,-0.022765766829252243,-0.1928136646747589,0.07891105860471725
1783002561243314400,1.946314453125,-0.03828054293990135,-0.2413274049758911,0.09440186619758606
1783002561253366800,1.95636669921875,-0.05904627591371536,-0.2792564034461975,0.08666565269231796
1783002561263418600,1.966418701171875,-0.0783454030752182,-0.25295981764793396,0.07505559921264648
1783002561273470700,1.976470703125,-0.08045835793018341,-0.19625580310821533,0.05536312237381935
1783002561283521500,1.986521484375,-0.09252647310495377,-0.14345650374889374,0.02893790788948536
1783002561293573600,1.99657373046875,-0.09772282838821411,-0.08837620168924332,-0.003980893176048994
1783002561303625500,2.00662548828125,-0.07682500779628754,-0.03839053213596344,-0.0420483835041523
1783002561313677600,2.016677490234375,-0.04097379744052887,-0.01107741892337799,-0.07839387655258179
1783002561323728600,2.026728759765625,-0.025435052812099457,-0.01671905815601349,-0.10416315495967865
1783002561333780500,2.036780517578125,-0.006736732088029385,-0.021092768758535385,-0.11512978374958038
1783002561343832600,2.04683251953125,0.0003222425002604723,-0.020008062943816185,-0.10503986477851868
1783002561353884700,2.056884765625,-0.010361826978623867,-0.024518392980098724,-0.08060482889413834
1783002561363935700,2.066935791015625,-0.023315176367759705,-0.024572720751166344,-0.046184007078409195
1783002561373987600,2.076987548828125,-0.02153964713215828,-0.034807514399290085,-0.023687485605478287
1783002561384039700,2.087039794921875,-0.007760717533528805,-0.021527130156755447,-0.000261788722127676
1783002561394090800,2.0970908203125,0.007604656275361776,0.008142082020640373,0.031572841107845306
1783002561404142600,2.107142578125,0.012590359896421432,0.04133465513586998,0.04274000599980354
1783002561414194700,2.117194580078125,0.01643090508878231,0.05173563212156296,0.03791835531592369
1783002561424246500,2.12724658203125,0.010661698877811432,0.04418157413601875,0.01738724671304226
1783002561434297600,2.137297607421875,0.006582268979400396,0.026463298127055168,-0.0009624664089642465
1783002561444349400,2.147349365234375,0.01061988715082407,-0.011292335577309132,-0.02015453577041626
1783002561454401500,2.157401611328125,0.0013353090034797788,-0.03315022960305214,-0.024870196357369423
1783002561464453600,2.16745361328125,0.0015068164793774486,-0.03404025733470917,-0.022211829200387
1783002561474504700,2.177504638671875,0.0036735644098371267,-0.004405933897942305,-0.003340402850881219
1783002561484556800,2.187556884765625,-0.0005874933558516204,0.037466149777173996,0.02666516602039337
1783002561494608600,2.197608642578125,0.005139634478837252,0.050583016127347946,0.05036170780658722
1783002561504659700,2.20765966796875,0.011442537419497967,0.042256910353899,0.05048074945807457
1783002561514711600,2.217711669921875,0.016056997701525688,0.034928955137729645,0.05059872940182686
1783002561524763600,2.227763671875,0.017617609351873398,0.047985635697841644,0.04422152414917946
1783002561534815500,2.2378154296875,0.018012821674346924,0.05535060539841652,0.030883347615599632
1783002561544866600,2.247866455078125,0.008190551772713661,0.027157051488757133,0.02094629406929016
1783002561554918400,2.25791845703125,0.00695085059851408,0.011834821663796902,0.011781824752688408
1783002561564970500,2.267970458984375,0.003846936160698533,0.003756654914468527,0.007188138086348772
1783002561575022600,2.278022705078125,0.0030629015527665615,0.013658554293215275,0.009617473930120468
1783002561585073700,2.28807373046875,0.0026791400741785765,0.013047625310719013,0.00953917670994997
1783002561595125800,2.298125732421875,0.010943993926048279,0.019992882385849953,0.0046821036376059055
1783002561605177600,2.308177490234375,0.009791377931833267,0.05757647752761841,0.027042003348469734
1783002561615229700,2.318229736328125,0.0015795208746567369,0.0645422413945198,0.04356372356414795
1783002561625280500,2.328280517578125,0.01131257601082325,0.056222524493932724,0.041912030428647995
1783002561635332600,2.33833251953125,0.009044627659022808,0.028906749561429024,0.03182211145758629
1783002561645384400,2.348384521484375,-0.0010894992155954242,0.008014516904950142,0.019116969779133797
1783002561655435500,2.358435546875,-0.0032570459879934788,-0.007159109693020582,0.012377307750284672
1783002561665487600,2.368487548828125,-0.006621949840337038,-0.032286833971738815,0.005642971955239773
1783002561675539500,2.37853955078125,-0.004789428785443306,-0.037348438054323196,0.00008255799184553325
1783002561685591800,2.388591796875,-0.0054123420268297195,-0.005291434936225414,-0.0011028150329366326
1783002561695642600,2.398642578125,-0.004829642828553915,0.047205064445734024,0.01757260225713253
1783002561705694700,2.40869482421875,-0.006311425473541021,0.07372668385505676,0.041782598942518234
1783002561715746600,2.41874658203125,-0.0028509139083325863,0.06504131853580475,0.052135907113552094
1783002561725798700,2.428798583984375,-0.005035771057009697,0.057375673204660416,0.0671129897236824
1783002561735849700,2.438849609375,-0.004932706709951162,0.051112718880176544,0.07057030498981476
1783002561745901600,2.448901611328125,-0.006607036106288433,0.047691088169813156,0.05489547178149223
1783002561755953700,2.45895361328125,-0.0054357778280973434,0.02949291095137596,0.024234499782323837
1783002561766004500,2.46900439453125,-0.009110674262046814,-0.0189603753387928,-0.025727733969688416
1783002561776056600,2.479056640625,-0.008739962242543697,-0.03657505661249161,-0.06217655539512634
1783002561786108400,2.4891083984375,-0.006568952929228544,-0.023605726659297943,-0.07340044528245926
1783002561796160800,2.499160888671875,-0.008478972129523754,-0.00014913702034391463,-0.06597688794136047
1783002561806211600,2.509211669921875,-0.009615875780582428,0.007950068451464176,-0.041375137865543365
1783002561816263700,2.519263671875,-0.011844142340123653,0.011904329992830753,-0.007405451964586973
1783002561826315500,2.5293154296875,-0.005645102355629206,0.020830979570746422,0.02052258513867855
1783002561836367600,2.53936767578125,-0.002721750643104315,0.03797055035829544,0.04850228875875473
1783002561846418700,2.549418701171875,-0.003238936420530081,0.04547933489084244,0.05427948385477066
1783002561856470500,2.559470458984375,-0.005651494022458792,0.03145592659711838,0.040948498994112015
1783002561866522600,2.569522705078125,-0.003227751236408949,0.03293478116393089,0.013982128351926804
1783002561876573400,2.579573486328125,-0.010584733448922634,0.04148086532950401,0.0060328589752316475
1783002561886625500,2.58962548828125,-0.010147709399461746,0.04195570573210716,0.0068302094005048275
1783002561896677400,2.599677490234375,-0.008673649281263351,0.03459819033741951,0.018616294488310814
1783002561906729700,2.609729736328125,-0.009455286897718906,0.03232837840914726,0.01944240741431713
1783002561916780800,2.61978076171875,-0.008347411639988422,0.024236630648374557,0.018863435834646225
1783002561926832600,2.62983251953125,-0.0061535001732409,0.018730543553829193,0.014909973368048668
1783002561936884700,2.639884765625,-0.0012239888310432434,0.01227584108710289,0.010529340244829655
1783002561946936600,2.6499365234375,0.003841077210381627,-0.009616142138838768,0.005709284916520119
1783002561956987600,2.659987548828125,0.008585765026509762,-0.021577997133135796,-0.006070409435778856
1783002561967039500,2.67003955078125,0.012626579031348228,-0.02220623567700386,-0.012630041688680649
1783002561977091600,2.680091552734375,0.008101602084934711,-0.008843825198709965,-0.014818094670772552
1783002561987143400,2.690143310546875,0.005051483865827322,-0.002642654813826084,-0.00726536987349391
1783002561997194500,2.700194580078125,0.000835966260638088,0.009052617475390434,0.012444685213267803
1783002562007246600,2.71024658203125,-0.005154814571142197,0.021621406078338623,0.02600310556590557
1783002562017298700,2.720298583984375,-0.0006221143994480371,0.024471787735819817,0.027150927111506462
1783002562027349800,2.730349853515625,-0.0046791741624474525,0.030601318925619125,0.02985217049717903
1783002562037401600,2.740401611328125,-0.0038948729634284973,0.04111254960298538,0.032762475311756134
1783002562047453700,2.75045361328125,-0.0013366405619308352,0.05293778330087662,0.03316780552268028
1783002562057505500,2.760505615234375,0.007026750594377518,0.04210404306650162,0.02503105066716671
1783002562067556600,2.770556640625,0.015903066843748093,0.0385279506444931,0.016438094899058342
1783002562077608700,2.780608642578125,0.017901768907904625,0.024296285584568977,0.01782320626080036
1783002562087660800,2.790660888671875,0.01895238645374775,0.010173541493713856,0.02798529528081417
1783002562097713000,2.800712890625,0.022951388731598854,-0.009778594598174095,0.0472966767847538
1783002562107764000,2.810763916015625,0.018979016691446304,-0.016825851052999496,0.054191332310438156
1783002562117816000,2.820816162109375,0.03455318510532379,-0.014989868737757206,0.05446217581629753
1783002562127868000,2.830867919921875,0.043180759996175766,-0.009721070528030396,0.05646034702658653
1783002562137919000,2.8409189453125,0.048761945217847824,-0.005327653605490923,0.042040128260850906
1783002562147970800,2.850970703125,0.05367201566696167,0.0044293696992099285,0.02798795886337757
1783002562158023000,2.86102294921875,0.05848594754934311,0.0031041805632412434,0.018674084916710854
1783002562168074800,2.87107470703125,0.05940340459346771,-0.018068749457597733,0.008155930787324905
1783002562178125800,2.881125732421875,0.05031084269285202,-0.04851293936371803,0.011544004082679749
1783002562188178000,2.891177978515625,0.03900119662284851,-0.0623408704996109,0.01829911209642887
1783002562198229800,2.901229736328125,0.020781710743904114,-0.044803958386182785,0.020381437614560127
1783002562208282000,2.9112822265625,0.014031130820512772,-0.007115167565643787,0.016775785014033318
1783002562218333000,2.9213330078125,0.004491687286645174,0.027727767825126648,0.016392821446061134
1783002562228385000,2.931385009765625,0.00016112125013023615,0.036858681589365005,0.006563093978911638
1783002562238436900,2.941436767578125,-0.006347111891955137,0.03830850496888161,-0.00407463638111949
1783002562248488000,2.951488037109375,-0.009413741528987885,0.03575746342539787,-0.003632551757618785
1783002562258540000,2.9615400390625,-0.006340187508612871,0.0457238107919693,0.0033388049341738224
1783002562268591900,2.971591796875,-0.005790777504444122,0.04801013693213463,0.015182947739958763
1783002562278644000,2.98164404296875,-0.00686003640294075,0.03731807693839073,0.027689417824149132
1783002562288694800,2.99169482421875,-0.007736483123153448,0.023427028208971024,0.03158722072839737
1783002562298747000,3.001746826171875,-0.010949320159852505,0.013730459846556187,0.01780482940375805
1783002562308798700,3.011798828125,-0.005397961009293795,0.008686166256666183,0.008126369677484035
1783002562318851000,3.02185107421875,-0.0023007048293948174,0.011655590496957302,-0.0026937874499708414
1783002562328902000,3.03190185546875,-0.002645051572471857,0.016675915569067,-0.00782569870352745
1783002562338954000,3.0419541015625,-0.0027457191608846188,0.02618233487010002,-0.013184777460992336
1783002562349005800,3.052005859375,-0.0024583640042692423,0.02574797347187996,-0.008311193436384201
1783002562359057000,3.062056884765625,-0.0020602215081453323,0.032042089849710464,-0.0031004520133137703
1783002562369109000,3.07210888671875,-0.006041114684194326,0.023542078211903572,-0.0065079666674137115
1783002562379160800,3.082160888671875,-0.011203652247786522,0.012901417911052704,-0.011414041742682457
1783002562389213000,3.092212890625,-0.018202172592282295,0.015685219317674637,-0.00845500361174345
1783002562399263700,3.102263671875,-0.024816399440169334,0.013130183331668377,0.0001776328426785767
1783002562409315800,3.11231591796875,-0.02635331079363823,-0.005634449888020754,0.008874185383319855
1783002562419367700,3.12236767578125,-0.02316710352897644,-0.007786017842590809,0.013944577425718307
1783002562429420000,3.132419921875,-0.020140422508120537,-0.005415804218500853,0.016756076365709305
1783002562439471000,3.14247119140625,-0.01560905296355486,0.0038016624748706818,0.0073354109190404415
1783002562449523000,3.15252294921875,-0.01401754841208458,0.017650365829467773,-0.012682505883276463
1783002562459575000,3.162574951171875,-0.010278736241161823,0.04078924283385277,-0.027790619060397148
1783002562469625900,3.1726259765625,-0.0043920851312577724,0.045996520668268204,-0.03431110084056854
1783002562479678000,3.182677978515625,-0.007874168455600739,0.0452316589653492,-0.027575435116887093
1783002562489729800,3.192729736328125,-0.0070517840795218945,0.048282310366630554,-0.008904545567929745
1783002562499782000,3.202781982421875,-0.0046384274028241634,0.05047569051384926,0.00424135010689497
1783002562509833000,3.2128330078125,-0.0008831042214296758,0.04561116173863411,0.011259312741458416
1783002562519884800,3.222884765625,-0.002034122357144952,0.04252535477280617,0.03621606156229973
1783002562529937000,3.23293701171875,-0.0011669971281662583,0.052500493824481964,0.06406553834676743
1783002562539989000,3.242989013671875,0.0062488410621881485,0.0706653818488121,0.08166956156492233
1783002562550040000,3.2530400390625,0.005884254351258278,0.07843515276908875,0.09020739048719406
1783002562560092000,3.263091796875,0.008027033880352974,0.055140215903520584,0.0741029903292656
1783002562570144000,3.27314404296875,0.009734386578202248,0.04012105241417885,0.05537217855453491
1783002562580195800,3.28319580078125,0.00878869742155075,0.04861973226070404,0.050339870154857635
1783002562590247000,3.293246826171875,0.0010183927370235324,0.056347429752349854,0.062177885323762894
1783002562600299000,3.303299072265625,-0.004823251161724329,0.0410880483686924,0.07827723026275635
1783002562610350800,3.313350830078125,-0.007868842221796513,0.033434923738241196,0.08608748018741608
1783002562620402000,3.32340185546875,-0.006343116983771324,0.04252642020583153,0.07748733460903168
1783002562630453800,3.333453857421875,-0.009111473336815834,0.03455424681305885,0.037212617695331573
1783002562640505900,3.343505859375,-0.008508000522851944,0.040402550250291824,-0.012409797869622707
1783002562650558000,3.353557861328125,-0.0038956720381975174,0.06198720261454582,-0.06542747467756271
1783002562660609000,3.363609130859375,-0.009163138456642628,0.07558716833591461,-0.09846345335245132
1783002562670660900,3.373660888671875,-0.012606872245669365,0.04909777268767357,-0.10293570160865784
1783002562680713000,3.383712890625,-0.014435132034122944,0.028428710997104645,-0.08084691315889359
1783002562690764000,3.393763916015625,-0.011382883414626122,-0.0038136467337608337,-0.052447229623794556
1783002562700816000,3.40381591796875,-0.010875018313527107,-0.024635305628180504,-0.02219877950847149
1783002562710868000,3.413867919921875,-0.008687231689691544,-0.05109727382659912,-0.005644570104777813
1783002562720919800,3.423919921875,-0.004597947467118502,-0.03821369633078575,-0.009914149530231953
1783002562730971000,3.433970947265625,0.003008306724950671,-0.01062308344990015,-0.023423301056027412
1783002562741022700,3.444022705078125,0.0031403994653373957,0.011521633714437485,-0.035837624222040176
1783002562751074800,3.45407470703125,0.0008620652370154858,0.020920993760228157,-0.036967337131500244
1783002562761127000,3.464126953125,0.0017212009988725185,0.009840913116931915,-0.04700692370533943
1783002562771178000,3.474177978515625,0.0036586506757885218,0.0032735576387494802,-0.05368693172931671
1783002562781230000,3.48422998046875,-0.005182245280593634,0.003769704606384039,-0.06502480804920197
1783002562791282000,3.494281982421875,-0.010368218645453453,0.00010066748654935509,-0.06340000778436661
1783002562801333000,3.5043330078125,-0.012267052195966244,-0.016826383769512177,-0.05193324014544487
1783002562811384800,3.514384765625,-0.007132478058338165,-0.029586387798190117,-0.030673490837216377
1783002562821437000,3.52443701171875,-0.0009230516152456403,-0.02948518842458725,-0.017372865229845047
1783002562831488800,3.53448876953125,0.00047697214176878333,-0.01709696091711521,-0.012595952488481998
1783002562841539800,3.544539794921875,0.005820338614284992,0.009783654473721981,-0.023362047970294952
1783002562851592000,3.554592041015625,0.013586915098130703,0.035843219608068466,-0.027522703632712364
1783002562861643800,3.564643798828125,0.010604441165924072,0.04344254732131958,-0.030610639601945877
1783002562871696000,3.57469580078125,0.009304818697273731,0.02539803460240364,-0.03200507164001465
1783002562881747000,3.584746826171875,0.014733672142028809,-0.0018311894964426756,-0.0370754636824131
1783002562891799000,3.594799072265625,0.014929148368537426,-0.034084200859069824,-0.04709320887923241
1783002562901851000,3.604850830078125,0.01133680995553732,-0.067460797727108,-0.042688075453042984
1783002562911902000,3.61490185546875,0.008212655782699585,-0.049852512776851654,-0.02503158338367939
1783002562921953800,3.624953857421875,0.013485448434948921,-0.023964188992977142,-0.007934888824820518
1783002562932006000,3.635005859375,0.014492922462522984,-0.009606554172933102,0.009357282891869545
1783002562942057700,3.6450576171875,0.018504709005355835,0.0007305050967261195,0.01709403283894062
1783002562952108800,3.65510888671875,0.025661155581474304,0.006053897552192211,0.018816564232110977
1783002562962161000,3.665160888671875,0.01997770369052887,0.014337926171720028,0.009892844595015049
1783002562972212700,3.675212646484375,0.01810763031244278,-0.0015044197207316756,-0.013161341659724712
1783002562982265000,3.68526513671875,0.01781015656888485,-0.00935941282659769,-0.03098241612315178
1783002562992316000,3.69531591796875,0.013289973139762878,-0.010927216149866581,-0.03614628687500954
1783002563002368000,3.705367919921875,0.006820089183747768,-0.007905594073235989,-0.025916552171111107
1783002563012419800,3.715419921875,-0.00119575927965343,-0.006810768041759729,-0.005824865773320198
1783002563022471000,3.725470947265625,-0.00392896169796586,-0.021507157012820244,0.023541279137134552
1783002563032523000,3.73552294921875,0.0013251889031380415,-0.016376841813325882,0.0505334809422493
1783002563042574800,3.745574951171875,0.00027537086862139404,-0.016534768044948578,0.07677759975194931
1783002563052627000,3.755626953125,0.0026080335956066847,-0.041735462844371796,0.07620581984519958
1783002563062677800,3.765677734375,0.0002793656021822244,-0.06907227635383606,0.042822033166885376
1783002563072729900,3.775729736328125,-0.00833755824714899,-0.09347482025623322,0.00720411678776145
1783002563082781400,3.785781494140625,-0.024561535567045212,-0.09943843632936478,-0.020077304914593697
1783002563092832500,3.79583251953125,-0.033193107694387436,-0.0975009873509407,-0.04662982001900673
1783002563102884900,3.805884765625,-0.0381588377058506,-0.0770505741238594,-0.05762840807437897
1783002563112936700,3.815936767578125,-0.049011219292879105,-0.0496988482773304,-0.05061923339962959
1783002563122988800,3.82598876953125,-0.05753067135810852,-0.018400313332676888,-0.03394757956266403
1783002563133039600,3.83603955078125,-0.05438068509101868,-0.00418489146977663,-0.009149289689958096
1783002563143091700,3.846091796875,-0.05236866697669029,0.010508833453059196,0.021914619952440262
1783002563153143600,3.8561435546875,-0.04277409613132477,0.01997903361916542,0.046172820031642914
1783002563163195600,3.866195556640625,-0.027758926153182983,0.02786998078227043,0.05590987205505371
1783002563173246700,3.876246826171875,-0.02618180215358734,0.03437954559922218,0.054897602647542953
1783002563183298600,3.886298583984375,-0.027061445638537407,0.03826482966542244,0.04794062674045563
1783002563193350700,3.8963505859375,-0.03099014051258564,0.050931356847286224,0.041958101093769073
1783002563203401500,3.9064013671875,-0.029279058799147606,0.040522124618291855,0.031206654384732246
1783002563213453800,3.916453857421875,-0.0295546967536211,0.02226189523935318,0.015984293073415756
1783002563223505700,3.926505615234375,-0.02641882374882698,0.006654440425336361,0.0017859158106148243
1783002563233557800,3.936557861328125,-0.027846544981002808,0.006199839059263468,0.010789263993501663
1783002563243608800,3.94660888671875,-0.02022724039852619,0.021220600232481956,0.020472783595323563
1783002563253660700,3.95666064453125,-0.015371499583125114,0.020118318498134613,0.02382517233490944
1783002563263712800,3.966712646484375,-0.01248995866626501,0.00818016566336155,0.012046010233461857
1783002563273764600,3.9767646484375,-0.01095438003540039,-0.0013110742438584566,-0.0009808422764763236
1783002563283815700,3.986815673828125,-0.008791893720626831,0.0029028456192463636,-0.018563032150268555
1783002563293867500,3.996867431640625,-0.011414574459195137,0.012150405906140804,-0.0258097592741251
1783002563303919600,4.006919677734375,-0.009651029482483864,0.022121813148260117,-0.015097459778189659
1783002563313970700,4.016970703125,-0.011551993899047375,0.02833416871726513,-0.01179194450378418
1783002563324022800,4.027022705078125,-0.00917139369994402,0.03220986947417259,-0.011061972007155418
1783002563334074600,4.03707470703125,-0.007511445786803961,0.047316115349531174,-0.010957576334476471
1783002563344126700,4.047126708984375,-0.007435013074427843,0.06675532460212708,-0.011057444848120213
1783002563354177800,4.057177734375,-0.007179083302617073,0.0596390962600708,-0.00242187874391675
1783002563364229600,4.067229736328125,-0.006049370393157005,0.025728000327944756,-0.0017299894243478775
1783002563374281700,4.07728173828125,-0.007072024047374725,-0.004293015692383051,0.005562544334679842
1783002563384333600,4.08733349609375,-0.0025712819769978523,-0.01359517127275467,0.015588547103106976
1783002563394384600,4.097384521484375,-0.0021225393284112215,-0.019267437979578972,0.02514796331524849
1783002563404436500,4.1074365234375,-0.013128318823873997,-0.013256949372589588,0.016628511250019073
1783002563414488600,4.117488525390625,-0.012525112368166447,-0.0003296993381809443,0.007893077097833157
1783002563424539600,4.12753955078125,-0.013717410154640675,0.00863370206207037,0.0100800646468997
1783002563434591700,4.137591796875,-0.013214072212576866,0.008073372766375542,0.02184005081653595
1783002563444643800,4.147643798828125,-0.022818496450781822,0.0062765381298959255,0.049014948308467865
1783002563454694700,4.157694580078125,-0.025611886754631996,0.033667150884866714,0.0866645872592926
1783002563464746800,4.167746826171875,-0.023197464644908905,0.04831879585981369,0.11104023456573486
1783002563474798600,4.177798583984375,-0.02376871183514595,0.04794728383421898,0.11082372069358826
1783002563484850700,4.1878505859375,-0.01997290924191475,0.05010764300823212,0.09890580922365189
1783002563494901800,4.19790185546875,-0.01714383251965046,0.06017625331878662,0.08270926028490067
1783002563504953600,4.20795361328125,-0.017112141475081444,0.061289455741643906,0.06682776659727097
1783002563515005700,4.218005615234375,-0.013046559877693653,0.05402595177292824,0.04481753706932068
1783002563525057500,4.2280576171875,-0.010821755044162273,0.04000600427389145,0.02761485055088997
1783002563535108600,4.238108642578125,-0.01918834261596203,0.025680596008896828,0.021140972152352333
1783002563545160700,4.24816064453125,-0.012691027484834194,0.03760942816734314,0.023254988715052605
1783002563555212800,4.258212890625,-0.0021347899455577135,0.036910079419612885,0.037638720124959946
1783002563565264000,4.268263916015625,0.003737214021384716,0.00654631620272994,0.043598610907793045
1783002563575315700,4.278315673828125,0.007001183927059174,-0.021106351166963577,0.03501204773783684
1783002563585367600,4.288367431640625,0.012020976282656193,-0.02304220199584961,0.01565459370613098
1783002563595419600,4.298419677734375,0.013689447194337845,-0.019153455272316933,-0.012957077473402023
1783002563605470700,4.308470703125,0.010928814299404621,-0.020142817869782448,-0.04603034257888794
1783002563615522600,4.3185224609375,0.01236132811754942,-0.021142037585377693,-0.06860010325908661
1783002563625574700,4.32857470703125,0.008343949913978577,-0.020079968497157097,-0.08051455020904541
1783002563635626500,4.33862646484375,-0.0019387812353670597,-0.019625099375844002,-0.07429607212543488
1783002563645677600,4.348677490234375,0.00549303600564599,-0.013671071268618107,-0.04825993999838829
1783002563655729400,4.3587294921875,0.011654791422188282,0.002588059986010194,-0.016388028860092163
1783002563665781800,4.36878173828125,0.00993225909769535,0.004132426809519529,0.005000350996851921
1783002563675832800,4.378832763671875,0.005060538649559021,0.00820839498192072,0.00800173357129097
1783002563685884700,4.388884765625,0.004009122494608164,0.035600870847702026,0.01239195466041565
1783002563695936800,4.398936767578125,0.007992679253220558,0.04873957484960556,0.021311147138476372
1783002563705988600,4.408988525390625,0.008362059481441975,0.03557264059782028,0.021088507026433945
1783002563716039700,4.419039794921875,0.008527708239853382,0.013873204588890076,0.015519038774073124
1783002563726091500,4.429091552734375,0.006712231319397688,-0.008272310718894005,-0.0006676545017398894
1783002563736143600,4.4391435546875,-0.0003480751474853605,-0.004875448998063803,-0.013107013888657093
1783002563746194700,4.449194580078125,-0.009482983499765396,0.013532320037484169,-0.007239536847919226
1783002563756246500,4.45924658203125,-0.010457434691488743,0.005904494319111109,-0.00461685610935092
1783002563766298600,4.469298583984375,-0.006283462047576904,-0.01613183133304119,-0.005619003437459469
1783002563776350700,4.479350830078125,-0.01254934724420309,-0.024381771683692932,-0.003984089009463787
1783002563786401800,4.48940185546875,-0.014269749633967876,-0.021893581375479698,-0.003967311233282089
1783002563796453600,4.49945361328125,-0.016619456931948662,0.014347514137625694,-0.005358013790100813
1783002563806505700,4.509505615234375,-0.011927233077585697,0.05070898309350014,0.003038400551304221
1783002563816557600,4.5195576171875,-0.009574596770107746,0.05836983397603035,0.011117632500827312
1783002563826608600,4.529608642578125,-0.014243383891880512,0.02263607084751129,0.007800132501870394
1783002563836660700,4.53966064453125,-0.014838334172964096,-0.022418756037950516,0.004050401505082846
1783002563846712600,4.549712646484375,-0.007922371849417686,-0.03612178564071655,-0.0019401127938181162
1783002563856763600,4.559763671875,-0.006476807873696089,-0.051296744495630264,0.00013768543431069702
1783002563866815500,4.5698154296875,-0.0049132658168673515,-0.049376070499420166,0.0008333030855283141
1783002563876867600,4.57986767578125,-0.010946124792098999,-0.0445762574672699,0.0018487664638087153
1783002563886919700,4.589919677734375,-0.017290839925408363,-0.0600351057946682,-0.006870156619697809
1783002563896970800,4.599970703125,-0.019695142284035683,-0.08137661218643188,-0.009543703868985176
1783002563907022600,4.610022705078125,-0.020351078361272812,-0.1029607355594635,-0.014684404246509075
1783002563917074700,4.62007470703125,-0.019050123170018196,-0.12708604335784912,-0.024213194847106934
1783002563927125800,4.630125732421875,-0.015675365924835205,-0.13923990726470947,-0.028382904827594757
1783002563937177600,4.640177490234375,-0.020055733621120453,-0.12442102283239365,-0.02130555547773838
1783002563947229700,4.650229736328125,-0.02220277301967144,-0.09168331325054169,-0.0068176924251019955
1783002563957281500,4.660281494140625,-0.025961026549339294,-0.06238534674048424,0.018266355618834496
1783002563967332600,4.67033251953125,-0.028169851750135422,-0.04214132949709892,0.03251107037067413
1783002563977384400,4.680384521484375,-0.027292873710393906,-0.027053987607359886,0.04372164607048035
1783002563987436500,4.6904365234375,-0.024926388636231422,-0.011485680937767029,0.05409066379070282
1783002563997487600,4.700487548828125,-0.02034308761358261,0.0036184368655085564,0.05525926128029823
1783002564007539700,4.710539794921875,-0.01938275247812271,0.0006388923502527177,0.03936152160167694
1783002564017591800,4.720591796875,-0.013795174658298492,-0.009483782574534416,0.013230318203568459
1783002564027643600,4.7306435546875,-0.009583651088178158,-0.009721869602799416,-0.028136562556028366
1783002564037694700,4.74069482421875,-0.0037119139451533556,-0.008624380454421043,-0.058287542313337326
1783002564047746600,4.75074658203125,0.003820570884272456,0.0014775217277929187,-0.07022116333246231
1783002564057798700,4.760798583984375,-0.0031880701426416636,-0.01774357631802559,-0.05738765746355057
1783002564067849700,4.770849609375,-0.0043295007199049,-0.036192357540130615,-0.02353382110595703
1783002564077901800,4.78090185546875,0.002615224104374647,-0.029832996428012848,0.0006253102328628302
1783002564087954000,4.790953857421875,0.0015195996966212988,-0.017588581889867783,0.022549251094460487
1783002564098005800,4.801005859375,-0.004281830508261919,-0.00911759864538908,0.03019598498940468
1783002564108056800,4.811056884765625,-0.001856223214417696,-0.0012423646403476596,0.013605291023850441
1783002564118108700,4.821108642578125,-0.003805390791967511,0.01357279997318983,-0.011033476330339909
1783002564128161000,4.8311611328125,-0.01326813455671072,0.02340519055724144,-0.04069523140788078
1783002564138211800,4.8412119140625,-0.01678084395825863,0.025057416409254074,-0.0629829615354538
1783002564148264000,4.851263916015625,-0.008668323047459126,0.05094999819993973,-0.07061690837144852
1783002564158315800,4.861315673828125,-0.017640246078372,0.04983440041542053,-0.051177699118852615
1783002564168367900,4.871367919921875,-0.027583956718444824,0.02972353994846344,-0.024264326319098473
1783002564178419000,4.8814189453125,-0.04192427918314934,0.01131071150302887,0.0036037894897162914
1783002564188470800,4.891470703125,-0.05553703010082245,-0.0096273273229599,0.034923095256090164
1783002564198523000,4.90152294921875,-0.05572504922747612,-0.018369419500231743,0.06058132275938988
1783002564208574700,4.91157470703125,-0.042399123311042786,-0.0027987160719931126,0.07520446926355362
1783002564218625800,4.921625732421875,-0.029770145192742348,0.0357915535569191,0.07470539957284927
1783002564228677600,4.931677734375,-0.023261912167072296,0.08155558258295059,0.06591350585222244
1783002564238730000,4.94172998046875,-0.012710202485322952,0.11647441238164902,0.04831719771027565
1783002564248781000,4.951781005859375,-0.0035896748304367065,0.13461586833000183,0.036069322377443314
1783002564258833000,4.9618330078125,-0.004607002250850201,0.14571592211723328,0.03648131340742111
1783002564268885000,4.971885009765625,-0.006463225465267897,0.14505572617053986,0.032635439187288284
1783002564278936800,4.981936767578125,-0.0015052186790853739,0.11794128268957138,0.022128205746412277
1783002564288988000,4.99198779296875,0.00044048685231246054,0.09392356872558594,0.012045211158692837
1783002564299039700,5.002039794921875,0.003320162883028388,0.07075539231300354,0.0008048072922974825
1783002564309091800,5.012091796875,0.005313006229698658,0.03875378891825676,-0.022241922095417976
1783002564319143000,5.022142822265625,0.008505870588123798,0.021512215957045555,-0.04090189188718796
1783002564329194800,5.03219482421875,0.012914733029901981,0.02305098995566368,-0.05981779471039772
1783002564339246800,5.042246826171875,0.009747968055307865,0.040638238191604614,-0.0640958920121193
1783002564349299000,5.052298828125,0.006668821442872286,0.04700585827231407,-0.07253891229629517
1783002564359350000,5.06235009765625,0.0033545177429914474,0.057680871337652206,-0.0779600441455841
1783002564369401900,5.07240185546875,-0.00034408041392453015,0.09540534764528275,-0.05548376590013504
1783002564379454000,5.082453857421875,-0.011123757809400558,0.1255616545677185,-0.025258751586079597
1783002564389505000,5.092505126953125,-0.01239435188472271,0.13598845899105072,0.005339105147868395
1783002564399556900,5.102556884765625,-0.01816968247294426,0.13023363053798676,0.022959643974900246
1783002564409609000,5.11260888671875,-0.013650031760334969,0.1305209845304489,0.04839496314525604
1783002564419660800,5.122660888671875,-0.002413356676697731,0.1358068287372589,0.05895093455910683
1783002564429712000,5.1327119140625,0.0036304211243987083,0.11902039498090744,0.0607038289308548
1783002564439763700,5.142763671875,0.01549640204757452,0.10038945078849792,0.049665022641420364
1783002564449815800,5.15281591796875,0.023244336247444153,0.08880870044231415,0.03814445436000824
1783002564459867000,5.162866943359375,0.024091487750411034,0.08863053470849991,0.022425945848226547
1783002564469919000,5.1729189453125,0.02641429752111435,0.06872766464948654,0.008942361921072006
1783002564479970800,5.182970703125,0.025345303118228912,0.05660122632980347,0.023877635598182678
1783002564490023000,5.19302294921875,0.02791871689260006,0.029169335961341858,0.04701517894864082
1783002564500074000,5.203073974609375,0.029202094301581383,0.004505269695073366,0.06884004920721054
1783002564510125800,5.213125732421875,0.03171638399362564,-0.02347416616976261,0.08366294205188751
1783002564520178000,5.223177978515625,0.036193691194057465,-0.030769895762205124,0.0870925560593605
1783002564530228700,5.233228759765625,0.03846563398838043,-0.03169747442007065,0.07624257355928421
1783002564540280800,5.24328076171875,0.03230573982000351,-0.018549449741840363,0.06424876302480698
1783002564550332700,5.253332763671875,0.03307193145155907,-0.013719541020691395,0.04643594101071358
1783002564560384800,5.263384765625,0.04073571041226387,0.010924287140369415,0.03158003091812134
1783002564570435800,5.273435791015625,0.03843047842383385,0.017245566472411156,0.02576528489589691
1783002564580488000,5.283488037109375,0.02587314322590828,-0.00043782367720268667,0.01690574735403061
1783002564590540000,5.2935400390625,0.013362144120037556,-0.013539777137339115,0.007213970646262169
1783002564600590800,5.3035908203125,0.011412444524466991,-0.005911951418966055,0.0020186761394143105
1783002564610643000,5.313642822265625,0.007651527877897024,-0.004327370319515467,-0.00024474450037814677
1783002564620694800,5.32369482421875,0.0005877596559002995,-0.01005050353705883,0.00566933723166585
1783002564630747000,5.333746826171875,0.0038919434882700443,-0.006928746122866869,0.007399060297757387
1783002564640798000,5.3437978515625,0.00999404489994049,0.003509779926389456,0.013925403356552124
1783002564650849800,5.353849853515625,0.00504109775647521,-0.004851480480283499,0.027298465371131897
1783002564660902000,5.36390185546875,0.0057071540504693985,-0.023547137156128883,0.03187723830342293
1783002564670953700,5.37395361328125,0.008127967827022076,-0.033307623118162155,0.03297685831785202
1783002564681004800,5.3840048828125,0.016573650762438774,-0.0342935249209404,0.029942719265818596
1783002564691057000,5.394056884765625,0.01629827916622162,-0.01107715256512165,0.033123333007097244
1783002564701109000,5.40410888671875,0.0030216225422918797,-0.009317335672676563,0.033793382346630096
1783002564711160000,5.41416015625,0.004915129859000444,-0.01684129796922207,0.03207990527153015
1783002564721212000,5.4242119140625,0.007528756279498339,-0.0024535702541470528,0.03650288283824921
1783002564731264000,5.434263916015625,0.005024053156375885,0.008154865354299545,0.048596564680337906
1783002564741315800,5.44431591796875,-0.00035952674807049334,0.012052135542035103,0.042748261243104935
1783002564751367000,5.454366943359375,-0.0002623213513288647,0.025359151884913445,0.02634585276246071
1783002564761418800,5.464418701171875,0.001916144392453134,0.03400057554244995,0.009648365899920464
1783002564771470800,5.474470947265625,-0.00041811628034338355,0.030643662437796593,-0.006085855886340141
1783002564781522000,5.48452197265625,0.00023462448734790087,0.01709456369280815,-0.011244132183492184
1783002564791573800,5.49457373046875,0.005334045272320509,0.0016708672046661377,0.008111190050840378
1783002564801625900,5.5046259765625,0.006154565140604973,-0.012514459900557995,0.040345825254917145
1783002564811678000,5.514677978515625,0.0005193164106458426,-0.04555443674325943,0.06090090051293373
1783002564821729000,5.52472900390625,0.0075700352899730206,-0.06873725354671478,0.051063451915979385
1783002564831780900,5.53478076171875,0.009852098301053047,-0.07536692917346954,0.0178716741502285
1783002564841833000,5.5448330078125,0.014369884505867958,-0.05072469636797905,-0.016754478216171265
1783002564851883800,5.5548837890625,0.007979363203048706,-0.017072193324565887,-0.029294772073626518
1783002564861935900,5.564935791015625,0.002386458683758974,0.010672084987163544,-0.03525172919034958
1783002564871987700,5.57498779296875,-0.001023186487145722,0.023023294284939766,-0.02095162123441696
1783002564882039800,5.585039794921875,0.0002913498319685459,0.033731862902641296,0.0049220542423427105
1783002564892091000,5.5950908203125,0.00070520507870242,0.026018816977739334,0.024143686518073082
1783002564902142700,5.605142822265625,0.008833439089357853,0.02317509427666664,0.03460005670785904
1783002564912195000,5.615195068359375,0.007990814745426178,0.04824156314134598,0.02690431848168373
1783002564922245600,5.62524560546875,0.008832640014588833,0.08417852967977524,0.022775353863835335
1783002564932298000,5.635298095703125,0.0044203149154782295,0.10163448005914688,0.014374678023159504
1783002564942349800,5.645349853515625,-0.001856223214417696,0.07477010786533356,0.0013057478936389089
1783002564952402000,5.65540185546875,-0.008064850233495235,0.04289766773581505,-0.01332565862685442
1783002564962453000,5.665452880859375,-0.006738596595823765,0.027694212272763252,-0.02761884406208992
1783002564972504800,5.6755048828125,-0.006313023157417774,-0.0022397185675799847,-0.020868796855211258
1783002564982557000,5.685556884765625,-0.01239248737692833,-0.032697226852178574,-0.005115932319313288
1783002564992607700,5.695607666015625,-0.022577747702598572,-0.03473640978336334,-0.0001579254458192736
1783002565002659800,5.705659912109375,-0.006987868342548609,-0.040402814745903015,-0.009275523945689201
1783002565012711700,5.715711669921875,-0.005356415640562773,-0.0484764538705349,-0.015242069959640503
1783002565022764000,5.725763916015625,0.019036540761590004,0.021290108561515808,0.014460432343184948
1783002565032814800,5.73581494140625,0.025619076564908028,0.18202146887779236,0.09349452704191208
1783002565042867000,5.745866943359375,-0.15175063908100128,0.338058203458786,0.686122715473175
1783002565052918800,5.755918701171875,-0.17807012796401978,0.12029445171356201,0.7493120431900024
1783002565062969900,5.765969970703125,-0.07666974514722824,-0.021405955776572227,0.3834531307220459
1783002565073022000,5.77602197265625,0.015800533816218376,-0.0965702161192894,-0.05748193338513374
1783002565083073000,5.786072998046875,0.026075009256601334,-0.17071928083896637,-0.32631444931030273
1783002565093124900,5.796124755859375,0.035049594938755035,-0.10004830360412598,-0.4793815016746521
1783002565103176000,5.806176025390625,0.09380105882883072,-0.06777984648942947,-0.6171255111694336
1783002565113227800,5.816227783203125,0.11760546267032623,-0.07885246723890305,-0.6772493124008179
1783002565123280000,5.82627978515625,0.09093363583087921,-0.011842544190585613,-0.5416872501373291
1783002565133331000,5.8363310546875,0.05577777698636055,0.12639948725700378,-0.2279130518436432
1783002565143382800,5.8463828125,0.020264524966478348,0.18543218076229095,0.07659517228603363
