time,seconds_elapsed,z,y,x
1783003398827817700,0.076817626953125,-0.04730243392288685,0.0061565864009782666,0.01016774913794361
1783003398837869600,0.08686962890625,-0.22147826661169528,-0.03659329878408461,0.065781499810284
1783003398847920600,0.096920654296875,-0.23183950162827968,-0.044233694002032274,0.04137756478539668
1783003398857971700,0.1069716796875,-0.09871697933971882,-0.02096946706417948,-0.007043762765359133
1783003398868023600,0.1170234375,0.034303836140036584,0.025358313140273092,-0.043789904890442266
1783003398878074600,0.12707470703125,0.0274842192530632,0.03740574767813086,-0.04815119623932987
1783003398888125700,0.137125732421875,-0.07148994971811772,0.026601883460581302,-0.013208724269038066
1783003398898177300,0.14717724609375,-0.17337386865615845,0.0095275241388008,0.02570088863340206
1783003398908228400,0.157228271484375,-0.164478614538908,-0.004566065806522965,0.03997643841635436
1783003398918279400,0.167279541015625,-0.061931263256072996,-0.01750949933603406,0.01682928025322035
1783003398928331300,0.177331298828125,-0.00837561415731907,-0.023019567994400858,-0.012731580877117812
1783003398938382300,0.18738232421875,-0.026227497190237044,-0.022172230450063942,-0.02471470887395553
1783003398948433400,0.197433349609375,-0.10001812506616115,-0.019607932920008897,-0.0026008575476240367
1783003398958484500,0.207484375,-0.13126666528880596,-0.01269424454141408,0.012926893386663868
1783003398968536300,0.217536376953125,-0.1104296289652586,-0.005657258576713502,0.008977023249724879
1783003398978587400,0.22758740234375,-0.049665655922889705,0.008198467492125928,0.006177455659070983
1783003398988638500,0.237638427734375,-0.025902503019571303,0.006594722089916467,0.009239583176048472
1783003398998690300,0.247690185546875,-0.06079962887763977,0.00787274266909808,0.015517960192635655
1783003399008741400,0.257741455078125,-0.11392682343125343,-0.0001597206063568592,0.027303538057068363
1783003399018792400,0.26779248046875,-0.11390344255566597,-0.006361132529750466,0.013515086804470047
1783003399028844300,0.27784423828125,-0.0790104083508253,-0.008349054943956434,-0.006173774997796863
1783003399038895400,0.287895263671875,-0.057469023150205606,0.0028623306285589932,-0.013940226014517247
1783003399048946400,0.297946533203125,-0.05613982037305831,-0.002367569381557405,-0.021922904464649035
1783003399058998300,0.307998291015625,-0.07979834385812282,-0.010447232799604534,-0.021951582569861783
1783003399069049300,0.31804931640625,-0.10448445682525634,-0.015459033079631626,-0.0013212204000912606
1783003399079100400,0.328100341796875,-0.09833236393630504,-0.003354826853238046,-0.00017667174115777016
1783003399089152300,0.33815234375,-0.08022855196893215,0.005423851679638028,0.009700259490357712
1783003399099203300,0.348203369140625,-0.06512392181754112,0.021571488077938555,0.02112280359552242
1783003399109254400,0.35825439453125,-0.07217325580716133,0.01980210378523916,0.025073422651132566
1783003399119305500,0.368305419921875,-0.09028349751532078,0.02547393887657672,0.02711326704882085
1783003399129357300,0.378357421875,-0.0860860458254814,0.012076770230196416,0.011862634289171546
1783003399139408400,0.388408447265625,-0.06931903541982173,-0.0002584682730957866,-0.020654519363492725
1783003399149459500,0.39845947265625,-0.06049275488555431,-0.02126976518500596,-0.025832780517917125
1783003399159511300,0.40851123046875,-0.06364566595852375,-0.026881650250032543,-0.03441151603190228
1783003399169562400,0.418562255859375,-0.08743921400010585,-0.03907576324958354,-0.03333038799799978
1783003399179613400,0.428613525390625,-0.08280220184922218,-0.02928381602093577,-0.0006249726310838013
1783003399189665500,0.43866552734375,-0.0697819767564535,-0.020223178741522133,0.025037867280561475
1783003399199716400,0.44871630859375,-0.07726561051011085,0.01214106763806194,0.06451167167071253
1783003399209767400,0.458767333984375,-0.0720306324660778,0.03109451870471239,0.07946083726575598
1783003399219819500,0.468819580078125,-0.07546352952420711,0.03989164620973169,0.061411705494532356
1783003399229870600,0.47887060546875,-0.075450670042634,0.02558525376394391,0.01947299969503656
1783003399239921400,0.48892138671875,-0.07933423347771168,0.008921849863231182,-0.023255523041589184
1783003399249973500,0.498973388671875,-0.07663724947869777,-0.007726319935731589,-0.05983853789367713
1783003399260024600,0.509024658203125,-0.0734989514529705,-0.020880911997891962,-0.07245965326679871
1783003399270075600,0.51907568359375,-0.08891630081534385,-0.0281835996940732,-0.050212576615391295
1783003399280127500,0.52912744140625,-0.08144377297759056,-0.011560162477567791,-0.02502503519845195
1783003399290178600,0.539178466796875,-0.08353928395211696,0.0008345145953819155,0.017916582299582658
1783003399300229600,0.549229736328125,-0.07995031954944133,-0.0031611674446612595,0.05512578449230641
1783003399310280400,0.559280517578125,-0.07770692453682422,-0.012569302987493574,0.06780885005258024
1783003399320332500,0.56933251953125,-0.08982347878813743,-0.03643712184168398,0.0603235540647991
1783003399330383600,0.579383544921875,-0.07530337052643299,-0.036351050993427635,0.031564245975157244
1783003399340434400,0.589434326171875,-0.08008359054028988,-0.03047635027375072,0.014324996681557968
1783003399350486500,0.599486572265625,-0.08456745795607566,-0.006447787899896502,-0.010495538053894415
1783003399360537600,0.60953759765625,-0.06780395468175411,0.02506477355379611,-0.03156097630583681
1783003399370588400,0.61958837890625,-0.07648761187493801,0.044792935319989916,-0.042304607369285076
1783003399380640500,0.629640625,-0.07843231620192527,0.05206365697532892,-0.052688638739567244
1783003399390691600,0.639691650390625,-0.0791892720490694,0.0362184741223231,-0.0330278705206234
1783003399400742700,0.64974267578125,-0.08307984974682331,0.009698021867498755,-0.016844386490806936
1783003399410794500,0.65979443359375,-0.07784837883412837,-0.00992846962250769,0.01756596049731597
1783003399420845600,0.669845458984375,-0.07516425431668758,-0.030911746016331017,0.026887258006911722
1783003399430896600,0.679896728515625,-0.08474398356676101,-0.03576671176683158,0.03482762255212292
1783003399440948500,0.689948486328125,-0.08548866445422172,-0.028033998622931537,0.04383314124397002
1783003399450999600,0.69999951171875,-0.08623276081979274,-0.02555986359436065,0.029964436962548642
1783003399461050600,0.710050537109375,-0.0773982969790697,-0.0021548399463295937,0.015268058818485588
1783003399471101400,0.720101318359375,-0.07379939570426941,0.016522132266499102,0.011188169093709439
1783003399481153500,0.730153564453125,-0.0788800599694252,0.020106201298348603,-0.01219095292808488
1783003399491204600,0.74020458984375,-0.07170154664218426,0.0155797003172338,-0.023134298681560903
1783003399501255400,0.75025537109375,-0.07828618572950363,0.014364588906429707,-0.004216037659300491
1783003399511307500,0.7603076171875,-0.08667173675894736,0.0002931011950597167,-0.008312988116731868
1783003399521358600,0.770358642578125,-0.0806879861742258,-0.008814553563855588,0.0005476787443272769
1783003399531409400,0.780409423828125,-0.07964870625436306,-0.010428053175099193,0.009070071828039362
1783003399541461500,0.79046142578125,-0.08369301320910454,-0.004390380446054041,0.028020225825905798
1783003399551512600,0.8005126953125,-0.08863573030829429,-0.003369038041681051,0.024517268339404836
1783003399561563400,0.8105634765625,-0.08728957639634609,0.0018672186439856885,0.02927468286640942
1783003399571615500,0.820615478515625,-0.08189911552965641,-0.0010493994550779462,0.019908870361652224
1783003399581666600,0.83066650390625,-0.0815945796251297,-0.007145195579528808,0.004308857908751815
1783003399591717400,0.84071728515625,-0.07844576020538807,-0.007771803045272827,-0.003299653466744348
1783003399601768400,0.8507685546875,-0.07994330528676509,-0.002931194613687694,-0.00939099261178635
1783003399611820500,0.860820556640625,-0.07754618101716042,0.010140870264172553,-0.010926467683911322
1783003399621871400,0.870871337890625,-0.07964169199168682,0.017245916496403516,-0.0033635124831926074
1783003399631922400,0.88092236328125,-0.07500526436269282,0.009281951879896224,0.0014956636515446005
1783003399641974500,0.890974609375,-0.0787450354129076,-0.002188376889750361,0.004692304268386215
1783003399652025300,0.901025390625,-0.07964344555735588,-0.0011742314111441374,0.019158225524285807
1783003399662076400,0.911076416015625,-0.08488076168894768,-0.010007453142851591,0.013447620191983877
1783003399672128500,0.92112841796875,-0.07574877620637416,-0.012937990169413388,0.007892104956693947
1783003399682179300,0.931179443359375,-0.07574585359692573,0.00023713322412222622,0.006104673550650477
1783003399692230400,0.94123046875,-0.07858078476190566,-0.0016727189851924776,-0.005039912129659206
1783003399702282500,0.951282470703125,-0.08171089948117732,-0.0001853665042668581,-0.0073416497333906585
1783003399712333600,0.96133349609375,-0.07062894897460938,0.0006541895924136042,-0.004679636583058163
1783003399722384400,0.97138427734375,-0.07392214530110358,0.00712400666102767,-0.004529259193781763
1783003399732436500,0.9814365234375,-0.0820084211230278,0.0025756957069039345,0.007076285928627476
1783003399742487600,0.991487548828125,-0.0740782126456499,-0.003750402042083442,0.009687582671875134
1783003399752538400,1.001538330078125,-0.07902443687617779,-0.007022701711021363,0.016646790692629292
1783003399762590500,1.011590576171875,-0.0818733965665102,-0.006300890242494642,0.011878379847574979
1783003399772641500,1.0216416015625,-0.084117376101017,-0.017825835276208818,0.00883418071293272
1783003399782692400,1.0316923828125,-0.07738309940993786,-0.008672770472988485,0.0017784900477621703
1783003399792743400,1.041743408203125,-0.08067395764887332,-0.007622165441513061,0.0008744630132801831
1783003399802795500,1.05179541015625,-0.08081833455562591,0.004998685070127249,-0.005087970788776874
1783003399812846300,1.061846435546875,-0.07258885087072849,0.029833339662477372,-0.007124399386672303
1783003399822897400,1.0718974609375,-0.0684060122281313,0.02623812818210572,0.005420728140790015
1783003399832949500,1.081949462890625,-0.08083762377798556,0.01511146175097674,0.0015744736419524997
1783003399843000300,1.092000244140625,-0.087424016430974,-0.007178586392477154,-0.0013212295332457869
1783003399853051400,1.102051513671875,-0.08997136282622814,-0.017721388521045444,-0.0070882229615934185
1783003399863103500,1.112103515625,-0.07859773589670657,-0.011644918151572346,0.002543693133443594
1783003399873154300,1.122154296875,-0.07291326051950454,-0.013848711806163191,0.0076162197579164054
1783003399883205400,1.132205322265625,-0.07859656685292721,-0.009571801671944559,0.013650979010667651
1783003399893261300,1.14226123046875,-0.0802308900564909,0.000025244039110839365,0.003151705496571958
1783003399903312400,1.1523125,-0.08216448846757411,-0.0013256591131910681,-0.0072875083933584385
1783003399913363500,1.162363525390625,-0.0740741209924221,-0.011222418423183262,-0.0008850118067581206
1783003399923414500,1.17241455078125,-0.08246376367509364,-0.006040339610166847,0.0036426125523634253
1783003399933466400,1.18246630859375,-0.08441255965530872,-0.008972374474070966,0.0004140606936067342
1783003399943517400,1.192517333984375,-0.0833721106916666,-0.010894355512596666,0.010487601342611013
1783003399953568500,1.202568603515625,-0.0827794054955244,0.0027187939720228313,0.006448217158159241
1783003399963620400,1.212620361328125,-0.07948854725658894,0.010071677485480905,0.008606463771127164
1783003399973671400,1.22267138671875,-0.07859072163403034,0.00902958455402404,-0.0012304459772538392
1783003399983722500,1.232722412109375,-0.07350538119375705,0.011214563910290598,-0.002626284249825403
1783003399993774300,1.2427744140625,-0.07291442956328392,0.0045302273081615566,-0.006222847437066957
1783003400003825400,1.252825439453125,-0.07860358111560345,-0.0024159751005470753,-0.013403854115493595
1783003400013876500,1.26287646484375,-0.07471651054918765,-0.018637626583129167,-0.0008589092511218041
1783003400023928300,1.27292822265625,-0.07262684479355812,-0.03231072609405965,0.005988965615956112
1783003400033979400,1.2829794921875,-0.07457447172999382,-0.026277729540131984,-0.0025804723467212167
1783003400044030500,1.293030517578125,-0.08909574903547764,-0.018077837275899945,-0.0015673041156493127
1783003400054081500,1.30308154296875,-0.08116554055809974,0.0033610008656978605,0.01614865931160748
1783003400064133400,1.31313330078125,-0.0872889918744564,0.014860446131974459,0.02121379721406847
1783003400074184400,1.323184326171875,-0.07486147197782993,0.02174604092724621,0.02070106191895902
1783003400084235500,1.333235595703125,-0.08099486016631126,0.012899448257312178,0.024122697797557338
1783003400094287400,1.343287353515625,-0.0795025757819414,0.0025321122935041784,0.004501056012604385
1783003400104338400,1.35333837890625,-0.07532324427068234,0.003546111641637981,-0.0013854721421841531
1783003400114389500,1.363389404296875,-0.08160685458481311,0.016141681581549345,-0.011981136969150975
1783003400124441300,1.37344140625,-0.08071078252792357,0.013237374974787235,-0.014638300414429976
1783003400134492400,1.383492431640625,-0.07517536023259162,-0.0030348376512527465,-0.02527370359674096
1783003400144543500,1.39354345703125,-0.07338087803125382,-0.019985424462892115,-0.02585617965981364
1783003400154595300,1.40359521484375,-0.07876490915715693,-0.02448021513149142,-0.014120916343666612
1783003400164646400,1.413646484375,-0.08774316538274288,-0.023496647454239426,0.0001390979434363544
1783003400174697500,1.423697509765625,-0.0792108993589878,-0.014460998485609888,0.011910400687344372
1783003400184748300,1.433748291015625,-0.07112813066840172,-0.017242007506266234,0.014816433460311963
1783003400194800400,1.44380029296875,-0.07741700167953967,-0.0062216875264421104,0.031229132269276306
1783003400204851500,1.4538515625,-0.07382511466741562,0.012051124332286417,0.03433193885651417
1783003400214902500,1.463902587890625,-0.08848433913886547,0.01974803551044315,0.023020627440325913
1783003400224954400,1.473954345703125,-0.08474164547920227,0.02082472483124584,0.006716046914644539
1783003400235005400,1.48400537109375,-0.07995265763700007,0.028201318013854323,-0.017898918778728692
1783003400245056500,1.494056396484375,-0.07351824067533015,0.012525171584822237,-0.03753881773957982
1783003400255108400,1.5041083984375,-0.07007832935452461,-0.006035955695994198,-0.037567833771510045
1783003400265159400,1.514159423828125,-0.07756722380518913,-0.006344729384221136,-0.02832994022904895
1783003400275210500,1.52421044921875,-0.08296119180321693,-0.01502053206451237,-0.021136777321947738
1783003400285262300,1.534262451171875,-0.07817921822369098,-0.021058423989266155,0.02148938101874664
1783003400295313400,1.5443134765625,-0.07010112570822238,-0.01732223313562572,0.04908839489105157
1783003400305364500,1.554364501953125,-0.0786310536444187,-0.017170695835724472,0.04905782622285187
1783003400315415300,1.564415283203125,-0.07294424017965793,-0.015077559481374918,0.04926608041236177
1783003400325467400,1.57446728515625,-0.07428162626326083,-0.01510079422648996,0.0278376175343059
1783003400335518500,1.5845185546875,-0.08055646874904632,-0.01751362752187997,-0.002326908577606082
1783003400345569300,1.5945693359375,-0.08369359773099422,-0.009536620760709047,-0.03404295671414584
1783003400355621400,1.604621337890625,-0.08234218312203884,0.010212437663041054,-0.04822046208325773
1783003400365672400,1.61467236328125,-0.06977028631865978,0.024786066210269925,-0.043357705751946196
1783003400375723300,1.62472314453125,-0.0842868874490261,0.04049600531104952,-0.03592424041610211
1783003400385775400,1.634775390625,-0.07696458173692226,0.034443317675963044,-0.014800952763389795
1783003400395826400,1.644826416015625,-0.07862170129418372,0.010181494535505771,0.002156584378844127
1783003400405877200,1.654877197265625,-0.06859948897361755,-0.012188231248036027,0.022762241365620866
1783003400415929600,1.6649296875,-0.07413374222517014,-0.024490699992887676,0.028401005304418504
1783003400425980400,1.67498046875,-0.07563128730654715,-0.034274902306497095,0.03295364537378773
1783003400436031200,1.68503125,-0.08325988248884678,-0.030081797998212277,0.029814050440117715
1783003400446082300,1.695082275390625,-0.07831482730209827,-0.010502141324616968,0.02363853100980632
1783003400456134700,1.705134765625,-0.07816109804511069,0.009292655937001109,-0.0005956186724361032
1783003400466185200,1.715185302734375,-0.07966331930160522,0.01046016534641385,-0.006577369096316397
1783003400476236300,1.725236328125,-0.08145955506861209,0.009240195097401737,-0.01619173126835376
1783003400486288600,1.73528857421875,-0.08505085755884646,0.006236665899865329,-0.006788929487764835
1783003400496339500,1.74533935546875,-0.07712181812524795,0.0029715631566941737,0.001374649354070425
1783003400506390300,1.755390380859375,-0.07323240947127342,-0.004919263158366083,0.008115739378426223
1783003400516442600,1.765442626953125,-0.07143617370426654,-0.01527125542256981,0.023986421998869627
1783003400526493400,1.775493408203125,-0.07831716538965701,0.0033906288189813494,0.021918319621076807
1783003400536544500,1.78554443359375,-0.08325345274806022,0.004548420551978051,0.0038788141947239635
1783003400546596600,1.7955966796875,-0.07471534150540829,0.005099770824424922,-0.0007747015663888305
1783003400556647400,1.8056474609375,-0.07576105116605758,0.00239420166015625,-0.010942633367422967
1783003400566698500,1.815698486328125,-0.07710837412178516,-0.012562580985762179,-0.00937987756272778
1783003400576749600,1.82574951171875,-0.07292436643540859,-0.008563757140561937,-0.006855482784798368
1783003400586801400,1.835801513671875,-0.07427578104436397,-0.006098353407718241,-0.0034422220089007165
1783003400596852500,1.8458525390625,-0.06799918499290943,-0.0005451762599870563,0.009077734544686973
1783003400606903600,1.855903564453125,-0.07637713723778725,0.010744571778364478,0.031051547212665898
1783003400616955400,1.865955322265625,-0.07607786203026771,0.005038103765062987,0.026375490826182065
1783003400627006500,1.87600634765625,-0.08086100465357303,-0.0018193609142675995,0.019257219786196947
1783003400637057500,1.8860576171875,-0.07680909891426563,-0.013157770399935542,0.015406097315996884
1783003400647109600,1.896109619140625,-0.08637889129221439,-0.004000394747778773,-0.002472162267193198
1783003400657160400,1.906160400390625,-0.075450670042634,-0.0054104442087933415,-0.011947472161566839
1783003400667211500,1.91621142578125,-0.08277823645174504,0.00260104934386909,-0.018032208035886288
1783003400677262600,1.9262626953125,-0.07754092032015324,0.004985423729754984,-0.020734434465598313
1783003400687314400,1.936314453125,-0.07754793458282946,0.007980258164182305,-0.022077738833334297
1783003400697365500,1.946365478515625,-0.07276070030629635,0.012141761757805942,-0.007925614500651136
1783003400707416600,1.95641650390625,-0.06887129165232181,-0.005953830370493233,-0.002650176582066342
1783003400717468400,1.966468505859375,-0.07591536494493484,-0.018269048999063668,0.011092389702191575
1783003400727519500,1.97651953125,-0.07412555891871452,-0.015147519445046782,0.035243482477171344
1783003400737570600,1.986570556640625,-0.07952011143863201,-0.013788834845088421,0.03596038030856289
1783003400747622400,1.996622314453125,-0.08250701829493046,-0.0022627938328310844,0.02794692312767729
1783003400757673500,2.006673583984375,-0.08070844444036483,0.005513868050649762,0.027455002291733397
1783003400767724500,2.016724609375,-0.07471592602729797,0.007316898884624242,0.006367096479656174
1783003400777775600,2.026775634765625,-0.07142214517891407,0.013597513524070381,-0.01649593837931752
1783003400787827500,2.036827392578125,-0.07726093433499336,0.006944412310421467,-0.02738975503579713
1783003400797878500,2.04687841796875,-0.07546236048042773,0.013760631663911043,-0.027949462144635617
1783003400807929600,2.0569296875,-0.07666296844184398,0.002133577962592244,-0.027390065563051028
1783003400817981400,2.0669814453125,-0.0790630153208971,0.0008680880714207887,-0.0035873295680154114
1783003400828032500,2.077032470703125,-0.07218085459172725,0.003700425420515239,0.005204875166714191
1783003400838083600,2.08708349609375,-0.07801496757268905,0.007363952896744012,0.021245863719610496
1783003400848135400,2.097135498046875,-0.08445172262191772,-0.00304714914355427,0.024588360814237965
1783003400858186500,2.1071865234375,-0.07861936320662498,-0.0114717900743708,0.0280415060759522
1783003400868237600,2.117237548828125,-0.07382862179875374,-0.017337467237375677,0.020693207406066356
1783003400878289400,2.127289306640625,-0.08041442992985248,-0.024725312466360626,0.006799788808496668
1783003400888340500,2.137340576171875,-0.08236322591006755,-0.002429199908301234,-0.008435664648329838
1783003400898387500,2.147387451171875,-0.07682429648339748,0.004721767824888229,-0.016499865635763854
1783003400908438500,2.1574384765625,-0.074579732427001,0.010551277695968746,-0.015215296584786847
1783003400918490400,2.167490478515625,-0.0771241562128067,0.018913338251970706,-0.022511399276554583
1783003400928541400,2.17754150390625,-0.07787877397239208,0.0069517553666606545,-0.009242953310068696
1783003400938592500,2.187592529296875,-0.08327040388286114,0.0009123290719464421,0.005136349108302966
1783003400948644400,2.197644287109375,-0.070706105864048,-0.00775346367098391,0.022448407909786326
1783003400958695400,2.2076953125,-0.08178162662982941,-0.011212371953204273,0.02720119192744605
1783003400968746500,2.21774658203125,-0.0819300951898098,-0.010062361667864023,0.028799822763120753
1783003400978798300,2.22779833984375,-0.05905015486180782,-0.014007299901358782,0.03240184757676907
1783003400988849400,2.237849365234375,-0.07911153063774108,-0.0168846454359591,-0.019497193421376867
1783003400998900500,2.247900390625,-0.0954150151848793,0.012169380417093634,0.022948484652722253
1783003401008951600,2.25795166015625,-0.08806991311907768,0.013455913096293806,-0.014415396645059808
1783003401019003400,2.26800341796875,-0.05785889925062656,0.006685688308998942,-0.02968530036075972
1783003401029054500,2.278054443359375,-0.03426058152019977,0.006918839477747679,-0.032592091185553
1783003401039105500,2.28810546875,-0.08501344815790653,-0.0012057590605691075,-0.009564714344032109
1783003401049157400,2.298157470703125,-0.11703297275304794,-0.010653203700482845,0.0019882694740779696
1783003401059208400,2.30820849609375,-0.10623919153809547,-0.015278744609281419,0.010084692230680956
1783003401069259500,2.318259521484375,-0.08916413809657096,-0.0027715470725670453,0.023348206293722612
1783003401079311400,2.328311279296875,-0.04308627753257751,0.005482778792642057,0.020117690806742757
1783003401089362400,2.338362548828125,-0.016356676039099693,0.004582505484670401,0.019870483713177962
1783003401099413500,2.34841357421875,-0.07088204695284366,-0.0024191899709403515,0.024195753900613633
1783003401109464300,2.35846435546875,-0.13133096269667147,-0.005030431915260851,0.025755778892105445
1783003401119516400,2.368516357421875,-0.15237608881294726,-0.016443404474481938,0.009769324404885992
1783003401129567500,2.3785673828125,-0.08005436444580555,-0.006681669721007347,-0.015123517514951525
1783003401139618300,2.388618408203125,-0.028273908326029776,0.001478876913525164,-0.044611404740624125
1783003401149670700,2.398670654296875,-0.04624620286822319,0.0031023133968934415,-0.030173449203884227
1783003401159721500,2.408721435546875,-0.0935199952185154,0.00685059654712677,-0.0031557423508726057
1783003401169772300,2.418772216796875,-0.12176526197195052,0.021738844001479445,0.011068999693449585
1783003401179824600,2.42882470703125,-0.11363865413963795,0.014257986726798117,0.021959912006789817
1783003401189875700,2.438875732421875,-0.039548751056194306,-0.004530300373397768,-0.0011528324300888926
1783003401199926300,2.44892626953125,-0.017725626304745674,-0.013638576186820864,0.0013004059409257023
1783003401209977300,2.458977294921875,-0.07132686811089516,-0.02408054828941822,0.008822216280503198
1783003401220029700,2.46902978515625,-0.1115747073471546,-0.024186931273341178,0.02188555899579078
1783003401230080500,2.47908056640625,-0.12007482466697691,-0.013753653933852911,0.022111705035017803
1783003401240131300,2.48913134765625,-0.08039864783883094,0.004249181877076625,0.014192456343071534
1783003401250183700,2.49918359375,-0.043299628022313116,0.0035384032592177387,-0.005417248408915475
1783003401260234500,2.509234375,-0.054396191576123236,-0.0061173869017511606,-0.009357199940038844
1783003401270285300,2.519285400390625,-0.08418810324966906,-0.011977584172040224,-0.003907318770000711
1783003401280337700,2.529337646484375,-0.10168751958310604,-0.0048036374220624565,-0.008299443648569285
1783003401290388500,2.539388427734375,-0.08790273985862732,0.012889620983041822,0.0008876695547252893
1783003401300439600,2.549439453125,-0.06575520545840263,0.0373377970084548,0.002275717246485874
1783003401310490400,2.559490478515625,-0.05948270106017589,0.04294920714944601,-0.007365551198786124
1783003401320542500,2.56954248046875,-0.07536474532485007,0.02389923690576106,-0.011998069837642834
1783003401330593500,2.579593505859375,-0.08643851252496242,-0.0042316827530041335,-0.006982725893659517
1783003401340644600,2.58964453125,-0.09136778562068938,-0.018288009427860377,0.00106228633611463
1783003401350696400,2.599696533203125,-0.0755032770127058,-0.02802745928429067,-0.010063923437288031
1783003401360747500,2.60974755859375,-0.0626408728301525,-0.01799483516756445,-0.005354996827663853
1783003401370798600,2.619798583984375,-0.06773965727388859,-0.00805577108580619,0.018392310052551326
1783003401380850400,2.629850341796875,-0.08255670265555382,0.0028654724337160587,0.025609109563566743
1783003401390901500,2.639901611328125,-0.09901040932834147,0.010850443305633962,0.024672805960988625
1783003401400952600,2.64995263671875,-0.08717676367163657,0.014492927993834018,0.01388710758779198
1783003401411003600,2.660003662109375,-0.07400339384377003,0.016306480221822857,0.005282689643278718
1783003401421055500,2.670055419921875,-0.0802875886797905,0.006386266971006989,-0.003690844741417095
1783003401431106600,2.6801064453125,-0.08358429213762283,-0.002361358836479485,-0.01053870134218596
1783003401441157600,2.69015771484375,-0.08568038763403892,-0.006362593834474683,-0.003333994127763435
1783003401451209500,2.70020947265625,-0.07909048784971237,-0.01007313879020512,-0.004104320913134143
1783003401461260500,2.710260498046875,-0.08013678203225136,-0.003379888229258358,0.0015434117834083735
1783003401471311600,2.7203115234375,-0.0757996296107769,0.007841068889200687,0.01164821522035636
1783003401481363500,2.730363525390625,-0.06921557504534721,-0.0022560718310996888,0.008377906579105183
1783003401491414500,2.74041455078125,-0.07475450447201729,-0.015502251166850327,0.013188293402362614
1783003401501465600,2.750465576171875,-0.08941665155291557,-0.014638985401019454,0.014643296249955891
1783003401511516700,2.7605166015625,-0.08477554774880408,-0.005493994306400418,0.016558043830096722
1783003401521568500,2.770568603515625,-0.07729132947325706,0.009757168176211415,0.009426063925167545
1783003401531619600,2.78061962890625,-0.07699614591896534,0.024242205124534667,0.007092296348512172
1783003401541670700,2.790670654296875,-0.07175882978737354,0.01900477939508855,-0.011614185086591169
1783003401551722500,2.800722412109375,-0.08716916488707065,0.019381321089901028,-0.018826701148133725
1783003401561773600,2.810773681640625,-0.07654255693256855,-0.0067135992292314765,-0.01419411857719533
1783003401571824600,2.82082470703125,-0.07939502375423908,-0.01759706802163273,-0.0051350887329783285
1783003401581876500,2.83087646484375,-0.07416179927587509,-0.017543401605635882,0.005108063728734851
1783003401591927600,2.840927490234375,-0.07626023285984992,-0.010765833762101829,0.02589677653168328
1783003401601978600,2.850978515625,-0.08238602226376533,0.004697912025265395,0.03622296763435006
1783003401612029400,2.861029541015625,-0.0919552301198244,-0.0009851751124486327,0.03344629686209373
1783003401622081500,2.87108154296875,-0.08222937039732933,-0.003150719115883112,0.013180338424770162
1783003401632132600,2.881132568359375,-0.08806289885640144,0.0011918401330709458,-0.0030025702163111417
1783003401642183400,2.891183349609375,-0.08296879058778285,-0.009877798881195485,-0.012513627277500926
1783003401652235500,2.901235595703125,-0.0765355426698923,-0.00716532505210489,-0.02912498133056797
1783003401662286600,2.91128662109375,-0.08028057441711425,-0.009118066555075346,-0.021727126164222135
1783003401672337400,2.92133740234375,-0.07579144630432129,-0.0021229469707235694,-0.01239419301575981
1783003401682388500,2.931388427734375,-0.07668985644876956,0.012092881114780902,-0.0066198656643275166
1783003401692440600,2.941440673828125,-0.08296995963156223,0.01347754040621221,0.015697691540559753
1783003401702491600,2.95149169921875,-0.06666413699686527,0.010436857536062598,0.024420703496597706
1783003401712542500,2.96154248046875,-0.0775906046807766,-0.002975143353268504,0.02004383098608814
1783003401722594600,2.971594482421875,-0.0674251844972372,-0.01006104649361223,0.024140425250492988
1783003401732645600,2.981645751953125,-0.07415595405697822,-0.009787709444947541,0.02267607918581925
1783003401742696400,2.991696533203125,-0.07789338701963425,-0.013726912057399749,0.012849352904735132
1783003401752748500,3.00174853515625,-0.070109309014678,-0.009554485210962593,-0.0017608082605991512
1783003401762799600,3.011799560546875,-0.076095982208848,0.0030278964538127183,-0.008099528029141947
1783003401772850400,3.021850341796875,-0.07131050149798393,0.01008683852199465,-0.0045337070400360965
1783003401782901500,3.031901611328125,-0.07565408366024494,0.022017441747151315,-0.008332131208619102
1783003401792953600,3.04195361328125,-0.07596446478366851,0.023763299033790826,-0.003548833321686834
1783003401803004400,3.05200439453125,-0.07686229040622711,0.013084887826815246,0.0019551069899927825
1783003401813055500,3.062055419921875,-0.0684925214678049,0.002714519655704498,0.01068449388789013
1783003401823107600,3.072107666015625,-0.07807108167409896,-0.011259389432705939,0.012494931710185482
1783003401833158400,3.082158447265625,-0.07777239098846912,-0.016920849260501563,0.012868751724949105
1783003401843209500,3.09220947265625,-0.07881868517100811,-0.019307123342528938,0.013578580494737251
1783003401853261600,3.102261474609375,-0.07551847458183765,-0.005118329394422471,0.004524190293019637
1783003401863312400,3.1123125,-0.08075111453831195,0.011421667322330176,0.0002273881482426077
1783003401873363500,3.122363525390625,-0.07312368839979172,0.013151048398204147,0.0013242800068575889
1783003401883414500,3.13241455078125,-0.06968319255709647,0.010611264254897832,-0.002560160211054608
1783003401893466400,3.14246630859375,-0.07536766793429851,0.0028818025140091774,-0.011871593913761897
1783003401903517700,3.152517578125,-0.07193301731050014,-0.009515906766243278,-0.01757823545699939
1783003401913568800,3.16256884765625,-0.06834522195160389,-0.011427220280282199,-0.007336653897864744
1783003401923620600,3.17262060546875,-0.07688508675992488,0.005452200991287827,0.01653137501887977
1783003401933671700,3.182671630859375,-0.07808043402433396,0.018113639241643248,0.02292412652960047
1783003401943722800,3.19272265625,-0.07807283523976802,0.018213446354307234,0.01633437287574634
1783003401953773800,3.20277392578125,-0.07851531831026076,-0.0060620399853214615,0.00868626014222391
1783003401963825700,3.21282568359375,-0.07372223881483078,-0.015927600439451635,0.011186479460122063
1783003401973876700,3.222876708984375,-0.07805471506118775,-0.021637137192673978,-0.005540098470449447
1783003401983927800,3.232927734375,-0.08702712606787681,-0.01996091107614338,-0.004496178908087313
1783003401993980000,3.24297998046875,-0.08448094871640205,-0.004153977874293923,-0.011455268197832628
1783003402004030700,3.25303076171875,-0.07609948934018611,0.011648169554583728,-0.009007208325434475
1783003402014081800,3.263081787109375,-0.06636836892068386,0.019882146751508116,0.0027390147761441764
1783003402024134000,3.2731337890625,-0.0739957950592041,0.008374152852594852,0.007584226317610591
1783003402034185000,3.28318505859375,-0.07295066992044448,-0.0032776334311813114,0.007724767299462109
1783003402044235800,3.29323583984375,-0.07519991015195845,-0.0070764411922544235,0.016447295198310164
1783003402054286600,3.30328662109375,-0.07804477818906307,-0.0004293313279747963,0.007835050140367821
1783003402064339000,3.3133388671875,-0.07969429896175861,-0.0028378537744283673,0.0018363303153775632
1783003402074390000,3.32339013671875,-0.06801905873715877,-0.018015001172758636,0.011696858401363714
1783003402084440800,3.33344091796875,-0.07683131074607372,-0.007033223105035722,0.003951897697243839
1783003402094493000,3.343492919921875,-0.08280804706811905,-0.004742153025791049,-0.003629296413064003
1783003402104544000,3.3535439453125,-0.0753203216612339,-0.0039833705477416515,-0.011444399743946268
1783003402114594800,3.3635947265625,-0.08116086438298224,0.010906703537516296,-0.014625157805066555
1783003402124645600,3.373645751953125,-0.07682605004906654,0.007417253986559808,-0.0147360069015529
1783003402134698000,3.383697998046875,-0.07562778017520905,-0.0014763196302577852,0.00040277211461216207
1783003402144748800,3.393748779296875,-0.07248188336491584,-0.007412833539769053,-0.0063487845048308365
1783003402154799900,3.4037998046875,-0.07562661113142967,-0.022031360674649475,0.00016550189317204056
1783003402164852000,3.41385205078125,-0.08026011615097522,-0.011541019385680555,0.010962744573689997
1783003402174903000,3.423903076171875,-0.08265139520168303,-0.003512136306799948,0.01690768838482909
1783003402184953900,3.433953857421875,-0.07592004112005234,0.005126476168259978,0.019449719284148886
1783003402195004700,3.444004638671875,-0.08235153547227382,0.017665968539379535,0.0228002718210686
1783003402205057000,3.45405712890625,-0.07696107460558414,0.011645575738698243,0.00867964773834683
1783003402215107800,3.46410791015625,-0.08234861286282538,0.0026958880204707384,-0.007440013807639479
1783003402225159000,3.474158935546875,-0.08055354613959789,0.0034817411685362457,-0.022649108980502933
1783003402235211000,3.4842109375,-0.07980126646757126,0.007682152000442147,-0.024670193878794086
1783003402245261800,3.49426171875,-0.07457213364243508,-0.005004932147823274,-0.02664120169081725
1783003402255313000,3.50431298828125,-0.0741267279624939,-0.012164046654850243,-0.011173583445930852
1783003402265365000,3.514364990234375,-0.07622340798079967,-0.01589388083294034,0.007950931604998187
1783003402275415800,3.524415771484375,-0.07892097650170325,-0.022148009324260056,0.023237932585971427
1783003402285467000,3.534466796875,-0.08550795367658137,-0.020575572375766932,0.04027583235488273
1783003402295518000,3.54451806640625,-0.0817640909731388,-0.008189918859489262,0.0419758229394909
1783003402305569800,3.55456982421875,-0.08476151922345161,0.0022814254680648444,0.029461410210700704
1783003402315620900,3.564620849609375,-0.08341244270205497,0.0004943228555843234,0.011743501421529799
1783003402325672000,3.574671875,-0.07742226237654685,0.0045976299885660404,0.002943076847726479
1783003402335723800,3.584723876953125,-0.08879004408717155,0.007208652737177908,-0.019965642050188033
1783003402345774800,3.59477490234375,-0.08729366804957389,0.019777225072309373,-0.03549531094692647
1783003402355826000,3.604825927734375,-0.08131167103052139,0.023726985611394046,-0.038758687523892145
1783003402365877800,3.614877685546875,-0.06471008031964302,0.03589333382118493,-0.016283309408789498
1783003402375928800,3.6249287109375,-0.06725508862733841,0.01699227052889764,-0.004604808648023754
1783003402385980000,3.63497998046875,-0.07145195579528808,-0.018334478918090463,0.018543600757280364
1783003402396031000,3.645031005859375,-0.08162614380717277,-0.06158774704802781,0.026401428985036907
1783003402406082800,3.655082763671875,-0.09104279145002364,-0.0702025037234649,0.02601940739750862
1783003402416134000,3.6651337890625,-0.08146013959050179,-0.05845397906694561,0.02300936626079492
1783003402426185000,3.67518505859375,-0.06993102983832358,-0.011468867464922369,0.012090597826149314
1783003402436236800,3.68523681640625,-0.07621756276190281,0.044115766710788006,0.00961141216312535
1783003402446288000,3.695287841796875,-0.07831132017076015,0.06908376535922288,0.002359860999137163
1783003402456339000,3.7053388671875,-0.0727805740505457,0.043222142339311535,0.005109908625949174
1783003402466390000,3.71539013671875,-0.0819078833580017,0.01401018597818911,-0.008121776393568142
1783003402476441900,3.72544189453125,-0.08399930267930031,-0.017793540441803632,-0.012142136217141523
1783003402486493000,3.735492919921875,-0.08609306008815765,-0.02832019515316933,-0.025055147208925335
1783003402496544000,3.7455439453125,-0.07996434807479381,-0.014871113656461238,-0.003356571285752579
1783003402506595800,3.755595947265625,-0.07592354825139046,-0.00011551613844931124,0.009491804371448233
1783003402516647000,3.76564697265625,-0.0649982496112585,0.004419789203628897,0.027816739143058655
1783003402526698000,3.775697998046875,-0.08160802362859249,-0.009216996884904802,0.02415296507165767
1783003402536748800,3.785748779296875,-0.08594868318140506,-0.016515519862622022,0.03436523833791725
1783003402546801000,3.79580078125,-0.08205927452743053,-0.03337039121482521,0.022586446407297626
1783003402556852000,3.80585205078125,-0.07771861497461795,-0.029635880861617624,0.017468929863628
1783003402566902800,3.81590283203125,-0.07382277657985686,-0.013733195667713879,-0.005897853266401216
1783003402576955000,3.825954833984375,-0.07741641715764999,0.01669778109434992,-0.011182342141121624
1783003402587006000,3.836005859375,-0.07487491598129271,0.028120325199514625,-0.020471417881548402
1783003402597056800,3.846056884765625,-0.07682020483016967,0.04157674975246191,-0.02472440828406252
1783003402607107800,3.85610791015625,-0.07741349454820155,0.025890702983923253,-0.019733979585627094
1783003402617160000,3.866159912109375,-0.0810059660822153,0.006869191649742424,-0.007790434680506587
1783003402627210800,3.876210693359375,-0.08474982878565787,-0.00891772167738527,0.002218488900223747
1783003402637261800,3.88626171875,-0.08520341777205467,-0.02437375908233225,0.01623001745212823
1783003402647314000,3.89631396484375,-0.08415127837061881,-0.02629895499125123,0.0163496435101144
1783003402657364700,3.90636474609375,-0.0733773708999157,-0.02167122212536633,0.016322581973252818
1783003402667415800,3.916415771484375,-0.07067746429145336,-0.021066461165249347,0.000530444481736049
1783003402677468000,3.926468017578125,-0.07740823385119437,-0.018591778147406875,-0.009293441388290375
1783003402687518700,3.936518798828125,-0.0775555333673954,-0.009817227800376712,-0.016708065026346593
1783003402697569800,3.94656982421875,-0.08383563655018805,-0.0012534341271966695,-0.01441571630546823
1783003402707620900,3.956620849609375,-0.08578034087717533,0.013944682993926106,0.0014088621509261428
1783003402717672700,3.966672607421875,-0.0750064334064722,0.026776765103451908,-0.00520490256617777
1783003402727723800,3.976723876953125,-0.08368541442453861,0.028231384358555076,0.014988867417769506
1783003402737774800,3.98677490234375,-0.08443067983388901,0.015975677364878354,0.014796769778616726
1783003402747826700,3.99682666015625,-0.07754618101716042,-0.012378529655747116,0.007762277165101841
1783003402757877800,4.006877685546875,-0.07979132959544658,-0.030893114381097254,0.006205750171793625
1783003402767928800,4.0169287109375,-0.07949205438792704,-0.024975889693945645,0.013059899516031145
1783003402777980000,4.02697998046875,-0.07828969286084175,-0.0155007167968899,0.01141815105783753
1783003402788031700,4.03703173828125,-0.07364508192539215,0.00008753215298056601,-0.00142835230268538
1783003402798082800,4.047082763671875,-0.07588906145989895,0.006529438301362097,-0.02200818986161612
1783003402808134000,4.0571337890625,-0.07917991969883441,0.005001205820776522,-0.02438107473910786
1783003402818185700,4.067185791015625,-0.07319383102655411,-0.011958842938952148,-0.02393523066774942
1783003402828236800,4.07723681640625,-0.07499065131545066,-0.009264233560115099,-0.0056638983800541606
1783003402838288000,4.087287841796875,-0.0755903707742691,-0.003558751927502453,0.01404754971335642
1783003402848339000,4.0973388671875,-0.08037935861647129,0.01305310444906354,0.02869738530195318
1783003402858390800,4.107390869140625,-0.07767886748611927,0.023717998587340115,0.036289895390719175
1783003402868441900,4.11744189453125,-0.07782792056798934,0.02809091644193977,0.02706383841652423
1783003402878493000,4.127492919921875,-0.074531217110157,0.018744594088941812,0.011271025071572512
1783003402888544800,4.137544677734375,-0.07751812396645545,-0.011744140742346644,-0.0037973647226579484
1783003402898595800,4.147595947265625,-0.07915829238891602,-0.03909698870070279,-0.03224546970496885
1783003402908646700,4.157646728515625,-0.0776601627856493,-0.03316076705213636,-0.0446679572334513
1783003402918697500,4.167697509765625,-0.08544307174682617,-0.025233152390643953,-0.03874085960625671
1783003402928749800,4.177749755859375,-0.0830541307836771,-0.0002914572272449732,-0.018687420541606842
1783003402938801000,4.18780078125,-0.08425356970131397,0.010476714622415602,0.006185584166599437
1783003402948851700,4.197851806640625,-0.07287994277179241,0.01023421110343188,0.02944339049682021
1783003402958903800,4.20790380859375,-0.08126081762611866,-0.011541165516152977,0.04050158566846512
1783003402968955000,4.217954833984375,-0.08096388050615787,-0.013998203279450535,0.04093208604021929
1783003402979005700,4.228005615234375,-0.07961129685342311,-0.012303199397213756,0.03290758687551133
1783003402989056500,4.238056396484375,-0.0763181005269289,-0.0036078152336180207,0.020226466677151618
1783003402999108900,4.24810888671875,-0.08484744394123554,-0.0011830357721075416,-0.014523962452914565
1783003403009159700,4.25815966796875,-0.07527063730061054,0.008708207112550735,-0.0318507073668763
1783003403019210500,4.26821044921875,-0.0739256524324417,0.01335676357075572,-0.02237421929556876
1783003403029262800,4.278262939453125,-0.07228840661942959,0.007847279434278607,-0.02454572724890895
1783003403039314000,4.28831396484375,-0.07633738974928855,-0.007059526590071618,-0.01332553731543012
1783003403049364700,4.29836474609375,-0.06840308961868286,-0.007451448517106473,-0.00493044213950634
1783003403059415600,4.30841552734375,-0.07633563618361949,-0.005654957021772861,0.01632363228602335
1783003403069468000,4.318468017578125,-0.07768237461745739,-0.008918233134038746,0.023584554066555574
1783003403079518700,4.328518798828125,-0.08322130404412746,0.0026621684139594435,0.03511967343441211
1783003403089569800,4.33856982421875,-0.07273965751826762,-0.0015047420071437954,0.0314533603460528
1783003403099622000,4.348621826171875,-0.07437924141883849,-0.008655015620589256,0.016974835336906833
1783003403109672700,4.358672607421875,-0.07422375859618187,-0.0008215455159544944,-0.006746843911707401
1783003403119723800,4.368723876953125,-0.07646656908690928,-0.005640051713585853,-0.01847118397504091
1783003403129775900,4.37877587890625,-0.07287702016234397,-0.005902611639909446,-0.033162885943986475
1783003403139826700,4.38882666015625,-0.08051496769487858,-0.001409099612943828,-0.026975173752382398
1783003403149877800,4.398877685546875,-0.07213759997189044,0.0071721566516906015,-0.01606976712280884
1783003403159928800,4.4089287109375,-0.07662848165035248,0.02337791644539684,-0.0032391189185436813
1783003403169980700,4.418980712890625,-0.06944996832311152,0.031839601450972255,0.02027246124334633
1783003403180031700,4.42903173828125,-0.0838116711527109,0.015303769452683627,0.028326423964556306
1783003403190082800,4.439082763671875,-0.08440788348019122,0.002339439265616238,0.02086923982640728
1783003403200134000,4.4491337890625,-0.0682487758398056,-0.03337207171525806,0.021318837624276055
1783003403210185700,4.459185791015625,-0.07887479927241801,-0.05394340630732476,0.0086981789088808
1783003403220236800,4.46923681640625,-0.08500760293900966,-0.059962045542337,0.002666680192295462
1783003403230288000,4.479287841796875,-0.07617723075151443,-0.026457579619064926,-0.002135103199398145
1783003403240339700,4.489339599609375,-0.07152677459716797,0.0048232189053669565,0.0016818064739461988
1783003403250390800,4.499390869140625,-0.06658756462931632,0.025731201573275027,0.00583593961186707
1783003403260441900,4.50944189453125,-0.08050795343220234,0.02968527296129614,0.010759184825606644
1783003403270493700,4.51949365234375,-0.0790104083508253,0.012114143098518252,0.01781731404303573
1783003403280544800,4.529544677734375,-0.07093816105425357,-0.001156805352307856,0.006354757587891072
1783003403290595800,4.539595947265625,-0.07961655755043029,-0.015930669179372487,0.009248040477139875
1783003403300646700,4.549646728515625,-0.08859656734168529,-0.010019837700389325,-0.007256985390931368
1783003403310698800,4.55969873046875,-0.08320844456255436,-0.0019902605017647146,0.0006282149009406566
1783003403320749800,4.569749755859375,-0.07827391076982021,0.012318104705400764,0.0034398565218783914
1783003403330801000,4.57980078125,-0.0736386521846056,0.020360468320362268,0.0005043601924087852
1783003403340851700,4.589851806640625,-0.08426292205154895,0.007212415596842765,-0.011064734510285779
1783003403350903800,4.59990380859375,-0.08052315100133418,0.0021253581235185265,-0.005629155860235914
1783003403360955000,4.609954833984375,-0.07423778712153434,-0.026040815511718392,-0.009917391106067226
1783003403371005700,4.620005615234375,-0.0742395406872034,-0.035132980440557,-0.02207862474932335
1783003403381057800,4.630057861328125,-0.07170037759840488,-0.02482208737172186,-0.015926029536873103
1783003403391108900,4.64010888671875,-0.08890753298699855,0.011941599543206394,0.0023038382292725145
1783003403401159700,4.65015966796875,-0.08531623049676418,0.037825726655870674,0.008596800893638283
1783003403411210800,4.660210693359375,-0.07962532537877559,0.04281801851782947,0.004055659465817735
1783003403421262800,4.670262939453125,-0.057632104757428165,0.02373348841741681,0.00587249962943606
1783003403431313700,4.680313720703125,-0.06989771209061145,0.005012677062861621,0.01008167828968726
1783003403441364700,4.69036474609375,-0.07393558930456638,-0.01843443216122687,0.017414952920377254
1783003403451416800,4.700416748046875,-0.07467851662635802,-0.019426219677552578,0.014780549296177923
1783003403461467600,4.710467529296875,-0.07811842794716357,-0.011332564266771077,0.016762452961551023
1783003403471518700,4.720518798828125,-0.07692074259519577,-0.026597134220227598,-0.000100135906226933
1783003403481569800,4.73056982421875,-0.08440145373940468,-0.03997775359060615,-0.012778580090310424
1783003403491621600,4.74062158203125,-0.06539864710569382,-0.04759111467115581,-0.014294007888250053
1783003403501672700,4.750672607421875,-0.0758738638907671,-0.042974231992848215,-0.0030779278743080793
1783003403511723800,4.760723876953125,-0.08679974705278873,-0.00997855584193021,0.015364358799811451
1783003403521775600,4.770775634765625,-0.09218553174436092,0.024120551506243645,0.019141877177683637
1783003403531826700,4.78082666015625,-0.0698871906965971,0.03976243033949285,0.021843363821879028
1783003403541877800,4.790877685546875,-0.07377952196002006,0.05373418400343507,0.024426512182876465
1783003403551928800,4.8009287109375,-0.08036182295978068,0.030522308307327328,0.01610746878469363
1783003403561980700,4.810980712890625,-0.08379355097413063,0.020753413160704073,0.01835804245676845
1783003403572031700,4.82103173828125,-0.0769061295479536,0.0051462037820369,-0.012493598269624635
1783003403582082800,4.831082763671875,-0.08034194921553134,-0.014873890135437249,-0.02807864148225635
1783003403592134700,4.841134765625,-0.0754074154227972,-0.03289601516872644,-0.039296392863476644
1783003403602185700,4.851185791015625,-0.07406593768596649,-0.032085977427475154,-0.03588085793210193
1783003403612236800,4.86123681640625,-0.07391688460409641,-0.0325845015341416,-0.016221770213590933
1783003403622288000,4.871287841796875,-0.08124854266643523,-0.02784282343238592,0.015206163430260494
1783003403632339700,4.881339599609375,-0.08738660703003406,-0.014602343185059725,0.032276659427676345
1783003403642390800,4.891390869140625,-0.07885901718139648,-0.0064546925647184245,0.04445651557301171
1783003403652441900,4.90144189453125,-0.07451952667236328,-0.003594773088954389,0.046145573771651835
1783003403662493700,4.91149365234375,-0.07392448338866234,0.025113617664203048,0.03817910667080432
1783003403672544800,4.921544677734375,-0.07077858657836913,0.031046880170702933,0.01997286637541838
1783003403682595800,4.931595947265625,-0.0745189421504736,0.02134677594397217,0.002789731183229014
1783003403692646700,4.941646728515625,-0.08200023781657219,0.013509396849200129,-0.038223475535493344
1783003403702698800,4.95169873046875,-0.08828735526204108,0.00007054448556154966,-0.0340633236487396
1783003403712749800,4.961749755859375,-0.07557225059568881,-0.023679712403565645,-0.03235754264416173
1783003403722800600,4.971800537109375,-0.079167644739151,-0.02197656174749136,-0.017280321089504287
1783003403732852700,4.981852783203125,-0.07513093656897545,-0.014745404917560517,0.013504218350583687
1783003403742903800,4.99190380859375,-0.07558043390214443,-0.01894325846619904,0.03720376796578057
1783003403752954600,5.00195458984375,-0.07213759997189044,-0.004903481067344546,0.024674075469467788
1783003403763005700,5.012005615234375,-0.07722177136838436,0.0008656769186258316,0.03630696525652893
1783003403773057800,5.022057861328125,-0.08036649913489818,-0.0026002090936526655,0.030544730201689525
1783003403783108600,5.032108642578125,-0.08081541194617747,-0.003009484014287591,0.00556671248273924
1783003403793159700,5.04215966796875,-0.07842121028602123,-0.007752440757676959,-0.022137414865009485
1783003403803211800,5.052211669921875,-0.07557868033647537,0.003646466743573546,-0.02851661277441308
1783003403813262600,5.0622626953125,-0.0721393535375595,0.015362550435215235,-0.024257146965339777
1783003403823313700,5.072313720703125,-0.08336918808221816,0.021487755317240953,-0.01830901568327099
1783003403833364700,5.08236474609375,-0.07499123583734035,0.01177530306559056,-0.00961529375379905
1783003403843416600,5.09241650390625,-0.0821826086461544,-0.007818016807176172,-0.0010272058895789086
1783003403853467600,5.102467529296875,-0.08503449094593525,-0.008701229382492601,0.012121997611410916
1783003403863518700,5.112518798828125,-0.07545417717397213,-0.00835577694568783,0.014363045403314753
1783003403873569800,5.12256982421875,-0.07710194438099861,0.00502988392598927,0.022387151842378078
1783003403883621600,5.13262158203125,-0.07635492540597916,0.00985076474379748,0.014607923542475327
1783003403893672700,5.142672607421875,-0.06993219888210296,-0.025493155033700168,-0.0005651139363180846
1783003403903723300,5.15272314453125,0.40604689849913117,-0.03651910103671253,0.03850763537227176
1783003403913775000,5.162775146484375,-0.8433376610457897,-0.06418912518545984,-0.284331649681367
1783003403923826200,5.172826171875,-0.14019056097865104,0.017995529287308454,0.3912427856642753
1783003403933877200,5.182877197265625,-0.1272954235702753,-0.12101057114712893,-0.11378115874971262
1783003403943928300,5.19292822265625,0.3333382206410169,0.17967581834457813,-0.06871195463845506
1783003403953980200,5.202980224609375,-0.16347791306376455,0.06300773338116705,-0.00885446544913575
1783003403964031200,5.21303125,-0.3485240993350744,0.007217749359086156,0.1128666559869889
1783003403974082300,5.223082275390625,-0.29210838463008404,0.0004805500585585832,-0.04189182531731203
