time,seconds_elapsed,z,y,x
1783003398827817700,0.076817626953125,-0.003923369105905294,0.03256593272089958,0.019304722547531128
1783003398837869600,0.08686962890625,-0.003067428944632411,-0.030193056911230087,-0.005598230753093958
1783003398847920600,0.096920654296875,-0.003221892286092043,-0.04861414059996605,-0.012950419448316097
1783003398857971700,0.1069716796875,-0.004758269991725683,-0.014937670901417732,-0.0007041397620923817
1783003398868023600,0.1170234375,-0.005093561951071024,0.030409038066864014,0.016582705080509186
1783003398878074600,0.12707470703125,-0.0030213561840355396,0.04182308167219162,0.024142354726791382
1783003398888125700,0.137125732421875,-0.004034156445413828,0.01483513880521059,0.010962103493511677
1783003398898177300,0.14717724609375,-0.005032309330999851,-0.01913188211619854,-0.0014703312190249562
1783003398908228400,0.157228271484375,-0.003352387109771371,-0.022422218695282936,-0.005472263321280479
1783003398918279400,0.167279541015625,-0.0046639940701425076,0.0011496866354718804,0.005344697739928961
1783003398928331300,0.177331298828125,-0.002713228575885296,0.023870445787906647,0.012379171326756477
1783003398938382300,0.18738232421875,-0.004487160127609968,0.022419821470975876,0.016814133152365685
1783003398948433400,0.197433349609375,-0.004504204262048006,0.002329733222723007,0.006947388406842947
1783003398958484500,0.207484375,-0.004236023873090744,-0.012407933361828327,0.00321949552744627
1783003398968536300,0.217536376953125,-0.0027270768769085407,-0.006887999828904867,0.002198705682530999
1783003398978587400,0.22758740234375,-0.004563592839986086,0.007939948700368404,0.009443568997085094
1783003398988638500,0.237638427734375,-0.002522812457755208,0.020114323124289513,0.013711018487811089
1783003398998690300,0.247690185546875,-0.00484189298003912,0.011200989596545696,0.012006063014268875
1783003399008741400,0.257741455078125,-0.004859736189246178,-0.0018522285390645266,0.0057412427850067616
1783003399018792400,0.26779248046875,-0.003097256412729621,-0.007392668630927801,0.00564004248008132
1783003399028844300,0.27784423828125,-0.004613926634192467,-0.0019342538435012102,0.003695668652653694
1783003399038895400,0.287895263671875,-0.004661863669753075,0.009938118048012257,0.011464109644293785
1783003399048946400,0.297946533203125,-0.0035950010642409325,0.011810853146016598,0.011306450702250004
1783003399058998300,0.307998291015625,-0.005198223982006311,0.006794256623834372,0.010851316154003143
1783003399069049300,0.31804931640625,-0.004592088516801596,0.0011086739832535386,0.004452539142221212
1783003399079100400,0.328100341796875,-0.004644286818802357,-0.0004673847579397261,0.005860285833477974
1783003399089152300,0.33815234375,-0.005762547720223665,0.005780124571174383,0.008833439089357853
1783003399099203300,0.348203369140625,-0.0027955202385783195,0.009467271156609058,0.010392187163233757
1783003399109254400,0.35825439453125,-0.002386192325502634,0.00708720413967967,0.011983691714704037
1783003399119305500,0.368305419921875,-0.005015797447413206,0.0024370586033910513,0.00589757040143013
1783003399129357300,0.378357421875,-0.00529489666223526,-0.0025329324416816235,0.005053880624473095
1783003399139408400,0.388408447265625,-0.004032824654132128,-0.00036139096482656896,0.00726323900744319
1783003399149459500,0.39845947265625,-0.004975317511707544,0.00455773388966918,0.008250739425420761
1783003399159511300,0.40851123046875,-0.007056844420731068,0.009067530743777752,0.008581770583987236
1783003399169562400,0.418562255859375,-0.004862399306148291,0.008835569024085999,0.00788455456495285
1783003399179613400,0.428613525390625,-0.002834402257576585,0.005193696822971106,0.006193980108946562
1783003399189665500,0.43866552734375,-0.0009901633020490408,0.005525526590645313,0.009034774266183376
1783003399199716400,0.44871630859375,-0.003965180367231369,0.003299922915175557,0.00869069341570139
1783003399209767400,0.458767333984375,0.0005044027348048985,0.004110322799533606,0.01019671093672514
1783003399219819500,0.468819580078125,-0.005420598201453686,0.0025861957110464573,0.0038224351592361927
1783003399229870600,0.47887060546875,-0.0035633095540106297,0.00037683729897253215,0.006487193983048201
1783003399239921400,0.48892138671875,-0.004582501482218504,0.0009898969437927008,0.006960171274840832
1783003399249973500,0.498973388671875,-0.005544967483729124,0.0043707797303795815,0.00878150761127472
1783003399260024600,0.509024658203125,-0.003471164032816887,0.008923985995352268,0.008445682935416698
1783003399270075600,0.51907568359375,-0.003772101365029812,0.007133277133107185,0.007514641620218754
1783003399280127500,0.52912744140625,-0.0036493295338004827,0.007641141768544912,0.00878097489476204
1783003399290178600,0.539178466796875,-0.004024568945169449,0.006040315609425306,0.009551960043609142
1783003399300229600,0.549229736328125,-0.004447478801012039,0.005365204066038132,0.00839934404939413
1783003399310280400,0.559280517578125,-0.004248540848493576,0.00754952896386385,0.007312241476029158
1783003399320332500,0.56933251953125,-0.004293282050639391,0.0008274441352114081,0.008008657954633236
1783003399330383600,0.579383544921875,-0.0015456987312063575,0.003197657410055399,0.007990814745426178
1783003399340434400,0.589434326171875,-0.005335377063602209,0.0011747203534469008,0.007278685458004475
1783003399350486500,0.599486572265625,-0.003634682158008218,0.0032168321777135134,0.005402222275733948
1783003399360537600,0.60953759765625,-0.006670153234153986,0.004333761986345053,0.008795888163149357
1783003399370588400,0.61958837890625,-0.003876763628795743,0.007334345486015081,0.00592420157045126
1783003399380640500,0.629640625,-0.003424558788537979,0.005564941558986902,0.009058210067451
1783003399390691600,0.639691650390625,-0.0032107068691402674,0.006826214492321014,0.008592955768108368
1783003399400742700,0.64974267578125,-0.002555835759267211,0.005633650813251734,0.008114385418593884
1783003399410794500,0.65979443359375,-0.003837881376966834,0.005406483076512814,0.008449943736195564
1783003399420845600,0.669845458984375,-0.003172357566654682,0.003959854133427143,0.010694456286728382
1783003399430896600,0.679896728515625,-0.004732703324407339,0.004126834217458963,0.008730640634894371
1783003399440948500,0.689948486328125,-0.003835218260064721,0.0024378576781600714,0.006090383045375347
1783003399450999600,0.69999951171875,-0.003937217406928539,0.0020961740519851446,0.008977249264717102
1783003399461050600,0.710050537109375,-0.007675762753933668,0.0026551715563982725,0.0052442969754338264
1783003399471101400,0.720101318359375,-0.0036671727430075407,0.0037707698065787554,0.003674097126349807
1783003399481153500,0.730153564453125,-0.002886333968490362,0.0029917950741946697,0.009812949225306511
1783003399491204600,0.74020458984375,-0.0034791536163538694,0.004960936494171619,0.006976949516683817
1783003399501255400,0.75025537109375,-0.004677043296396732,0.005376656074076891,0.007413707673549652
1783003399511307500,0.7603076171875,-0.0044259075075387955,0.004284227266907692,0.007666707970201969
1783003399521358600,0.770358642578125,-0.001976331928744912,0.0064981128089129925,0.007959389127790928
1783003399531409400,0.780409423828125,-0.003944141324609518,0.005520466715097427,0.010004431009292603
1783003399541461500,0.79046142578125,-0.005262672435492277,0.005348426289856434,0.007394533138722181
1783003399551512600,0.8005126953125,-0.00264771468937397,0.005648298189043999,0.00872238539159298
1783003399561563400,0.8105634765625,-0.0054845139384269714,0.004837898537516594,0.006707437336444855
1783003399571615500,0.820615478515625,-0.004279167391359806,0.003881823504343629,0.008681106381118298
1783003399581666600,0.83066650390625,-0.005243497900664806,0.00321949552744627,0.0073380740359425545
1783003399591717400,0.84071728515625,-0.004807804711163044,0.00472551304847002,0.006429936271160841
1783003399601768400,0.8507685546875,-0.005574794951826334,0.0044349622912704945,0.005666674114763737
1783003399611820500,0.860820556640625,-0.0039880839176476,0.006660832092165947,0.006125004030764103
1783003399621871400,0.870871337890625,-0.003221625927835703,0.0044264402240514755,0.007481884676963091
1783003399631922400,0.88092236328125,-0.00504003232344985,0.005991047248244286,0.00726536987349391
1783003399641974500,0.890974609375,-0.004073305055499077,0.002805107505992055,0.0080336919054389
1783003399652025300,0.901025390625,-0.0035800873301923275,0.0025361282750964165,0.007724498864263296
1783003399662076400,0.911076416015625,-0.0035779569298028946,0.003988616168498993,0.008393218740820885
1783003399672128500,0.92112841796875,-0.0041404166258871555,0.0030567762441933155,0.0067785438150167465
1783003399682179300,0.931179443359375,-0.002796052722260356,0.002412024885416031,0.007679224945604801
1783003399692230400,0.94123046875,-0.0036448021419346333,0.002035187790170312,0.007761782966554165
1783003399702282500,0.951282470703125,-0.005028847139328718,0.0036107138730585575,0.0038514635525643826
1783003399712333600,0.96133349609375,-0.0005901564727537334,0.0029225528705865145,0.009498430415987968
1783003399722384400,0.97138427734375,-0.002936934120953083,0.0038517299108207226,0.008169779554009438
1783003399732436500,0.9814365234375,-0.004071440547704697,0.00455666845664382,0.007114368490874767
1783003399742487600,0.991487548828125,-0.004072239622473717,0.0029702235478907824,0.006644587032496929
1783003399752538400,1.001538330078125,-0.005606752820312977,0.006184126250445843,0.009010273031890392
1783003399762590500,1.011590576171875,-0.004460528492927551,0.0038099181838333607,0.009466205723583698
1783003399772641500,1.0216416015625,-0.004096474498510361,0.005076251458376646,0.005932990461587906
1783003399782692400,1.0316923828125,-0.0023907197173684835,0.004083691164851189,0.008831041865050793
1783003399792743400,1.041743408203125,-0.0022972426377236843,0.004437092691659927,0.008284294977784157
1783003399802795500,1.05179541015625,-0.004099137615412474,0.005368666257709265,0.006130330264568329
1783003399812846300,1.061846435546875,-0.005790777504444122,0.005034173373132944,0.008586564101278782
1783003399822897400,1.0718974609375,-0.0034852789249271154,0.004598480183631182,0.010565824806690216
1783003399832949500,1.081949462890625,-0.0027427896857261658,0.004836833104491234,0.00911786500364542
1783003399843000300,1.092000244140625,-0.005780124571174383,0.00435986090451479,0.009502957575023174
1783003399853051400,1.102051513671875,-0.0011499529937282205,0.0054152715019881725,0.004926581867039204
1783003399863103500,1.112103515625,-0.00618146313354373,0.004673581570386887,0.007538343779742718
1783003399873154300,1.122154296875,-0.003364105010405183,0.004956675227731466,0.005735383834689856
1783003399883205400,1.132205322265625,-0.0038189729675650597,0.0035686357878148556,0.009301622398197651
1783003399893257500,1.142257568359375,-0.004415787290781736,0.00387303507886827,0.007090932689607143
1783003399903312400,1.1523125,-0.0034908715169876814,0.0035230957437306643,0.007592139765620232
1783003399913363500,1.162363525390625,-0.004085022956132889,0.007411310914903879,0.0066637615673244
1783003399923414500,1.17241455078125,-0.004611263517290354,0.007000918034464121,0.009035040624439716
1783003399933466400,1.18246630859375,-0.004553472623229027,0.006292250473052263,0.008863799273967743
1783003399943517400,1.192517333984375,-0.003798999357968569,0.0032431974541395903,0.011084608733654022
1783003399953568500,1.202568603515625,-0.005181446205824614,0.0036125779151916504,0.006551376078277826
1783003399963620400,1.212620361328125,-0.003072488820180297,0.004239219706505537,0.008303469978272915
1783003399973671400,1.22267138671875,-0.0026194851379841566,0.003932956140488386,0.009978597983717918
1783003399983722500,1.232722412109375,-0.0029047098942101,0.005106078926473856,0.010220146737992764
1783003399993774300,1.2427744140625,-0.004211523104459047,0.005021390039473772,0.008260859176516533
1783003400003825400,1.252825439453125,-0.000245543458731845,0.004039216320961714,0.009882458485662937
1783003400013876500,1.26287646484375,-0.00330205331556499,0.0059540290385484695,0.006551642436534166
1783003400023928300,1.27292822265625,-0.0029579729307442904,0.004039482679218054,0.010529872961342335
1783003400033979400,1.2829794921875,-0.00446825148537755,0.004363855812698603,0.011187939904630184
1783003400044030500,1.293030517578125,-0.004580903332680464,0.004984905011951923,0.010039318352937698
1783003400054081500,1.30308154296875,-0.005027248989790678,0.0036911412607878447,0.005784918554127216
1783003400064133400,1.31313330078125,-0.0029979203827679157,0.003169428091496229,0.0062309978529810905
1783003400074184400,1.323184326171875,-0.0020090886391699314,0.003628823207691312,0.007571633439511061
1783003400084235500,1.333235595703125,-0.005677326582372189,0.00464615086093545,0.007906924933195114
1783003400094287400,1.343287353515625,-0.0031989889685064554,0.005583849735558033,0.009047823026776314
1783003400104338400,1.35333837890625,-0.006879477761685848,0.003715908620506525,0.0064986455254256725
1783003400114389500,1.363389404296875,-0.0029739518649876118,0.0018466358305886388,0.008855543099343777
1783003400124441300,1.37344140625,-0.004832039587199688,0.002975283656269312,0.009499762207269669
1783003400134492400,1.383492431640625,-0.003808053908869624,0.005907956510782242,0.00878124125301838
1783003400144543500,1.39354345703125,-0.004488225560635328,0.006030461750924587,0.0059449742548167706
1783003400154595300,1.40359521484375,-0.004464789759367704,0.005833920557051897,0.005973736755549908
1783003400164646400,1.413646484375,-0.0036879454273730516,0.0036970002111047506,0.00900015328079462
1783003400174697500,1.423697509765625,-0.0033004553988575935,0.005564941558986902,0.008753543719649315
1783003400184748300,1.433748291015625,-0.0028716865926980972,0.007169495802372694,0.007816910743713379
1783003400194800400,1.44380029296875,-0.005643504671752453,0.005775064695626497,0.006472013890743256
1783003400204851500,1.4538515625,-0.003823234001174569,0.00205223192460835,0.006433664355427027
1783003400214902500,1.463902587890625,-0.004369981121271849,0.0052046156488358974,0.00857431348413229
1783003400224954400,1.473954345703125,-0.0032921996898949146,0.0007938882918097079,0.00914369709789753
1783003400235005400,1.48400537109375,-0.004688494838774204,0.0027055053506046534,0.0073511237278580666
1783003400245056500,1.494056396484375,-0.002828276949003339,0.0041611893102526665,0.007442736066877842
1783003400255108400,1.5041083984375,-0.00424135010689497,0.007355384528636932,0.010604441165924072
1783003400265159400,1.514159423828125,-0.00321816373616457,0.004636829718947411,0.008174839429557323
1783003400275210500,1.52421044921875,-0.00433029979467392,0.00529596209526062,0.007458182517439127
1783003400285262300,1.534262451171875,-0.00364719913341105,0.008934373036026955,0.007272560149431229
1783003400295313400,1.5443134765625,-0.004201935604214668,0.005420864559710026,0.010189520195126534
1783003400305364500,1.554364501953125,-0.006491455249488354,0.006186523009091616,0.005271194502711296
1783003400315415300,1.564415283203125,-0.003091131104156375,0.003041063668206334,0.007071757689118385
1783003400325467400,1.57446728515625,-0.0054943677969276905,0.000708134553860873,0.006147108506411314
1783003400335518500,1.5845185546875,-0.00424401368945837,0.00061279337387532,0.006381200160831213
1783003400345569300,1.5945693359375,-0.006204099860042334,0.004742024466395378,0.006065615452826023
1783003400355621400,1.604621337890625,-0.0026229473296552896,0.007261374965310097,0.008009723387658596
1783003400365672400,1.61467236328125,-0.0034903388004750013,0.004992361646145582,0.005228584166616201
1783003400375723300,1.62472314453125,-0.002672215923666954,0.006836600601673126,0.011440673843026161
1783003400385775400,1.634775390625,-0.003582217963412404,0.0054339137859642506,0.011968512088060379
1783003400395826400,1.644826416015625,-0.00347489258274436,0.00794660672545433,0.010522948578000069
1783003400405877200,1.654877197265625,-0.003014165675267577,0.003974767867475748,0.008346347138285637
1783003400415929600,1.6649296875,-0.00370072852820158,0.0041124531999230385,0.008902414701879025
1783003400425980400,1.67498046875,-0.004589958116412163,0.0010580739472061396,0.006582801695913076
1783003400436031200,1.68503125,-0.00446878420189023,0.003451723139733076,0.007991081103682518
1783003400446082300,1.695082275390625,-0.004282096866518259,0.004656270612031221,0.0062760054133832455
1783003400456134700,1.705134765625,-0.005286108236759901,0.004418983124196529,0.009897638112306595
1783003400466185200,1.715185302734375,-0.004840561654418707,0.00481393001973629,0.007156180217862129
1783003400476236300,1.725236328125,-0.004945756401866674,0.007414773106575012,0.005381449591368437
1783003400486288600,1.73528857421875,-0.005342567339539528,0.004727643448859453,0.010362626053392887
1783003400496339500,1.74533935546875,-0.003180613275617361,0.005240035708993673,0.007422762457281351
1783003400506390300,1.755390380859375,-0.004366785287857056,0.0019321233266964555,0.0080336919054389
1783003400516442600,1.765442626953125,-0.004914863966405392,0.005872536450624466,0.008951150812208652
1783003400526493400,1.775493408203125,-0.004068511072546244,0.0032376048620790243,0.00842837244272232
1783003400536544500,1.78554443359375,-0.003656520042568445,0.0052016861736774445,0.007683486212044954
1783003400546596600,1.7955966796875,-0.0031220237724483013,0.003572896821424365,0.0072925337590277195
1783003400556647400,1.8056474609375,-0.0032690302468836308,0.0035169704351574183,0.00830879621207714
1783003400566698500,1.815698486328125,-0.004923119675368071,0.007989482954144478,0.00737376045435667
1783003400576749600,1.82574951171875,-0.004192081745713949,0.006558034103363752,0.0074619110673666
1783003400586801400,1.835801513671875,-0.0041617220267653465,0.005760150961577892,0.010025469586253166
1783003400596852500,1.8458525390625,-0.0028045750223100185,0.004828577395528555,0.008679241873323917
1783003400606903600,1.855903564453125,-0.00430207047611475,0.003995806910097599,0.006119677796959877
1783003400616955400,1.865955322265625,-0.0036048549227416515,0.002748914761468768,0.008319715037941933
1783003400627006500,1.87600634765625,-0.0049191247671842575,0.002689526416361332,0.005148422904312611
1783003400637057500,1.8860576171875,-0.0046698530204594135,0.0049500176683068275,0.006161489523947239
1783003400647109600,1.896109619140625,-0.004549211822450161,0.0004990763845853508,0.005763879511505365
1783003400657160400,1.906160400390625,-0.00392736354842782,0.002752110594883561,0.00643899105489254
1783003400667211500,1.91621142578125,-0.0019172097090631723,0.004067179746925831,0.008784702979028225
1783003400677262600,1.9262626953125,-0.002814695006236434,0.001642637769691646,0.008476309478282928
1783003400687314400,1.936314453125,-0.0017044231062754989,0.005771602503955364,0.009660882875323296
1783003400697365500,1.946365478515625,-0.004957740660756826,0.0056712012737989426,0.006690393202006817
1783003400707416600,1.95641650390625,-0.004749747924506664,0.0037859496660530567,0.008363124914467335
1783003400717468400,1.966468505859375,-0.004642955027520657,0.0041188448667526245,0.009592173621058464
1783003400727519500,1.97651953125,-0.0051843756809830666,0.006896521896123886,0.008563927374780178
1783003400737570600,1.986570556640625,-0.0039278962649405,0.0038658445701003075,0.00791677925735712
1783003400747622400,1.996622314453125,-0.0047116647474467754,0.0030357372015714645,0.006295712664723396
1783003400757673500,2.006673583984375,-0.004947886802256107,0.0032266860362142324,0.008067513816058636
1783003400767724500,2.016724609375,-0.00603498937562108,0.004172640852630138,0.008812665939331055
1783003400777775600,2.026775634765625,-0.003308178624138236,0.0015816513914614916,0.009216135367751122
1783003400787827500,2.036827392578125,-0.003739078063517809,0.002855974016711116,0.007845939137041569
1783003400797878500,2.04687841796875,-0.0057348511181771755,0.005014466121792793,0.006171077024191618
1783003400807929600,2.0569296875,-0.005239769350737333,0.007532218471169472,0.01001961063593626
1783003400817981400,2.0669814453125,-0.004683168604969978,0.007375091779977083,0.00836711935698986
1783003400828032500,2.077032470703125,-0.0065108961425721645,0.0036607813090085983,0.0068120998330414295
1783003400838083600,2.08708349609375,-0.003775030840188265,0.00387410051189363,0.008013717830181122
1783003400848135400,2.097135498046875,-0.0038256309926509857,0.004710066597908735,0.010240653529763222
1783003400858186500,2.1071865234375,-0.0023675502743571997,0.005252019967883825,0.007096258923411369
1783003400868237600,2.117237548828125,-0.0033875408116728067,0.0023933828342705965,0.008627044036984444
1783003400878289400,2.127289306640625,-0.0039047268219292164,0.004088218789547682,0.008792426437139511
1783003400888340500,2.137340576171875,-0.0020775320008397102,0.0020000338554382324,0.007963384501636028
1783003400898387500,2.147387451171875,-0.0036993969697505236,0.003712446428835392,0.009153816848993301
1783003400908438500,2.1574384765625,-0.005449360236525536,0.006464823614805937,0.008905611000955105
1783003400918490400,2.167490478515625,-0.0023664848413318396,0.004563060123473406,0.007881891913712025
1783003400928541400,2.17754150390625,-0.004275705199688673,0.005678392015397549,0.009227853268384933
1783003400938592500,2.187592529296875,-0.00509915454313159,0.003802727675065398,0.009589243680238724
1783003400948644400,2.197644287109375,-0.004686897154897451,0.000746750389225781,0.00875141378492117
1783003400958695400,2.2076953125,-0.002210423583164811,0.0016615461790934205,0.00762915750965476
1783003400968746500,2.21774658203125,-0.008588162250816822,0.008467254228889942,0.009759154170751572
1783003400978798300,2.22779833984375,-0.0029198897536844015,0.012852149084210396,0.00899962056428194
1783003400988849400,2.237849365234375,-0.007736749015748501,0.006901581771671772,0.007956992834806442
1783003400998900500,2.247900390625,-0.0041132522746920586,-0.000368847802747041,0.007811317685991526
1783003401008951600,2.25795166015625,-0.003775297198444605,0.0030716899782419205,0.007556986063718796
1783003401019003400,2.26800341796875,-0.004913798533380032,0.019421901553869247,0.012352007441222668
1783003401029054500,2.278054443359375,-0.0038029940333217382,0.023268571123480797,0.013961355201900005
1783003401039105500,2.28810546875,-0.0038978024385869503,0.008132228627800941,0.011082478798925877
1783003401049157400,2.298157470703125,-0.0030514500103890896,-0.002409095410257578,0.006112753413617611
1783003401059208400,2.30820849609375,-0.004850149154663086,-0.007246993947774172,0.005094893276691437
1783003401069259500,2.318259521484375,-0.0033039175905287266,-0.00045593318645842373,0.003739877138286829
1783003401079311400,2.328311279296875,-0.004405667539685965,0.01848287135362625,0.014370683580636978
1783003401089362400,2.338362548828125,-0.0028719529509544373,0.03214835003018379,0.01878274232149124
1783003401099413500,2.34841357421875,-0.00318886898458004,0.01864931732416153,0.01528920792043209
1783003401109464300,2.35846435546875,-0.004318315535783768,-0.011413509026169777,0.0000774979853304103
1783003401119516400,2.368516357421875,-0.00652687530964613,-0.02329360507428646,-0.0013283847365528345
1783003401129567500,2.3785673828125,-0.003397394670173526,-0.00487251952290535,0.002237587934359908
1783003401139618300,2.388618408203125,-0.00376064982265234,0.006586529780179262,0.009675530716776848
1783003401149670700,2.398670654296875,-0.0038962047547101974,0.009520001709461212,0.009615343064069748
1783003401159721500,2.408721435546875,-0.005597964394837618,-0.0031755531672388315,0.004005926661193371
1783003401169772300,2.418772216796875,-0.005834985990077257,-0.01907089725136757,-0.0002258360618725419
1783003401179824600,2.42882470703125,-0.005141232628375292,-0.009127718396484852,0.0003408846096135676
1783003401189875700,2.438875732421875,-0.003920173272490501,0.010011089034378529,0.009840646758675575
1783003401199926300,2.44892626953125,-0.006392118986696005,0.02003948763012886,0.013895575888454914
1783003401209977300,2.458977294921875,-0.005967345088720322,0.013806626200675964,0.011051319539546967
1783003401220029700,2.46902978515625,-0.004168113227933645,-0.0034946000669151545,0.0043774377554655075
1783003401230080500,2.47908056640625,-0.0067870658822357655,-0.007877097465097904,0.002326271263882518
1783003401240131300,2.48913134765625,-0.003201119601726532,0.00236249016597867,0.007411577273160219
1783003401250183700,2.49918359375,-0.006172408349812031,0.013500362634658813,0.010558102279901505
1783003401260234500,2.509234375,-0.00518757151439786,0.012959741055965424,0.012517922557890415
1783003401270285300,2.519285400390625,-0.004107659682631493,0.006307430565357208,0.006741526070982218
1783003401280337700,2.529337646484375,-0.0024549018125981092,-0.002433063928037882,0.0049737198278307915
1783003401290388500,2.539388427734375,-0.002397910226136446,-0.0035308189690113068,0.008400142192840576
1783003401300439600,2.549439453125,-0.005998237524181604,0.0049524144269526005,0.008297078311443329
1783003401310490400,2.559490478515625,-0.0031678301747888327,0.010588196106255054,0.012084625661373138
1783003401320542500,2.56954248046875,-0.0005137237603776157,0.007703726179897785,0.011998872272670269
1783003401330593500,2.579593505859375,-0.0035654399544000626,0.0016026903176680207,0.007448328658938408
1783003401340644600,2.58964453125,-0.004063717555254698,0.0004527373821474612,0.00686216726899147
1783003401350696400,2.599696533203125,-0.007631021551787853,0.003555852686986327,0.007589210290461779
1783003401360747500,2.60974755859375,-0.004806739278137684,0.007010771427303553,0.013321930542588234
1783003401370798600,2.619798583984375,-0.0016831178218126297,0.00950988195836544,0.011284079402685165
1783003401380850400,2.629850341796875,-0.00538464542478323,0.003299656556919217,0.008343949913978577
1783003401390901500,2.639901611328125,-0.003463174682110548,0.0011488876771181822,0.004886367823928595
1783003401400952600,2.64995263671875,-0.0030242856591939926,0.001876995898783207,0.007699464913457632
1783003401411003600,2.660003662109375,-0.0034048515371978283,0.004246676806360483,0.005027248989790678
1783003401421055500,2.670055419921875,-0.003778493031859398,0.007565508130937815,0.00845367182046175
1783003401431106600,2.6801064453125,-0.0031201594974845648,0.005118062719702721,0.008869125507771969
1783003401441157600,2.69015771484375,-0.0035808864049613476,0.0034000577870756388,0.0057281930930912495
1783003401451209500,2.70020947265625,-0.002906840294599533,0.00205276464112103,0.0073077138513326645
1783003401461260500,2.710260498046875,-0.004462392535060644,0.004209392238408327,0.009876333177089691
1783003401471311600,2.7203115234375,-0.0054573495872318745,0.0057132793590426445,0.00845500361174345
1783003401481363500,2.730363525390625,-0.005663478281348944,0.005991579964756966,0.008791094645857811
1783003401491414500,2.74041455078125,-0.004324440844357014,0.0037651772145181894,0.006597182713449001
1783003401501465600,2.750465576171875,-0.0032314795535057783,0.002674879040569067,0.008330101147294044
1783003401511516700,2.7605166015625,-0.0011648666113615036,0.0008149272762238979,0.010171676985919476
1783003401521568500,2.770568603515625,-0.004736165516078472,0.0029643645975738764,0.006764429155737162
1783003401531619600,2.78061962890625,-0.0015723302494734526,0.003867442486807704,0.007956726476550102
1783003401541670700,2.790670654296875,-0.005583849735558033,0.0016346483025699854,0.007156446576118469
1783003401551722500,2.800722412109375,-0.004459463059902191,0.002837598090991378,0.0070587084628641605
1783003401561773600,2.810773681640625,-0.003923901356756687,0.005243764258921146,0.008952748961746693
1783003401571824600,2.82082470703125,-0.00401551416143775,0.007113303057849407,0.005945240613073111
1783003401581876500,2.83087646484375,-0.006780674215406179,0.004920190200209618,0.008137821219861507
1783003401591927600,2.840927490234375,-0.005588111001998186,0.005155613645911217,0.008170577697455883
1783003401601978600,2.850978515625,-0.003388606244698167,0.0021321268286556005,0.0073290192522108555
1783003401612029400,2.861029541015625,-0.00574816670268774,0.0020940436515957117,0.010093114338815212
1783003401622081500,2.87108154296875,-0.0029031119775027037,0.0015169365797191858,0.010423080064356327
1783003401632132600,2.881132568359375,-0.0019646140281111,0.0034471957478672266,0.0049007488414645195
1783003401642183400,2.891183349609375,-0.004827245604246855,0.006502374075353146,0.0064773401245474815
1783003401652235500,2.901235595703125,-0.005597964394837618,0.0026993800420314074,0.01011042483150959
1783003401662286600,2.91128662109375,-0.003995007835328579,0.0054520233534276485,0.00902651809155941
1783003401672337400,2.92133740234375,-0.003948136232793331,0.0037199032958596945,0.010240387171506882
1783003401682388500,2.931388427734375,-0.006857106927782297,0.0029707562644034624,0.007197991944849491
1783003401692440600,2.941440673828125,-0.0033073797821998596,0.003907922655344009,0.008192682638764381
1783003401702491600,2.95149169921875,-0.005632053129374981,0.004996889270842075,0.008576709777116776
1783003401712542500,2.96154248046875,-0.00546240946277976,0.005847502965480089,0.008373244665563107
1783003401722594600,2.971594482421875,-0.00421338714659214,0.002926813904196024,0.011213505640625954
1783003401732645600,2.981645751953125,-0.003960919566452503,0.000675111310556531,0.004935370292514563
1783003401742696400,2.991696533203125,-0.0029060414526611567,0.0029699571896344423,0.008826514706015587
1783003401752748500,3.00174853515625,-0.004099137615412474,0.003967044875025749,0.009694173000752926
1783003401762799600,3.011799560546875,-0.0043678502552211285,0.005720470100641251,0.007633684668689966
1783003401772850400,3.021850341796875,-0.003947337158024311,0.006244580261409283,0.009788182564079762
1783003401782901500,3.031901611328125,-0.004503671545535326,0.005249356850981712,0.010804710909724236
1783003401792953600,3.04195361328125,-0.0057156761176884174,0.003996605984866619,0.007623032201081514
1783003401803004400,3.05200439453125,-0.004427505191415548,0.0054339137859642506,0.0075636436231434345
1783003401813055500,3.062055419921875,-0.005877329967916012,0.001648496720008552,0.008900816552340984
1783003401823107600,3.072107666015625,-0.004236290231347084,0.00296276668086648,0.00917166005820036
1783003401833158400,3.082158447265625,-0.005426190793514252,0.004927114117890596,0.00953997578471899
1783003401843209500,3.09220947265625,-0.004793423693627119,0.0025419872254133224,0.009022523649036884
1783003401853261600,3.102261474609375,-0.005572930909693241,0.002739860210567713,0.007412109989672899
1783003401863312400,3.1123125,-0.002423742786049843,0.004399808589369059,0.010730408132076263
1783003401873363500,3.122363525390625,-0.0036213663406670094,0.004744687583297491,0.010098174214363098
1783003401883414500,3.13241455078125,-0.004702343605458736,0.005092762876302004,0.008205199614167213
1783003401893466400,3.14246630859375,-0.0025720810517668724,0.005642172880470753,0.009550095535814762
1783003401903517700,3.152517578125,-0.00449941074475646,0.003816842334344983,0.005902630276978016
1783003401913568800,3.16256884765625,-0.0035212314687669277,0.006854177452623844,0.00833782460540533
1783003401923620600,3.17262060546875,-0.006086388137191534,0.0067692226730287075,0.009554356336593628
1783003401933671700,3.182671630859375,-0.004748416133224964,0.005123389419168234,0.0065260762348771095
1783003401943722800,3.19272265625,-0.006366286426782608,0.0024493092205375433,0.008051268756389618
1783003401953773800,3.20277392578125,-0.0059785302728414536,0.004911668132990599,0.00771757448092103
1783003401963825700,3.21282568359375,-0.0025995115283876657,0.0055092815309762955,0.008596417494118214
1783003401973876700,3.222876708984375,-0.003293797606602311,0.0035238948184996843,0.006400108803063631
1783003401983927800,3.232927734375,-0.0054914383217692375,0.0027750139124691486,0.00821052584797144
1783003401993980000,3.24297998046875,-0.005002481862902641,0.003953462466597557,0.006062420085072517
1783003402004030700,3.25303076171875,-0.0030959248542785645,0.005979595705866814,0.00765951769426465
1783003402014081800,3.263081787109375,-0.003980626817792654,0.004044010303914547,0.009485114365816116
1783003402024134000,3.2731337890625,-0.0037611823063343763,0.006733536254614592,0.005624596029520035
1783003402034185000,3.28318505859375,-0.0028852687682956457,0.004822718445211649,0.007809986360371113
1783003402044235800,3.29323583984375,-0.006582268979400396,0.00567066902294755,0.00788295641541481
1783003402054286600,3.30328662109375,-0.002843457041308284,0.0028666264843195677,0.008107993751764297
1783003402064339000,3.3133388671875,-0.002942260354757309,0.0033071134239435196,0.009274458512663841
1783003402074390000,3.32339013671875,-0.005782255437225103,0.004162520635873079,0.006560963578522205
1783003402084440800,3.33344091796875,-0.005162005312740803,0.004355067387223244,0.003894340479746461
1783003402094493000,3.343492919921875,-0.0055151404812932014,0.00421285443007946,0.008153000846505165
1783003402104544000,3.3535439453125,-0.003424026072025299,0.005697300657629967,0.0076059880666434765
1783003402114594800,3.3635947265625,-0.0019283948931843042,0.005319397896528244,0.009554356336593628
1783003402124645600,3.373645751953125,-0.0021917815320193768,0.005570267792791128,0.006875482853502035
1783003402134698000,3.383697998046875,-0.0026290726382285357,0.005818208213895559,0.008535165339708328
1783003402144748800,3.393748779296875,-0.004425108432769775,0.0053553506731987,0.009249158203601837
1783003402154799900,3.4037998046875,-0.003667971817776561,0.00404614070430398,0.0070131681859493256
1783003402164852000,3.41385205078125,-0.004833637271076441,0.003909253980964422,0.0039880839176476
1783003402174903000,3.423903076171875,-0.0029875340405851603,0.004859203472733498,0.010156231001019478
1783003402184953900,3.433953857421875,-0.0057100835256278515,0.003686081152409315,0.00890933908522129
1783003402195004700,3.444004638671875,-0.0032527849543839693,0.003183809109032154,0.008066981099545956
1783003402205057000,3.45405712890625,-0.004459463059902191,0.00370126124471426,0.008526376448571682
1783003402215107800,3.46410791015625,-0.003270095447078347,0.005179848056286573,0.007930094376206398
1783003402225159000,3.474158935546875,-0.004692756105214357,0.0049252500757575035,0.0067844027653336525
1783003402235211000,3.4842109375,-0.006399043370038271,0.005500758998095989,0.007832090370357037
1783003402245261800,3.49426171875,-0.003391801845282316,0.0067726848646998405,0.008331699296832085
1783003402255313000,3.50431298828125,-0.004256263840943575,0.005659217480570078,0.009543970227241516
1783003402265365000,3.514364990234375,-0.004501807503402233,0.008079231716692448,0.006423810962587595
1783003402275415800,3.524415771484375,-0.003157443832606077,0.0060299295000731945,0.008777512237429619
1783003402285467000,3.534466796875,-0.003373958868905902,0.002329733222723007,0.00920228660106659
1783003402295518000,3.54451806640625,-0.0037113812286406755,0.0037089844699949026,0.006144445389509201
1783003402305569800,3.55456982421875,-0.0030216225422918797,0.0041002025827765465,0.010008425451815128
1783003402315620900,3.564620849609375,-0.005662945564836264,0.0037611823063343763,0.008133560419082642
1783003402325672000,3.574671875,-0.005242965184152126,0.0009350358741357923,0.005404885392636061
1783003402335723800,3.584723876953125,-0.0029819414485245943,0.0028932581190019846,0.010174606926739216
1783003402345774800,3.59477490234375,-0.00427277572453022,0.005066397599875927,0.008945291861891747
1783003402355826000,3.604825927734375,-0.004517786670476198,0.006365487817674875,0.009751963429152966
1783003402365877800,3.614877685546875,-0.0029342707712203264,0.004454403184354305,0.007632353343069553
1783003402375928800,3.6249287109375,-0.004795820452272892,0.00697881355881691,0.011465441435575485
1783003402385980000,3.63497998046875,-0.0028242822736501694,0.004778776317834854,0.008412925526499748
1783003402396031000,3.645031005859375,-0.00561181316152215,0.0017960357945412397,0.005901032127439976
1783003402406082800,3.655082763671875,-0.004947354551404715,0.0014620753936469555,0.004547613672912121
1783003402416134000,3.6651337890625,-0.005432316102087498,0.002582467393949628,0.008251538500189781
1783003402426185000,3.67518505859375,-0.006321545224636793,0.003972104750573635,0.005803560372442007
1783003402436236800,3.68523681640625,-0.003448260948061943,0.003355316584929824,0.009226521477103233
1783003402446288000,3.695287841796875,-0.004560929723083973,0.003365170443430543,0.009037703275680542
1783003402456339000,3.7053388671875,-0.0035004590172320604,0.004821120295673609,0.010961038060486317
1783003402466390000,3.71539013671875,-0.0041039311327040195,0.0025893915444612503,0.006250971462577581
1783003402476441900,3.72544189453125,-0.004761732183396816,0.003972371108829975,0.00669358903542161
1783003402486493000,3.735492919921875,-0.005028580781072378,0.006073871627449989,0.008111721836030483
1783003402496544000,3.7455439453125,-0.006056827027350664,0.006666957400739193,0.00868909526616335
1783003402506595800,3.755595947265625,-0.005390238016843796,0.005261341109871864,0.005490372888743877
1783003402516647000,3.76564697265625,-0.00433056615293026,0.006145243998616934,0.008168181404471397
1783003402526698000,3.775697998046875,-0.00270683690905571,0.0033960631117224693,0.007106112781912088
1783003402536748800,3.785748779296875,-0.0036796897184103727,0.0032783513888716698,0.007448595017194748
1783003402546801000,3.79580078125,-0.00043010051012970507,0.0031933963764458895,0.007797469384968281
1783003402556852000,3.80585205078125,-0.0035169704351574183,0.0030272151343524456,0.006134591531008482
1783003402566902800,3.81590283203125,-0.0064989118836820126,0.003976366017013788,0.00888137612491846
1783003402576955000,3.825954833984375,-0.005543636158108711,0.006111155729740858,0.008702944032847881
1783003402587006000,3.836005859375,-0.0039292280562222,0.004888498689979315,0.007880293764173985
1783003402597056800,3.846056884765625,-0.004419249482452869,0.0032708945218473673,0.006754841655492783
1783003402607107800,3.85610791015625,-0.0038450718857347965,0.00501020485535264,0.008588162250816822
1783003402617160000,3.866159912109375,-0.004034689161926508,0.005155347287654877,0.0060115535743534565
1783003402627210800,3.876210693359375,-0.002435460686683655,0.003780889790505171,0.009445167146623135
1783003402637261800,3.88626171875,-0.003659449517726898,0.00563897704705596,0.0073529877699911594
1783003402647314000,3.89631396484375,-0.005498362239450216,0.003425091505050659,0.00743288267403841
1783003402657364700,3.90636474609375,-0.0037675739731639624,0.004637096077203751,0.007449926808476448
1783003402667415800,3.916415771484375,-0.003963049966841936,0.003769438248127699,0.006387858185917139
1783003402677468000,3.926468017578125,-0.00009986854274757206,0.004056793171912432,0.006961236707866192
1783003402687518700,3.936518798828125,-0.0048826392740011215,0.0032085764687508345,0.00815033819526434
1783003402697569800,3.94656982421875,-0.003628823207691312,0.004065581597387791,0.007456584833562374
1783003402707620900,3.956620849609375,-0.0073623089119791985,0.006021673325449228,0.005684517323970795
1783003402717672700,3.966672607421875,-0.004573446698486805,0.006298375781625509,0.006771087180823088
1783003402727723800,3.976723876953125,-0.004217914305627346,0.006699980702251196,0.007397196255624294
1783003402737774800,3.98677490234375,-0.005569735076278448,0.005344697739928961,0.007789480034261942
1783003402747826700,3.99682666015625,-0.004316984210163355,0.005644570104777813,0.008501076139509678
1783003402757877800,4.006877685546875,-0.0033337450586259365,0.001683384063653648,0.009345831349492073
1783003402767928800,4.0169287109375,-0.002749181119725108,0.0014977618120610714,0.007121292874217033
1783003402777980000,4.02697998046875,-0.004328968469053507,0.003744937013834715,0.005920207127928734
1783003402788031700,4.03703173828125,-0.0041010016575455666,0.0010924286907538772,0.005681321490556002
1783003402798082800,4.047082763671875,-0.004036020487546921,0.0026290726382285357,0.010146910324692726
1783003402808134000,4.0571337890625,-0.004794488660991192,0.0049404301680624485,0.006763896439224482
1783003402818185700,4.067185791015625,-0.005672000348567963,0.006113552488386631,0.008198807947337627
1783003402828236800,4.07723681640625,-0.005804892163723707,0.005403819959610701,0.007392136380076408
1783003402838288000,4.087287841796875,-0.0032024511601775885,0.003952929750084877,0.00827710423618555
1783003402848339000,4.0973388671875,-0.004728708881884813,-0.0002487392339389771,0.006766825914382935
1783003402858390800,4.107390869140625,-0.004620318301022053,0.003141997382044792,0.008272843435406685
1783003402868441900,4.11744189453125,-0.0029984530992805958,-0.00033182985498569906,0.007462976034730673
1783003402878493000,4.127492919921875,-0.0031638352666050196,0.0010183927370235324,0.008171376772224903
1783003402888544800,4.137544677734375,-0.003802194958552718,0.0028644960839301348,0.007148989476263523
1783003402898595800,4.147595947265625,-0.004737230949103832,0.0018365158466622233,0.0049763829447329044
1783003402908646700,4.157646728515625,-0.006339388433843851,0.00566827179864049,0.008236091583967209
1783003402918697500,4.167697509765625,-0.0033864756114780903,0.006761499680578709,0.00899562519043684
1783003402928749800,4.177749755859375,-0.00561154680326581,0.006079996936023235,0.008976717479526997
1783003402938801000,4.18780078125,-0.003506850451231003,0.0075905416160821915,0.008460329845547676
1783003402948851700,4.197851806640625,-0.0041430797427892685,0.0052027516067028046,0.007598265074193478
1783003402958903800,4.20790380859375,-0.0030503845773637295,0.0031180288642644882,0.008376706391572952
1783003402968955000,4.217954833984375,-0.005652559455484152,0.003428287338465452,0.008169513195753098
1783003402979005700,4.228005615234375,-0.002606435678899288,0.0024855281226336956,0.00812237523496151
1783003402989056500,4.238056396484375,-0.0046160570345819,0.00321869645267725,0.007312774192541838
1783003402999108900,4.24810888671875,-0.006607568822801113,0.002671150490641594,0.006363356951624155
1783003403009159700,4.25815966796875,-0.004298608284443617,0.006680273450911045,0.009021724574267864
1783003403019210500,4.26821044921875,-0.004297276493161917,0.004924451000988483,0.011356517672538757
1783003403029262800,4.278262939453125,-0.005884520709514618,0.006609433330595493,0.009222260676324368
1783003403039314000,4.28831396484375,-0.0029949909076094627,0.00313001312315464,0.008533567190170288
1783003403049364700,4.29836474609375,-0.0031909996178001165,0.00487198680639267,0.007098389323800802
1783003403059415600,4.30841552734375,-0.006073072552680969,0.006881341803818941,0.006577474996447563
1783003403069468000,4.318468017578125,-0.003171558491885662,0.003968908917158842,0.009934922680258751
1783003403079518700,4.328518798828125,-0.002014148747548461,0.0034471957478672266,0.007014499977231026
1783003403089569800,4.33856982421875,-0.006029130425304174,-0.00018269284919369966,0.007191866636276245
1783003403099622000,4.348621826171875,-0.00430100504308939,0.0031704932916909456,0.007680290378630161
1783003403109672700,4.358672607421875,-0.00401657959446311,0.0006013417732901871,0.005921272095292807
1783003403119723800,4.368723876953125,-0.0033071134239435196,0.0039116512052714825,0.010213222354650497
1783003403129775900,4.37877587890625,-0.0033329459838569164,0.0031169636640697718,0.009400425478816032
1783003403139826700,4.38882666015625,-0.004092213232070208,0.003891677362844348,0.00746084563434124
1783003403149877800,4.398877685546875,-0.0037835529074072838,0.0051564122550189495,0.009207346476614475
1783003403159928800,4.4089287109375,-0.003037335118278861,0.004327903036028147,0.007180148735642433
1783003403169980700,4.418980712890625,-0.004546282347291708,0.002779541304334998,0.00854714959859848
1783003403180031700,4.42903173828125,-0.002980876248329878,0.004522047471255064,0.005380650516599417
1783003403190082800,4.439082763671875,-0.004269579891115427,0.006195045076310635,0.009490973316133022
1783003403200134000,4.4491337890625,-0.003975034225732088,0.004013916477560997,0.009376724250614643
1783003403210185700,4.459185791015625,-0.0035774242132902145,0.0043867588974535465,0.007143396884202957
1783003403220236800,4.46923681640625,-0.004348143003880978,0.001913214917294681,0.0070677632465958595
1783003403230288000,4.479287841796875,-0.005809952039271593,0.0043801008723676205,0.006972954608500004
1783003403240339700,4.489339599609375,-0.0037579864729195833,0.003787015099078417,0.00571860559284687
1783003403250390800,4.499390869140625,-0.004116714466363192,0.005462143570184708,0.011211375705897808
1783003403260441900,4.50944189453125,-0.0022303974255919456,0.005115932319313288,0.008238755166530609
1783003403270493700,4.51949365234375,-0.004507133737206459,0.005583050660789013,0.0070363376289606094
1783003403280544800,4.529544677734375,-0.0047116647474467754,0.0020714066922664642,0.008838765323162079
1783003403290595800,4.539595947265625,-0.0059998356737196445,0.0008460862445645034,0.009076319634914398
1783003403300646700,4.549646728515625,-0.003840810852125287,0.005083708092570305,0.008102401159703732
1783003403310698800,4.55969873046875,-0.005769738461822271,0.004338023252785206,0.007041930686682463
1783003403320749800,4.569749755859375,-0.004526575095951557,0.003931092098355293,0.009594038128852844
1783003403330801000,4.57980078125,-0.0032354744616895914,0.00410526292398572,0.008535697124898434
1783003403340851700,4.589851806640625,-0.0025363946333527565,0.0030485205352306366,0.00752050057053566
1783003403350903800,4.59990380859375,-0.004739094991236925,0.004266117699444294,0.00771837355569005
1783003403360955000,4.609954833984375,-0.004406732507050037,0.00567013630643487,0.007157245185226202
1783003403371005700,4.620005615234375,-0.004511927254498005,0.005146825220435858,0.008261658251285553
1783003403381057800,4.630057861328125,-0.00672181835398078,0.004090349189937115,0.008902947418391705
1783003403391108900,4.64010888671875,-0.004332962911576033,0.004601143300533295,0.005390238016843796
1783003403401159700,4.65015966796875,-0.003914314322173595,0.0036482643336057663,0.008465123362839222
1783003403411210800,4.660210693359375,-0.0016442356863990426,0.0038663772866129875,0.006013683974742889
1783003403421262800,4.670262939453125,-0.004336425103247166,0.005371862091124058,0.008388424292206764
1783003403431313700,4.680313720703125,-0.00264851376414299,0.005151352379471064,0.006121275946497917
1783003403441364700,4.69036474609375,-0.004939364735037088,0.0037145770620554686,0.007676295470446348
1783003403451416800,4.700416748046875,-0.0065532405860722065,0.0018753979820758104,0.007622499484568834
1783003403461467600,4.710467529296875,-0.005100485868752003,0.004807005636394024,0.00646775308996439
1783003403471518700,4.720518798828125,-0.002636529505252838,0.004935902543365955,0.00842943787574768
1783003403481569800,4.73056982421875,-0.004436027258634567,0.006070409435778856,0.009954096749424934
1783003403491621600,4.74062158203125,-0.003561711637303233,0.004056526813656092,0.007385478354990482
1783003403501672700,4.750672607421875,-0.0041497377678751945,0.004233893472701311,0.008479771204292774
1783003403511723800,4.760723876953125,-0.00544323492795229,0.003358246060088277,0.009582586586475372
1783003403521775600,4.770775634765625,-0.001841842196881771,0.002311357529833913,0.006262955721467733
1783003403531826700,4.78082666015625,-0.005302886478602886,0.003740143496543169,0.007192665245383978
1783003403541877800,4.790877685546875,-0.0037063213530927896,0.0043859598226845264,0.006912234704941511
1783003403551928800,4.8009287109375,-0.003732952754944563,0.0014729943359270692,0.0041404166258871555
1783003403561980700,4.810980712890625,-0.00296303303912282,0.0019558256026357412,0.005005677696317434
1783003403572031700,4.82103173828125,-0.007801996544003487,0.002162486780434847,0.00760998297482729
1783003403582082800,4.831082763671875,-0.0028988507110625505,0.002662362065166235,0.0067905280739068985
1783003403592134700,4.841134765625,-0.002779008587822318,0.005918342620134354,0.00893996562808752
1783003403602185700,4.851185791015625,-0.0038016624748706818,0.005671467632055283,0.007083741948008537
1783003403612236800,4.86123681640625,-0.001190433045849204,0.006186789367347956,0.008073372766375542
1783003403622288000,4.871287841796875,-0.004991828929632902,0.00652687530964613,0.007502124644815922
1783003403632339700,4.881339599609375,-0.004863198380917311,0.002951581496745348,0.003922836389392614
1783003403642390800,4.891390869140625,-0.004258394706994295,0.003468234557658434,0.007638212293386459
1783003403652441900,4.90144189453125,-0.004393683280795813,0.003562244353815913,0.006876548286527395
1783003403662493700,4.91149365234375,-0.0006274407496675849,0.0013915016315877438,0.010448645800352097
1783003403672544800,4.921544677734375,-0.005086104851216078,0.003698331769555807,0.008203335106372833
1783003403682595800,4.931595947265625,-0.0026458504144102335,0.0035079156514257193,0.009356483817100525
1783003403692646700,4.941646728515625,-0.006488792132586241,0.006580404471606016,0.007985222153365612
1783003403702698800,4.95169873046875,-0.003835484618321061,0.006049903109669685,0.006473878398537636
1783003403712749800,4.961749755859375,-0.005081044975668192,0.00663446681573987,0.009031844325363636
1783003403722800600,4.971800537109375,-0.005298625212162733,0.006167082116007805,0.009046492166817188
1783003403732852700,4.981852783203125,-0.00436012726277113,0.004809935111552477,0.005347893573343754
1783003403742903800,4.99190380859375,-0.0035752938129007816,0.0022770026698708534,0.00857484620064497
1783003403752954600,5.00195458984375,-0.0030780816450715065,0.004345479886978865,0.007420365698635578
1783003403763005700,5.012005615234375,-0.0027137610595673323,0.0019739349372684956,0.0070797475054860115
1783003403773057800,5.022057861328125,-0.005450691562145948,0.002127333078533411,0.007812915369868279
1783003403783108600,5.032108642578125,-0.0034165694378316402,0.0024799355305731297,0.009576727636158466
1783003403793159700,5.04215966796875,-0.004983040504157543,0.004245611373335123,0.008734902366995811
1783003403803211800,5.052211669921875,-0.004274107050150633,0.003935885615646839,0.008564991876482964
1783003403813262600,5.0622626953125,-0.005789978429675102,0.006303968373686075,0.00911280419677496
1783003403823313700,5.072313720703125,-0.005886118393391371,0.007256048731505871,0.007296795025467873
1783003403833364700,5.08236474609375,-0.0056951697915792465,0.0043835630640387535,0.007315437309443951
1783003403843416600,5.09241650390625,-0.0031878037843853235,0.007540474180132151,0.010236125439405441
1783003403853467600,5.102467529296875,-0.004647482186555862,0.004208593629300594,0.007348460145294666
1783003403863518700,5.112518798828125,-0.004087952431291342,0.003838147735223174,0.007554056588560343
1783003403873569800,5.12256982421875,-0.0030445256270468235,0.005228584166616201,0.007695204112678766
1783003403883621600,5.13262158203125,-0.0038189729675650597,0.0033933997619897127,0.007988950237631798
1783003403893672700,5.142672607421875,-0.003564374754205346,0.0133863789960742,0.01775849051773548
1783003403903723300,5.15272314453125,-0.026370886713266373,0.21193915605545044,0.039565786719322205
1783003403913775000,5.162775146484375,-0.0076272934675216675,-0.11947126686573029,0.004436559975147247
1783003403923826200,5.172826171875,0.002709766384214163,-0.08646165579557419,-0.03307938948273659
1783003403933877200,5.182877197265625,0.00041998049709945917,0.07267020642757416,0.03334810212254524
1783003403943928300,5.19292822265625,-0.00950641930103302,0.09812416881322861,0.048238903284072876
1783003403953980200,5.202980224609375,-0.0009363674325868487,-0.04143958538770676,-0.0038663772866129875
1783003403964031200,5.21303125,0.01227637380361557,-0.09975908696651459,-0.042624957859516144
1783003403974082300,5.223082275390625,-0.017839716747403145,-0.12359624356031418,-0.03911491110920906
