time,seconds_elapsed,z,y,x
1783003371505660200,0.08666015625,-0.12284545842409134,-0.0025502324720844626,-0.023320277107181025
1783003371515712000,0.0967119140625,-0.18264204773902892,-0.01770535070169717,0.004507759748026728
1783003371525763000,0.10676318359375,-0.1393430042386055,-0.018537892535701393,0.013319463767670094
1783003371535815000,0.11681494140625,-0.041187165912985796,-0.008254508528299629,-0.013882915469864383
1783003371545866000,0.126865966796875,0.00021218144595623015,0.015448950077034533,-0.02303200735086575
1783003371555918000,0.13691796875,-0.04981061735153198,0.011704027927666902,-0.010500780484592541
1783003371565969000,0.146968994140625,-0.12506605708301066,0.0076233344852924345,0.010607574460469185
1783003371576021000,0.15702099609375,-0.13625088344216346,-0.011779138990491628,0.013967698543332517
1783003371586072000,0.167072021484375,-0.09163491212427616,-0.01883830025438219,0.004008386257989332
1783003371596124000,0.1771240234375,-0.03942483241558075,-0.02434405806381255,-0.02311872665309347
1783003371606175000,0.187175048828125,-0.034221418553590774,-0.014540931854024528,-0.03165028942395001
1783003371616227000,0.19722705078125,-0.07778291238248347,-0.018000168929807842,-0.015862892039632422
1783003371626279200,0.207279052734375,-0.1060550671428442,-0.013802498044259846,-0.003907611030945554
1783003371636330200,0.217330322265625,-0.10783435177505016,-0.015771606160141526,0.0073596511809621
1783003371646382000,0.227382080078125,-0.07715513587296009,-0.000525448646210134,-0.001662243256950751
1783003371656433200,0.23743310546875,-0.05203121601045131,-0.005808357485197484,0.005102163710910827
1783003371666485000,0.247485107421875,-0.06012976679205894,-0.002216141679510474,0.0065248991235624994
1783003371676536000,0.2575361328125,-0.08931260665655136,-0.002995674684643745,0.00020784319755621253
1783003371686588200,0.267588134765625,-0.11024316648244857,-0.009714096219465135,-0.010262441684072837
1783003371696639000,0.277638916015625,-0.0850929431349039,-0.002840922514349222,-0.03100567137748003
1783003371706691000,0.287691162109375,-0.06819032365083694,-0.00043751463443040845,-0.041707326462725174
1783003371716742100,0.2977421875,-0.07284311789274216,0.007152611701004207,-0.04080294323521666
1783003371726794000,0.3077939453125,-0.08258066805303096,-0.0031538609210401774,-0.0344997605709359
1783003371736845000,0.317844970703125,-0.0887181478947401,0.006744907682947814,-0.014174235699791461
1783003371746897000,0.32789697265625,-0.09200432995855808,-0.001539411461725831,-0.009609430268593133
1783003371756948000,0.337947998046875,-0.07165420036911964,-0.0024180574597790837,0.005687745046522468
1783003371767000000,0.348,-0.075695000192523,-0.012927870634198188,0.009813209212385118
1783003371777051000,0.35805078125,-0.07629413512945175,-0.01956102503836155,0.014853623665543271
1783003371787103000,0.36810302734375,-0.07718962266445159,-0.02048109902534634,0.02035533548751846
1783003371797154000,0.378154052734375,-0.08989829759001731,-0.01586304730325937,0.018997600735630837
1783003371807206100,0.3882060546875,-0.09422843574881554,-0.005647139041498303,-0.006107459162781014
1783003371817257200,0.39825732421875,-0.08045885359346866,-0.0025796412296593186,-0.020449379579676314
1783003371827309000,0.40830908203125,-0.06968962229788303,0.004839950844459235,-0.019412483413144947
1783003371837360000,0.418360107421875,-0.08973580050468444,0.004822670916095376,-0.03066689527663402
1783003371847412200,0.428412109375,-0.08748714479506016,-0.0008166136125102639,-0.01736808157134801
1783003371857463000,0.438463134765625,-0.09062836543023586,-0.002670643981359899,-0.005611948997108265
1783003371867515100,0.44851513671875,-0.07686872014701367,-0.0009045841569080949,-0.005535257898550481
1783003371877566500,0.45856640625,-0.07702537201344967,-0.00254953835234046,0.008669793064612895
1783003371887618300,0.468618408203125,-0.07044540910124779,0.006520670473016798,0.008126096375659107
1783003371897670100,0.478670166015625,-0.0747884067416191,-0.004449271026439964,0.004269740607915446
1783003371907721200,0.48872119140625,-0.08406886078417301,-0.015263948898948727,0.005901935786474495
1783003371917773300,0.498773193359375,-0.08810673799812793,-0.01331551824491471,-0.007230060851387679
1783003371927824400,0.508824462890625,-0.08031915286183357,-0.01915207891128957,-0.008940938156191259
1783003371937876200,0.518876220703125,-0.07957096484303473,-0.017102672100812195,-0.015657249932317062
1783003371947927300,0.52892724609375,-0.08241466383635997,-0.010777158873714505,-0.011979082009382545
1783003371957979100,0.538979248046875,-0.08361234918832779,-0.004312821697816252,0.0009466605998110025
1783003371968030200,0.5490302734375,-0.08511164783537388,0.00877297944445163,-0.00015842369841411708
1783003371978082300,0.559082275390625,-0.09618307694792746,0.010948131526447831,-0.006489097157819196
1783003371988133000,0.569133056640625,-0.0804699595093727,0.006132219144701957,-0.002890040619391948
1783003371998185500,0.579185546875,-0.0753857881128788,-0.00002075052708387375,-0.018057379009760916
1783003372008236300,0.589236328125,-0.08107084801197051,-0.009034626055322587,-0.011642963656503707
1783003372018288400,0.599288330078125,-0.08316402089893818,-0.020284517007321118,-0.0058584437046200035
1783003372028339500,0.60933935546875,-0.0714993020683527,-0.019344203949905932,-0.00869301867657341
1783003372038391300,0.619391357421875,-0.07269815646409988,-0.011205430755764245,0.0001595653427299112
1783003372048442400,0.6294423828125,-0.07314239310026169,-0.009815072375908493,0.004883881317730993
1783003372058494200,0.639494140625,-0.06820201408863068,0.0033405425995588303,0.010124384920252487
1783003372068545300,0.649545166015625,-0.08151625369191169,0.0001220189444720745,0.009457673772983252
1783003372078597400,0.659597412109375,-0.07897533703744411,-0.007834493017941712,0.0030142880535684526
1783003372088648200,0.669648193359375,-0.07479016030728816,-0.016525420202128587,0.0018466507799923418
1783003372098700300,0.6797001953125,-0.09259703515470027,-0.020534619310870767,-0.008499888990959152
1783003372108751400,0.68975146484375,-0.07703589340746403,-0.00970459773875773,-0.01499754391456954
1783003372118803200,0.69980322265625,-0.07464519887864589,-0.0022684563886374233,-0.02531379814511165
1783003372128854300,0.709854248046875,-0.07614625109136104,0.006651128452271222,-0.012709569974709302
1783003372138906400,0.71990625,-0.07989128283858299,0.001472227977029979,-0.006291236498160288
1783003372148957200,0.729957275390625,-0.07390519416630267,-0.00019029840771108864,-0.005240284406812862
1783003372159009300,0.74000927734375,-0.08468143972456454,-0.006071100074611604,0.013885006962250918
1783003372169061000,0.75006103515625,-0.07990180423259735,-0.00280121155846864,0.008520712583279237
1783003372179112200,0.7601123046875,-0.07496434783041477,-0.006754479228891432,-0.0116311088219285
1783003372189163300,0.770163330078125,-0.07271803020834923,-0.010519311655126512,-0.014369621274573727
1783003372199215400,0.78021533203125,-0.08408873452842235,-0.0045290217317640775,-0.00639339996469207
1783003372209267500,0.790267333984375,-0.08499006728231906,-0.011436243836954236,-0.018253166443342343
1783003372219318300,0.800318359375,-0.08169219478070736,-0.013083389989472925,-0.022277343925507738
1783003372229370400,0.810370361328125,-0.08469020755290985,-0.008789090329036115,-0.017895685642026364
1783003372239421400,0.82042138671875,-0.08094751389324664,-0.01077887590676546,-0.0038691787166986614
1783003372249473300,0.830473388671875,-0.08244505897462368,-0.006619089346192777,0.0038551136587280776
1783003372259524400,0.8405244140625,-0.08394786475300789,-0.007391717686504125,0.005808814142923802
1783003372269576200,0.850576171875,-0.07840776628255844,0.0010712824933230877,0.01743605050733313
1783003372279627300,0.860627197265625,-0.08843231669068335,0.0006784837834537029,0.0020178426284343004
1783003372289679400,0.870679443359375,-0.08768003701865673,-0.012110855162888765,0.001233313787775114
1783003372299730200,0.880730224609375,-0.0815466488301754,-0.008046893659606575,-0.012287673034518956
1783003372309782300,0.8907822265625,-0.08454349255859851,-0.005259966354817152,-0.01593817663239315
1783003372319833300,0.900833251953125,-0.08021101631224155,-0.011045637084171176,-0.011850797720905392
1783003372329885200,0.91088525390625,-0.08215864324867725,-0.022777758595161138,-0.008354306507809087
1783003372339936300,0.920936279296875,-0.08320786004066467,-0.01566536930669099,0.004330613082833588
1783003372349988000,0.930988037109375,-0.08454816873371601,-0.011178652346692979,-0.0023406996409408745
1783003372360039200,0.9410390625,-0.08245850297808646,0.005869513087905943,0.00035564503725618124
1783003372370091300,0.95109130859375,-0.08291735266149043,0.004315086720138788,0.009247465088404714
1783003372380142300,0.961142333984375,-0.0707978758007288,0.00857416893672198,0.00009755122349597513
1783003372390194400,0.9711943359375,-0.08770341789424418,0.0037380905497819182,-0.012284512963052838
1783003372400245200,0.981245361328125,-0.08800327762365341,-0.010863704646006226,-0.009877552286023274
1783003372410297300,0.99129736328125,-0.07648702735304833,-0.006348528776504099,-0.01429203512687236
1783003372420348400,1.001348388671875,-0.08217734794914722,-0.010919855280034243,-0.013594152523204683
1783003372430400300,1.011400146484375,-0.07903495827019213,-0.007989829710125922,-0.0018088212539441883
1783003372440451300,1.021451416015625,-0.08741466408073902,0.002343969310261309,-0.0029999490009620785
1783003372450503400,1.03150341796875,-0.09040507806837558,0.005694193053618073,0.001867510904930532
1783003372460554200,1.04155419921875,-0.08247486959099769,0.004419752671010792,0.005766500238003209
1783003372470606300,1.0516064453125,-0.07588847693800926,-0.00008723989203572272,0.0062409128167200826
1783003372480657400,1.061657470703125,-0.07379238144159317,-0.004387713564932346,-0.003991334658488631
1783003372490709200,1.071709228515625,-0.09099602969884872,-0.007166969019919633,-0.010733173601515591
1783003372500760300,1.08176025390625,-0.08635492589473724,-0.004701309558749199,-0.021233670958317814
1783003372510812200,1.091812255859375,-0.07722352493405342,-0.0009037439066916703,-0.02169004555684514
1783003372520863200,1.10186328125,-0.06929565454423427,-0.005788301077857614,-0.014560376340011134
1783003372530915300,1.111915283203125,-0.08261632388830184,-0.0055273485867306585,-0.007752468157140538
1783003372540966400,1.12196630859375,-0.08845102139115334,-0.0017139643110334873,-0.0060886905302293595
1783003372551018200,1.132018310546875,-0.09009995764195919,0.008228497304208576,-0.0008939348987303673
1783003372561070000,1.142070068359375,-0.08067571121454238,0.0008635580267757177,0.013858009357471019
1783003372571121200,1.15212109375,-0.08636661633253097,0.006235241127759218,0.004800175956496969
1783003372581173200,1.16217333984375,-0.07918225778639316,0.006272613996081054,0.01048220364828594
1783003372591224300,1.172224365234375,-0.08636427824497223,-0.0007210077509284019,-0.00520878415685147
1783003372601276400,1.1822763671875,-0.07678747160434722,-0.011651055631414055,-0.006549403377156704
1783003372611327500,1.192327392578125,-0.08606558755934238,-0.015262962518259883,-0.0034004652264062315
1783003372621379300,1.20237939453125,-0.08606208042800426,-0.02165313847940415,0.0007759893411770463
1783003372631430400,1.212430419921875,-0.08052139743566512,-0.017570728003978728,0.008072137698717416
1783003372641482200,1.222482177734375,-0.09562602758705616,-0.009144041246548294,0.006980552202882245
1783003372651533300,1.232533203125,-0.09008417555093765,0.0067226593185216186,-0.0010723693387117237
1783003372661585400,1.24258544921875,-0.0770633659362793,0.006367525737918913,0.01570260517769493
1783003372671636200,1.25263623046875,-0.0784054281949997,0.0038788141947239635,-0.0024516035363543777
1783003372681688300,1.262688232421875,-0.08469079207479953,0.004080985703319311,-0.011909542170818894
1783003372691739400,1.272739501953125,-0.07645955482423306,0.0028898762226104734,-0.01819367307475768
1783003372701791200,1.282791259765625,-0.08902560640871525,-0.000807480457983911,-0.0314186360925436
1783003372711842300,1.29284228515625,-0.07705985880494118,0.004643916815705597,-0.03241733740684576
1783003372721894100,1.30289404296875,-0.08094868293702602,0.0015261135887354612,-0.024635469625284893
1783003372731945200,1.3129453125,-0.0819908854663372,0.007904379916377366,-0.02019127663276158
1783003372741997300,1.322997314453125,-0.07615852605104446,0.0032761355938389896,0.0025205497198738155
1783003372752048000,1.333048095703125,-0.07975041306316852,-0.016951025203056632,0.007019340710155666
1783003372762100200,1.343100341796875,-0.08439034782350063,-0.019012305114418267,0.03654005249319598
1783003372772151300,1.3531513671875,-0.08228548449873924,-0.020694887906499204,0.034544028970925136
1783003372782203100,1.363203125,-0.08901800762414931,-0.02038099965173751,0.018737397163175046
1783003372792254200,1.373254150390625,-0.09066460578739642,-0.01596274481806904,0.00350499417996034
1783003372802306300,1.383306396484375,-0.0848234785437584,-0.013543591379746794,-0.014948608472617341
1783003372812357000,1.393357177734375,-0.07839139966964721,-0.014951595014147459,-0.020379958472121505
1783003372822409500,1.403409423828125,-0.0730067840218544,0.000536189235933125,-0.02588878502147272
1783003372832460300,1.413460205078125,-0.08243453758060931,0.0005382715951651334,-0.02473632705071941
1783003372842512400,1.423512451171875,-0.0852799901396036,0.006272102539427578,-0.010012796038249507
1783003372852563500,1.4335634765625,-0.0863303759753704,0.007105119297467172,-0.0032556590613909064
1783003372862615300,1.443615234375,-0.08079378463625908,0.0076774392927065485,-0.0033296376130543645
1783003372872665300,1.453665283203125,-0.08004676566123962,-0.005005005213059485,0.0049311271260958165
1783003372882717400,1.463717529296875,-0.07840016749799252,-0.007079400334320962,0.008358800019836053
1783003372892768300,1.473768310546875,-0.0834895995914936,-0.011321458350867033,0.010468969707377254
1783003372902820400,1.4838203125,-0.07271744568645953,-0.014122012322209774,-0.002114370938623324
1783003372912871400,1.493871337890625,-0.08572773390710353,-0.016597206796705722,-0.0018468973751645534
1783003372922923300,1.50392333984375,-0.07301204471886158,-0.01306114162504673,-0.011561349787656217
1783003372932974300,1.513974365234375,-0.07809796968102455,-0.0003543663956224918,-0.009094311220152303
1783003372943026400,1.5240263671875,-0.07959317667484284,0.001078771680034697,-0.011289373579015955
1783003372953078300,1.534078369140625,-0.07824760728478432,-0.00027154695037752386,-0.009622107087075709
1783003372963129300,1.54412939453125,-0.08034896347820758,-0.0011633446909487246,-0.008205509154265746
1783003372973181200,1.55418115234375,-0.08469313016235828,0.006298332959227264,-0.0014144242420326917
1783003372983232300,1.564232177734375,-0.08080839768350125,0.006031681379675865,-0.004055759930517524
1783003372993284400,1.574284423828125,-0.08425532326698303,0.000207907129637897,0.0017281024342402816
1783003373003335200,1.584335205078125,-0.08335749764442443,0.0005517155986279249,-0.00953030061777681
1783003373013387300,1.59438720703125,-0.08440846800208092,-0.007736950927600264,-0.005617319291969761
1783003373023438300,1.604438232421875,-0.07183540215492248,-0.005443396630324423,-0.002825989806698635
1783003373033490400,1.614490478515625,-0.08201075921058654,-0.009042918959632515,-0.00732173945652321
1783003373043541200,1.624541259765625,-0.08589724525511264,-0.009002550416626036,0.0016738514963537453
1783003373053593300,1.63459326171875,-0.08305120817422866,-0.006358648311719298,0.005038514757016673
1783003373063644400,1.64464453125,-0.08364508241415024,-0.00828172532878816,0.00923565591960214
1783003373073696300,1.6546962890625,-0.07945464498698711,-0.006179053961113095,0.00455148015874438
1783003373083747300,1.664747314453125,-0.08320143029987812,-0.012750614371150732,-0.008621761804958805
1783003373093799400,1.67479931640625,-0.07707213376462459,-0.003923420521430671,-0.009388581458991394
1783003373103850200,1.684850341796875,-0.08544833244383335,0.00018814298324286937,0.0006705744716338813
1783003373113902300,1.69490234375,-0.0820084211230278,-0.0046835547063499685,-0.007462517900392413
1783003373123953400,1.704953369140625,-0.0809668031156063,0.00025222119539976116,-0.007185865516634657
1783003373134005200,1.715005126953125,-0.07528349678218364,-0.0017474647218361497,0.0007561338632367551
1783003373144056300,1.725056396484375,-0.08650690158605576,-0.0010278817430138588,0.002549858012748882
1783003373154108200,1.735108154296875,-0.08411445349156856,-0.0015858809519559145,0.0029749515570234504
1783003373164159200,1.7451591796875,-0.08456511986851692,-0.000019508418068289755,0.0000920713307801634
1783003373174211300,1.75521142578125,-0.08995441169142722,0.011318937600217759,0.003997006347449496
1783003373184262400,1.765262451171875,-0.0800736536681652,-0.00044478462543338535,-0.0024395934381522236
1783003373194314200,1.775314208984375,-0.09069967710077761,-0.007725004761479795,-0.01576633632997982
1783003373204365300,1.785365234375,-0.08202011156082153,-0.01884381667971611,-0.01990689760027453
1783003373214417200,1.795417236328125,-0.08232114033401013,-0.008457958678528665,-0.017171983610512687
1783003373224468200,1.80546826171875,-0.08382394611239433,-0.01157108573038131,-0.0017348244359716772
1783003373234520300,1.815520263671875,-0.08188216439485549,-0.00006904664821922778,0.0139751785968896
1783003373244571100,1.825571044921875,-0.07739478984773158,0.007901530372165143,0.012305583150545134
1783003373254623500,1.83562353515625,-0.08592237969636916,0.008459127722308038,0.011418132791528477
1783003373264674300,1.84567431640625,-0.08427052083611487,-0.0002088204450905323,0.011000811561755836
1783003373274726400,1.855726318359375,-0.08831365874707699,-0.011479169663228093,0.0004718552954494953
1783003373284777500,1.865777587890625,-0.07095277410149574,-0.00942545200381428,-0.013300749934045597
1783003373294829300,1.875829345703125,-0.08127893780469894,-0.01776299917306751,-0.01596133831227198
1783003373304880400,1.88588037109375,-0.0815811356216669,-0.013521671808883548,-0.018727222829032688
1783003373314932200,1.89593212890625,-0.07918576491773129,-0.003382956969179213,-0.012302843204187229
1783003373324983300,1.9059833984375,-0.08457154960930346,0.004521861338615417,0.011789934379141777
1783003373335035400,1.916035400390625,-0.07963175511956215,0.007759126226790249,0.006511838712589815
1783003373345086500,1.92608642578125,-0.08142682184278964,0.003230652484297752,0.00045955293630249794
1783003373355138300,1.93613818359375,-0.08052958074212074,-0.007189911504089832,0.005652984260395169
1783003373365189400,1.946189453125,-0.08621639420688151,-0.011049692204780876,0.00676645279447548
1783003373375241200,1.9562412109375,-0.08876490964591503,-0.014477182435430586,-0.008968310220306738
1783003373385292300,1.966292236328125,-0.080087097671628,-0.010259710870869456,-0.00895019917488098
1783003373395344400,1.976344482421875,-0.08532032214999198,-0.0031784108404070135,-0.017140784754650668
1783003373405395200,1.986395263671875,-0.07649579518139361,-0.000090637425519526,-0.006270842164102942
1783003373415447300,1.996447265625,-0.09130407273471355,0.006755940533615648,-0.006376083503710106
1783003373425499100,2.0064990234375,-0.07918284230828285,0.006848258459568024,-0.0063923770513851196
1783003373435550200,2.01655029296875,-0.08067804930210112,-0.007146437688544392,-0.0011611710001714526
1783003373445602300,2.026602294921875,-0.08696867387890815,-0.01122640047855675,0.0010605053709819912
1783003373455653000,2.036653076171875,-0.08232757007479667,-0.016228775343112647,0.010470467544719576
1783003373465705500,2.04670556640625,-0.08337269521355628,-0.006997896063327789,0.004101717964094132
1783003373475756300,2.05675634765625,-0.08576748139560222,-0.003215089588984847,0.012412979914620518
1783003373485808400,2.066808349609375,-0.07634031235873699,-0.010533303647860884,-0.0052107934508472675
1783003373495859500,2.076859375,-0.08067629573643208,-0.0050872036037966605,-0.01624108683541417
1783003373505911300,2.086911376953125,-0.07738193036615848,-0.01184672433398664,-0.020126641298178583
1783003373515962400,2.09696240234375,-0.0778255824804306,-0.006715279729664326,-0.015548474061908199
1783003373526014200,2.10701416015625,-0.07513152109086513,0.0008453282503411173,-0.013772075506532564
1783003373536065300,2.117065185546875,-0.086504563498497,-0.00990267759412527,-0.003567136163357645
1783003373546117400,2.127117431640625,-0.08875438825190067,-0.006605535744875669,0.00648132484331727
1783003373556168200,2.137168212890625,-0.07035071655511856,0.006028247313573956,0.017358254297077654
1783003373566220300,2.14722021484375,-0.08052081291377544,0.010709573530219495,0.01954877747814171
1783003373576271400,2.157271240234375,-0.0872539205610752,0.005039418939314783,0.01577244641035795
1783003373586323200,2.1673232421875,-0.08067220408320426,-0.001036065049469471,0.005719519291119649
1783003373596374300,2.177374267578125,-0.0859118583023548,-0.009937931570596992,-0.021768919479334726
1783003373606426000,2.187426025390625,-0.07902619044184685,-0.01628138231318444,-0.011528095972025766
1783003373616477200,2.197477294921875,-0.08022796744704246,-0.008539791743084788,-0.007248582888767123
1783003373626529300,2.207529296875,-0.08860299708247184,-0.006401647203229367,-0.016497947673313317
1783003373636580400,2.217580322265625,-0.07214286066889762,0.008270290619321167,0.002239093296835199
1783003373646632200,2.227632080078125,-0.08187631917595863,0.0050178281620144845,0.007318561118748039
1783003373656683300,2.237683349609375,-0.08577449565827847,0.01760207299031317,0.006432471599755809
1783003373666735400,2.2477353515625,-0.0788888277977705,0.01111972523368895,0.010413714122492819
1783003373676786200,2.2577861328125,-0.08621873229444027,-0.008813055726513266,0.010212510728277266
1783003373686838300,2.26783837890625,-0.08591945708692074,-0.017190350384265182,0.0048432387800887225
1783003373696889300,2.277889404296875,-0.07889467301666736,-0.02420267683174461,-0.004616645216289908
1783003373706941400,2.28794140625,-0.08128653658926487,-0.019809702569805084,-0.0018963351406157017
1783003373716992300,2.2979921875,-0.08697744170725345,-0.01701196161005646,0.005619785243691876
1783003373727044400,2.30804443359375,-0.09236088831126689,-0.014709054962545633,0.012084871338261291
1783003373737095400,2.318095458984375,-0.08336509642899036,0.004471154064685106,0.013037340624351053
1783003373747147300,2.328147216796875,-0.08006722392737865,0.009105572399683296,0.011870644065691157
1783003373757198300,2.3381982421875,-0.08470306703448295,0.018782989870570598,-0.0009327051396947353
1783003373767250200,2.348250244140625,-0.08918751897215843,0.007441511644981801,-0.009278170753922312
1783003373777301200,2.35830126953125,-0.08918284279704093,-0.00659095923025161,-0.020287065157433972
1783003373787353300,2.368353271484375,-0.08528992701172829,-0.003936572263948619,-0.024546256971871478
1783003373797404400,2.378404296875,-0.07989654353559017,-0.010066562918946146,-0.02638203929797746
1783003373807456300,2.388456298828125,-0.07465981192588805,-0.004545351812057197,-0.02470051595182158
1783003373817507300,2.39850732421875,-0.07690437598228454,0.013505195598118006,-0.014570797269325702
1783003373827559200,2.40855908203125,-0.07107143204510212,0.010541888813115656,-0.004275969419302418
1783003373837610200,2.4186103515625,-0.08244505897462368,0.004296637747995555,0.011128346931561827
1783003373847662300,2.428662353515625,-0.09471475796103476,0.005961027296259999,0.021285282414546237
1783003373857713200,2.438713134765625,-0.08035130156576634,-0.01955623926538974,0.015562703516660257
1783003373867765200,2.44876513671875,-0.06853285347819328,-0.033710144563205535,0.012648085578437895
1783003373877816800,2.45881689453125,-0.07885843265950679,-0.028740941315889355,0.010583170671574771
1783003373887869000,2.468868896484375,-0.08049977012574672,-0.027917971027828753,0.007176394435390829
1783003373897920000,2.478919921875,-0.08872808476686476,-0.0006944120049476623,-0.003895372603880241
1783003373907971800,2.488971923828125,-0.07241524786949158,0.009739742117375135,-0.016792592371487988
1783003373918023000,2.49902294921875,-0.08109481340944767,0.008730711205303669,-0.015241499605122952
1783003373928074800,2.50907470703125,-0.08079729176759719,0.0030482451220974326,-0.014059386281622573
1783003373938125800,2.519125732421875,-0.0791542007356882,-0.0021364275068044662,-0.005023865177156403
1783003373948178000,2.529177978515625,-0.08304828556478024,-0.004741312775574625,-0.0004066811047494411
1783003373958228700,2.539228759765625,-0.07601882531940937,0.0028568507358431813,0.011032238746481016
1783003373968280800,2.54928076171875,-0.08021101631224155,-0.000529978690855205,0.01238727921778336
1783003373978332000,2.559331787109375,-0.07168050385415553,-0.0010298910370096564,-0.0019219993048347531
1783003373988383700,2.5693837890625,-0.08021043179035187,-0.015070727881789207,-0.008309161324985324
1783003373998434800,2.579434814453125,-0.0837993961930275,-0.01930631962493062,-0.0037531876542139797
1783003374008486700,2.589486572265625,-0.08814180931150913,-0.02072009541299194,-0.006450728775653987
1783003374018537700,2.599537841796875,-0.0870931770414114,-0.011971446692198514,-0.003040582405449822
1783003374028589800,2.60958984375,-0.08036649913489818,0.002883811808004975,-0.003016343013336882
1783003374038640600,2.619640625,-0.0699000501781702,0.0009599310733377933,0.00038115393784828483
1783003374048693000,2.62969287109375,-0.08037292887568473,0.01632237191069871,-0.002776999565819278
1783003374058744000,2.639744140625,-0.07768062105178833,0.005024330968037247,-0.006219623433519154
1783003374068796000,2.6497958984375,-0.07573591672480105,-0.002841360905766487,0.0064072458269540215
1783003374078848000,2.659847900390625,-0.08097089476883411,-0.004219736586883664,-0.011614175953436643
1783003374088898800,2.66989892578125,-0.08725918125808238,-0.005201806426793337,-0.013340214294753967
1783003374098951000,2.679950927734375,-0.08112696211338043,-0.005470430767722427,-0.004698149487283081
1783003374109002000,2.690001953125,-0.08576748139560222,-0.0022657895075157285,-0.008985316154034808
1783003374119053800,2.7000537109375,-0.08097615546584129,-0.004704122570343315,0.0008335556141566484
1783003374129105000,2.71010498046875,-0.08591010473668574,-0.0037829526048153636,-0.0033947752711363135
1783003374139156700,2.72015673828125,-0.07693769372999668,-0.006646744538098573,-0.0024543160832487046
1783003374149207800,2.730207763671875,-0.08576689687371253,-0.00936389454230666,-0.007978933856775984
1783003374159260000,2.740260009765625,-0.08262742980420588,-0.01376958215534687,0.001630131085636094
1783003374169310700,2.750310791015625,-0.07200315993726253,-0.009992109443247318,-0.00018302841670811174
1783003374179362800,2.76036279296875,-0.08381985445916652,0.0018557474019005895,-0.0033310349856968966
1783003374189414000,2.770413818359375,-0.08605915781855583,0.007575513288192451,0.0008311535945162177
1783003374199465700,2.7804658203125,-0.08680500774979591,0.005903050031326711,0.0009596022797748446
1783003374209516800,2.790516845703125,-0.08276479244828223,0.0036790538389235732,-0.004973258367925882
1783003374219568600,2.800568603515625,-0.07723053919672966,0.00539078966025263,-0.0073514130755793295
1783003374229619700,2.81061962890625,-0.07678805612623692,-0.002227941715158522,-0.01683431262136437
1783003374239672000,2.820672119140625,-0.07663783400058746,-0.007352043263241648,-0.011823854915052652
1783003374249723000,2.830722900390625,-0.07020692417025566,-0.008202230351790785,-0.007509014790086075
1783003374259775000,2.84077490234375,-0.07499182035923004,-0.01669865787718445,-0.012785329491505399
1783003374269826000,2.850825927734375,-0.07842705550491809,-0.01058127097543329,0.00020956936376169324
1783003374279878000,2.8608779296875,-0.07244330492019653,-0.0014136661902070045,0.01187261682706885
1783003374289929000,2.870928955078125,-0.07902560591995715,0.0007697787960991263,0.019608106449944897
1783003374299980800,2.880980712890625,-0.08755085768103599,-0.0004804769933223724,0.01216868629734963
1783003374310032000,2.891031982421875,-0.08022270675003527,0.003223382493294775,0.004124039393756538
1783003374320084000,2.901083984375,-0.08021978414058685,-0.000005552957952022552,-0.01760618290985003
1783003374330134800,2.911134765625,-0.07618482953608036,-0.0037544571626931425,-0.016585607690457253
1783003374340187000,2.921186767578125,-0.06945639806389808,-0.005222264692932367,-0.023343100860342383
1783003374350238000,2.931238037109375,-0.0787315914094448,-0.009893580972217023,-0.008269267706014216
1783003374360289800,2.941289794921875,-0.07858136928379535,-0.0006384440340101719,-0.00016185776451602577
1783003374370340900,2.9513408203125,-0.07633680522739887,-0.0006634688774123787,0.00018195983762852845
1783003374380392700,2.961392822265625,-0.0815811356216669,-0.010347133425995707,0.007038173274789005
1783003374390443800,2.97144384765625,-0.08053191882967949,0.001270714055560529,0.010505502325482665
1783003374400495900,2.981495849609375,-0.08067337312698364,-0.003636749067157507,0.009781352769397199
1783003374410546700,2.991546630859375,-0.0856114140510559,-0.00687861706521362,0.00297380077955313
1783003374420598800,3.001598876953125,-0.07408639595210552,0.005214556310512125,-0.004358615334611386
1783003374430649900,3.01164990234375,-0.07288812607824802,0.004430712456442416,-0.02232827039514668
1783003374440701700,3.02170166015625,-0.07872983784377574,-0.008330788634903729,-0.02695447802422568
1783003374450752800,3.031752685546875,-0.08337035712599754,-0.005320354772545397,-0.017796590915415435
1783003374460804900,3.041804931640625,-0.07903495827019213,-0.008545381233654916,-0.00018576836306601763
1783003374470856000,3.05185595703125,-0.08053016526401043,-0.004264781305007636,0.0033412823850754647
1783003374480908000,3.061907958984375,-0.0829231978803873,0.0010885624216869472,0.01378555604261346
1783003374490958800,3.071958740234375,-0.07873802115023136,0.003457446977496147,0.013056575047783552
1783003374501011000,3.082010986328125,-0.07006313178539275,0.0012033479077741503,0.01733245313554071
1783003374511062000,3.09206201171875,-0.08517419167757034,-0.01289433369077742,0.00756862688967958
1783003374521113900,3.10211376953125,-0.08367723111808299,-0.019478972778096793,-0.002832172952312976
1783003374531165000,3.1121650390625,-0.0782914464265108,-0.016395400614291428,-0.018216588159464298
1783003374541216800,3.122216796875,-0.08307809618115425,-0.00820672386381775,-0.019989552648738026
1783003374551267800,3.132267822265625,-0.08142974445223808,0.0045972646623849865,-0.01848774238419719
1783003374561320000,3.14231982421875,-0.07814590047597884,0.013465521174855529,-0.013481814722530542
1783003374571370800,3.152370849609375,-0.07934533939361572,0.00933127091433853,0.0063907970156520605
1783003374581422800,3.1624228515625,-0.08443418696522713,0.008453903557918965,0.0033188148249406364
1783003374591474000,3.172473876953125,-0.08308569496572017,-0.0010264569709077477,0.009436293058237061
1783003374601525800,3.18252587890625,-0.07620178067088126,-0.006412899249605834,0.0009991579720284788
1783003374611576800,3.192576904296875,-0.08054302474558353,-0.005751074340008199,0.0018146025407593696
1783003374621628700,3.202628662109375,-0.0829366418838501,-0.013558314024843275,-0.0021260796427261083
1783003374631679700,3.2126796875,-0.07904489514231682,-0.011165938995592295,-0.006078370065614581
1783003374641731800,3.22273193359375,-0.08757482307851314,-0.010098090568371116,-0.0025933592277579006
1783003374651782700,3.23278271484375,-0.08143558967113494,-0.009472542548552156,-0.0008743351491168141
1783003374661835000,3.2428349609375,-0.07903788087964057,0.0026746991019695994,0.004260580053925514
1783003374671885800,3.2528857421875,-0.0788888277977705,0.010387465436384082,-0.0025934048935305327
1783003374681938000,3.26293798828125,-0.08098959946930408,0.003502783956564963,-0.00611748736645095
1783003374691989000,3.272989013671875,-0.08682371245026588,0.004414309310913086,-0.0007873692517168819
1783003374702040800,3.283040771484375,-0.0839776753693819,0.0001954860394820571,0.0019651991257444022
1783003374712092000,3.293091796875,-0.08247720767855644,-0.007638312858715653,-0.00009733202778734267
1783003374722144000,3.30314404296875,-0.08472410982251166,-0.009668174718506634,-0.0024963559935335068
1783003374732194800,3.31319482421875,-0.0887573108613491,0.0016694310495629905,-0.0020263364621438086
1783003374742247000,3.323246826171875,-0.0797773010700941,0.01044281235281378,-0.014773525900347157
1783003374752298000,3.333298095703125,-0.076937109208107,0.005863813999481499,-0.014095599239319563
1783003374762349800,3.343349853515625,-0.07185936755239963,-0.0027205840703099964,-0.012682645435165613
1783003374772401000,3.35340087890625,-0.07754735006093978,-0.010493556159362196,-0.015051950116083025
1783003374782452700,3.36345263671875,-0.07889584206044674,-0.013000059087574482,-0.004333353029191494
1783003374792503800,3.37350390625,-0.07560206121206284,-0.015010960518568752,0.005209131216723471
1783003374802556000,3.383555908203125,-0.08353460777699948,-0.017083894335106015,0.006863200300373137
1783003374812606700,3.393606689453125,-0.07395838565826415,-0.017415793170593677,0.01523915238440968
1783003374822658800,3.403658935546875,-0.07485095058381556,-0.0031831966133788227,0.019473639015853403
1783003374832710000,3.4137099609375,-0.09055822280347346,-0.011313823033683001,0.02705557291167788
1783003374842761700,3.42376171875,-0.08651216228306292,-0.000606404927931726,0.011866196219436824
1783003374852812800,3.433812744140625,-0.08186755134761332,0.00993029625341296,-0.006600503376731648
1783003374862864600,3.44386474609375,-0.0800742381900549,0.014188647817634046,-0.02347776009067893
1783003374872916000,3.453916015625,-0.07858487641513347,0.014494973820447921,-0.033049251235369594
1783003374882968000,3.463968017578125,-0.08098316972851753,0.005319660652801394,-0.03832672584741376
1783003374893019000,3.474018798828125,-0.08562719614207744,0.004387092510424554,-0.036146267402637745
1783003374903071200,3.4840712890625,-0.07919394822418689,-0.004865779405459761,-0.019581602035509422
1783003374913122000,3.4941220703125,-0.08473404669463634,-0.003425407871417701,-0.010920859927032142
1783003374923174100,3.504174072265625,-0.0805488699644804,-0.0012155498022213577,0.017220489794202147
1783003374933225200,3.51422509765625,-0.08384148176908493,0.0023879545824602244,0.02508728677970357
1783003374943277000,3.524277099609375,-0.0795025757819414,0.0019967998404055833,0.035591017273208125
1783003374953328000,3.534328125,-0.08248948263823985,-0.001972176855802536,0.015548620192380621
1783003374963380200,3.544380126953125,-0.07874328184723854,-0.004944653327949345,0.005388040580740198
1783003374973431000,3.55443115234375,-0.0776946495771408,-0.019181560734100638,0.0009697492144536226
1783003374983483100,3.564483154296875,-0.0711111795336008,-0.026980288318917155,-0.008122899771574885
1783003374993534200,3.5745341796875,-0.09161094672679901,-0.026862616755999623,-0.013754959974950179
1783003375003586000,3.5845859375,-0.08607435538768768,-0.02584083596020937,-0.004085260019637644
1783003375013637000,3.59463720703125,-0.08098316972851753,-0.0154332045186311,-0.0010312701433431357
1783003375023689000,3.60468896484375,-0.0874111569494009,0.027051709587313233,-0.008454880805453285
1783003375033740000,3.614739990234375,-0.07663783400058746,0.052965464653261005,0.006573076513689011
1783003375043792100,3.624792236328125,-0.07933540252149104,0.04722436371799558,0.006632250221865251
1783003375053843000,3.634843017578125,-0.08846388087272644,0.02704177271518856,0.009213535419339313
1783003375063895000,3.64489501953125,-0.08218027055859566,-0.013472316241823136,-0.008766869364073499
1783003375073946000,3.654946044921875,-0.08098316972851753,-0.04996518685873597,-0.017810738171776756
1783003375083998000,3.664998046875,-0.08382920680940151,-0.05618464589547366,-0.01575769636579789
1783003375094049000,3.675049072265625,-0.09160860863924027,-0.04730868100058287,-0.010711409294279292
1783003375104100900,3.685100830078125,-0.08158522727489471,-0.020807043044082818,-0.006718385002203286
1783003375114152000,3.69515185546875,-0.0803916335761547,0.007262355685792863,0.03368311955896206
1783003375124204000,3.7052041015625,-0.08368366085886955,0.019825959584861993,0.05533718048697337
1783003375134254800,3.7152548828125,-0.08637129250764847,0.022442717954516408,0.04694572030655108
1783003375144307200,3.72530712890625,-0.08068038738965988,0.008918306199274957,0.028051141553977504
1783003375154358300,3.735358154296875,-0.08202478773593902,0.002332863394357264,-0.003727678753621876
1783003375164410000,3.74541015625,-0.08052958074212074,-0.005786949370987713,-0.028877682905457912
1783003375174461200,3.755461181640625,-0.08322714926302432,0.0004070098983123898,-0.05482472831965424
1783003375184513000,3.765512939453125,-0.08412906653881072,0.003157404584996402,-0.06593008710127324
1783003375194564000,3.775564208984375,-0.0844353560090065,0.00790624307990074,-0.0425816981444601
1783003375204616200,3.7856162109375,-0.08235095095038414,-0.01342873282842338,-0.0043650268090888854
1783003375214667000,3.7956669921875,-0.07368132228255271,-0.01127634056750685,0.02236724156551063
1783003375224719000,3.805718994140625,-0.07532675140202046,-0.0052920054608955975,0.04640618833606131
1783003375234770200,3.815770263671875,-0.08714870662093162,-0.013737396918796002,0.05412885500998236
1783003375244822000,3.825822021484375,-0.08654255742132663,-0.0044392245564609766,0.051988920371839775
1783003375254873000,3.835873046875,-0.07875497228503227,-0.004085515747964382,0.02159714310900308
1783003375264925000,3.845925048828125,-0.07620996397733688,-0.0045349034832790494,-0.01461597898476757
1783003375274976000,3.85597607421875,-0.08234510573148728,-0.015301942821778356,-0.040469793157558887
1783003375285028000,3.866028076171875,-0.07950199126005172,-0.0030316227808594703,-0.04663264490254223
1783003375295079000,3.876078857421875,-0.09506956274807453,0.00663896309044212,-0.04248592788609676
1783003375305130000,3.8861298828125,-0.08489303664863108,0.009391586266830563,-0.028019604771398005
1783003375315182000,3.89618212890625,-0.07262158409655094,0.031138796237856148,-0.0001132967818994075
1783003375325234000,3.90623388671875,-0.07846504942774772,0.026993184333108364,0.027174504849920046
1783003375335285000,3.916284912109375,-0.08266016303002834,0.010798566987924278,0.03966096099270507
1783003375345336000,3.926336181640625,-0.0852063403815031,-0.007980477359890938,0.03675541227692738
1783003375355388200,3.93638818359375,-0.09103753075301646,-0.028830921154282985,0.02639939229157753
1783003375365439000,3.94643896484375,-0.08519581898748874,-0.0401637411493808,0.005180407445738092
1783003375375491000,3.956490966796875,-0.0949181715786457,-0.03274977509845048,-0.011571551521262153
1783003375385542100,3.966542236328125,-0.08608312321603298,-0.00720616851914674,-0.016329066512966527
1783003375395594200,3.97659423828125,-0.07261807696521282,0.012704217946156858,-0.02757492061066441
1783003375405645000,3.98664501953125,-0.07187456512153148,0.026975100687146186,-0.03054223685050383
1783003375415697200,3.996697265625,-0.08399638006985187,0.04191124240383506,-0.015500479334872214
1783003375425748200,4.006748291015625,-0.08654372646510601,0.026094920319132506,0.003314659239631146
1783003375435800000,4.016800048828125,-0.08190203813910484,-0.0024788842689245937,0.01848458231273107
1783003375445851100,4.02685107421875,-0.0811503429889679,-0.020260807338170705,0.017478053884999827
1783003375455903000,4.036903076171875,-0.08892682220935821,-0.037862441937066615,0.017739344302844254
1783003375465954000,4.0469541015625,-0.08338438565135002,-0.030347901588492095,0.019874684964260085
1783003375476006100,4.057006103515625,-0.08143383610546588,-0.01487038300409913,0.00543213545079343
1783003375486057000,4.067056884765625,-0.07724281415641307,-0.0015501885840669273,-0.00043272886145859956
1783003375496109000,4.077109130859375,-0.07140928569734097,0.0027075784582644698,-0.011476922907214611
1783003375506160000,4.08716015625,-0.08996668665111064,0.0030792247822508216,-0.0066653853064868596
1783003375516212000,4.0972119140625,-0.08443360244333743,0.004937894793599844,-0.009793280669208615
1783003375526263000,4.107262939453125,-0.08234101407825946,0.005442921706289052,-0.02344931031432934
1783003375536315000,4.11731494140625,-0.086827219581604,-0.0010929098032414913,-0.010184700272744521
1783003375546366000,4.127365966796875,-0.08578384800851345,-0.0029292218523100017,0.0017543054545763879
1783003375556418000,4.13741796875,-0.08757891473174095,-0.00029953093584626913,0.014333408316876739
1783003375566468900,4.14746875,-0.07904021896719932,0.010812705111131072,0.011298086608434095
1783003375576521200,4.157521240234375,-0.07933657156527042,0.0035887817395851016,0.010499675372894852
1783003375586572000,4.167572021484375,-0.07394961782991885,-0.011201996689662336,0.0008743899480439721
1783003375596624100,4.1776240234375,-0.07559329338371754,-0.016761201719380916,-0.007056101657124236
1783003375606675200,4.18767529296875,-0.08711597339510917,-0.016732377483695743,-0.01477409215592779
1783003375616727000,4.19772705078125,-0.07918810300529003,-0.006632642947509884,-0.007151570521388203
1783003375626778000,4.207778076171875,-0.08891513177156447,-0.008878047254122794,-0.016329075646121054
1783003375636830200,4.217830322265625,-0.08981529548168182,0.00047645840533077716,-0.0032773959691636263
1783003375646881000,4.227881103515625,-0.08218319316804408,0.016215039078705012,0.0014907043486367911
1783003375656933000,4.23793310546875,-0.07859422876536845,0.019861030898243186,-0.003161185710970312
1783003375666984200,4.247984130859375,-0.07964344555735588,0.007937807261943817,0.005797744759637862
1783003375677036000,4.2580361328125,-0.08577858731150627,0.005243490144051611,0.0008758238533046096
1783003375687087000,4.268087158203125,-0.08218962290883064,-0.008004515822604297,-0.0016392003080807625
1783003375697139000,4.278138916015625,-0.08039514070749282,-0.01154719339814037,0.00005273483423516154
1783003375707190000,4.28818994140625,-0.07740472671985625,-0.011922785244882106,0.0035331334290560333
1783003375717242000,4.2982421875,-0.07904840227365494,-0.0087140523314476,-0.012821880375919862
1783003375727293000,4.30829296875,-0.08638122937977313,-0.003910597572475672,-0.005530581723432988
1783003375737345000,4.318344970703125,-0.08832768727242946,0.00746898417379707,-0.002879957616794854
1783003375747396000,4.32839599609375,-0.07620528780221938,0.007860723437741399,-0.005039309341460466
1783003375757448000,4.338447998046875,-0.07500409531891346,0.007780315145291388,0.0002878496312070638
1783003375767499000,4.3484990234375,-0.0877291368573904,0.0007305062316358089,0.006789952401071786
1783003375777550800,4.35855078125,-0.09087678723335266,-0.005266761421784758,0.005446109177218749
1783003375787602000,4.368601806640625,-0.07665887678861617,-0.012606018268689512,0.0032430461749900132
1783003375797654300,4.378654296875,-0.07500818697214126,-0.01794778115544468,0.013207591757876797
1783003375807705000,4.388705078125,-0.08024550310373306,-0.011670417919009923,0.004336622698511928
1783003375817757200,4.398757080078125,-0.08892682220935821,-0.003989215766638517,0.011913368962565436
1783003375827808300,4.408808349609375,-0.08788286611437797,0.00046155309714376923,0.010069823455112054
1783003375837860000,4.418860107421875,-0.09057342037260532,-0.0069026920605450865,-0.005339497864432633
1783003375847911200,4.4289111328125,-0.08113982159495353,-0.011083740604855119,-0.0005873440344352275
1783003375857962200,4.438962158203125,-0.08188041082918643,0.0020563114752992985,-0.005579571964312345
1783003375868014000,4.44901416015625,-0.08038111218214035,0.008700790991075336,-0.010103798789950087
1783003375878065000,4.45906494140625,-0.07245674892365932,0.01151877102125436,-0.016537704294966534
1783003375888117000,4.469116943359375,-0.07739537436962127,0.012560279430821537,-0.01530849129357375
1783003375898167800,4.479167724609375,-0.08009002028107642,0.010484715265780686,-0.016808237465191632
1783003375908220200,4.48922021484375,-0.08548574184477328,0.007237111646682024,-0.0005361070375423878
1783003375918271000,4.49927099609375,-0.07890870154201984,-0.003830298877879977,0.0011647877293638885
1783003375928323000,4.509322998046875,-0.08818564845323562,0.0008084668386727571,0.018561410408606753
1783003375938374100,4.5193740234375,-0.07845452803373336,-0.00826700268369168,0.021495189705025404
1783003375948426000,4.529426025390625,-0.07710778959989548,-0.003745725866965949,0.015354257530905305
1783003375958477000,4.53947705078125,-0.07501753932237624,-0.010634279804304241,0.013442222497658803
1783003375968529000,4.54952880859375,-0.07367080088853836,-0.018408749730698764,0.004818223069841042
1783003375978580000,4.559580078125,-0.08069909209012985,-0.024504436257295308,-0.005125982977915555
1783003375988632000,4.569632080078125,-0.07994564337432385,-0.009683335755020379,-0.002301728470576927
1783003375998683000,4.579682861328125,-0.07097089428007602,0.0027975582966580986,-0.007665429194504395
1783003376008735000,4.58973486328125,-0.09162322168648242,0.0021381445398554206,-0.007744814573647454
1783003376018786000,4.5997861328125,-0.07875964846014977,0.01200396072231233,-0.007293709805281832
1783003376028838000,4.609837890625,-0.08265665589869022,0.00840951642692089,0.002313309310516342
1783003376038889000,4.619888916015625,-0.08804244059026241,0.005665807209350168,-0.006575222805002704
1783003376048940800,4.62994091796875,-0.08430325406193732,0.0010626607954502105,0.0013161971651017665
1783003376058991900,4.639991943359375,-0.08130582581162452,0.0052759311089292165,0.0037267197723966088
1783003376069044000,4.6500439453125,-0.07666939818263054,-0.005118767785839736,0.009180829592980444
1783003376079094800,4.6600947265625,-0.08265490233302115,-0.00837455471139401,0.009582816256303339
1783003376089147000,4.67014697265625,-0.0908838014960289,-0.011998626960068941,0.0045207653600722545
1783003376099198000,4.680197998046875,-0.08265139520168303,-0.007418094236776232,-0.004746062015928328
1783003376109250000,4.69025,-0.08025310188829898,-0.01873107702024281,-0.017987546910252422
1783003376119301000,4.700301025390625,-0.08384206629097461,-0.005634243027307093,-0.00949248935803771
1783003376129353000,4.71035302734375,-0.08295067040920256,-0.004321333797834813,-0.007022765643103048
1783003376139404000,4.720404052734375,-0.08130407224595547,0.002528166770748794,-0.00828390815271996
1783003376149456100,4.7304560546875,-0.08878536791205406,0.011492065677419304,-0.003786459736153483
1783003376159507000,4.7405068359375,-0.08071253609359264,0.009268982800468803,0.002673776653362438
1783003376169559000,4.75055908203125,-0.08041442992985248,0.015577435294911264,0.0031081312163267283
1783003376179610000,4.760610107421875,-0.07547638900578021,0.012438004758022725,0.0035776392910629507
1783003376189662000,4.770661865234375,-0.07712707882225513,-0.002549647950194776,0.003418558005522936
1783003376199713000,4.780713134765625,-0.0856593448460102,-0.015798201906122265,-0.003938380628544837
1783003376209764900,4.790764892578125,-0.08282032202780246,-0.017502521605975926,-0.010901461106818168
1783003376219816000,4.80081591796875,-0.07832827130556107,-0.014706534211896358,-0.007382365336269139
1783003376229867000,4.810866943359375,-0.08416063072085381,-0.013165953706391155,-0.004239710795832798
1783003376239918800,4.8209189453125,-0.09089490741193294,-0.0100628731245175,0.009439644925948232
1783003376249970000,4.830969970703125,-0.08654723359644413,0.0005036752058193087,0.006961052917968481
1783003376260022000,4.84102197265625,-0.08280570898056029,0.007943542882986366,0.003144718633359298
1783003376270072800,4.85107275390625,-0.08205635191798209,0.013188019407726823,0.012554927402269095
1783003376280125000,4.861125,-0.07816635874211787,0.008137056161090731,-0.001574720237124711
1783003376290176000,4.871176025390625,-0.0811585262954235,0.002914097348414361,-0.011366512202145532
1783003376300227800,4.881227783203125,-0.09088438601791858,-0.0068244757251814,-0.012961626773327588
1783003376310279000,4.89127880859375,-0.0795072519570589,-0.016397263777814804,-0.023515964076062663
1783003376320330800,4.901330810546875,-0.0811544346421957,-0.011292341854237019,-0.007125458832597359
1783003376330381800,4.9113818359375,-0.07860767276883125,0.005951638413406908,0.01160561818764545
1783003376340434200,4.92143408203125,-0.07292027478218079,0.013540705302916466,0.006195521038724109
1783003376350484700,4.931484619140625,-0.07262216861844062,0.013566935722716151,0.011852359490329398
1783003376360537000,4.941537109375,-0.08323942422270775,-0.002634001765400171,0.017825935740908606
1783003376370588200,4.951588134765625,-0.08457973291575908,-0.01701338638216257,-0.0027687979930546133
1783003376380640000,4.961639892578125,-0.07874386636912822,-0.023591814924404025,-0.005912265384243801
1783003376390691000,4.971691162109375,-0.08278700428009032,-0.01153071718737483,-0.009187378064775839
1783003376400743000,4.981742919921875,-0.08518880472481251,-0.006714841338247061,-0.01644853730732575
1783003376410794000,4.9917939453125,-0.07756137858629227,0.0031047976149246093,-0.019201681073522193
1783003376420846000,5.00184619140625,-0.07172375847399234,0.016180077363178134,-0.019698442481365052
1783003376430897000,5.01189697265625,-0.07980243551135063,0.016376622848585248,-0.005509475003322586
1783003376440949000,5.021948974609375,-0.08564414727687836,0.006022621290385723,-0.0027874935603700575
1783003376451000000,5.032,-0.08744272113144397,-0.013184475743770598,0.003547664277907461
1783003376461052000,5.042052001953125,-0.0856505770176649,-0.025495164327695965,0.0021044888654258103
1783003376471103000,5.05210302734375,-0.08146423124372959,-0.025409568403474986,0.007623179221665486
1783003376481154800,5.06215478515625,-0.0852022487282753,-0.01346910137142986,0.009252460923930629
1783003376491206000,5.072205810546875,-0.07801087591946125,-0.011121661462448537,0.007613014020677655
1783003376501258000,5.082258056640625,-0.09162146812081337,0.008667363645508885,0.005159291592473164
1783003376511308800,5.092308837890625,-0.08518646663725375,0.0304998407471925,-0.006828777440963312
1783003376521361000,5.10236083984375,-0.09402326856553554,0.020516900991089642,-0.01097836226793006
1783003376531412000,5.112411865234375,-0.08773907372951507,0.006568272474408149,-0.02607269022101536
1783003376541462800,5.122462890625,-0.07996259450912475,-0.008609386380575597,-0.018343712537316606
1783003376551515000,5.132514892578125,-0.08684767784774303,-0.026135654188320038,-0.01495848141266033
1783003376561566000,5.14256591796875,-0.07951835787296295,-0.020253756542876363,-0.0005841656966600567
1783003376571618000,5.1526181640625,-0.07293897948265075,-0.011445596187189221,0.00794809119394049
1783003376581668900,5.1626689453125,-0.08715572088360786,0.0031073548981919883,0.034760292936954644
1783003376591721000,5.172720947265625,-0.08685527663230895,0.010272387689352035,0.03066381740355864
1783003376601772000,5.18277197265625,-0.08730302039980888,0.0018663418611511587,0.019894019852392374
1783003376611824000,5.19282421875,-0.08700023806095122,-0.005058160172402858,0.00585855330247432
1783003376621875000,5.202875,-0.08415770811140537,-0.008146919967979192,-0.014369758271891624
1783003376631927000,5.212927001953125,-0.08745090443789959,-0.005582951231487095,-0.018720272498438134
1783003376641978000,5.22297802734375,-0.07622633059024811,-0.00414349301289767,-0.026715920027997345
1783003376652030000,5.233030029296875,-0.0801215844631195,0.007975216662883759,-0.023944738281611352
1783003376662081000,5.2430810546875,-0.0923912834495306,0.005096409823559224,-0.012948018373083323
1783003376672132900,5.2531328125,-0.0792325266689062,0.015172361625358462,-0.002934281619917601
1783003376682184000,5.263183837890625,-0.07384674197733401,0.009541114272736012,0.01358058978873305
1783003376692236000,5.273236083984375,-0.0717518155246973,-0.0030490488396957517,0.023564588990760967
1783003376702286800,5.283286865234375,-0.0730938777834177,-0.003444039506651461,0.030417459693364797
1783003376712339000,5.2933388671875,-0.07697861026227473,-0.0039613779116421935,0.02353229415635578
1783003376722390000,5.30339013671875,-0.07997136233747006,-0.008238909100368619,-0.003012488822126761
1783003376732441900,5.31344189453125,-0.08221709543764591,-0.010916603877022861,-0.011140548826009034
1783003376742493000,5.323492919921875,-0.07144727962017058,-0.005267492074146866,-0.016668271872075275
1783003376752544800,5.333544677734375,-0.08985738105773926,-0.0008081745777279138,-0.028505607323208823
1783003376762595800,5.343595947265625,-0.07893968120217323,0.000059438569657504554,-0.01969895393801853
1783003376772647000,5.35364697265625,-0.0825268920391798,0.010566840591281651,-0.0014569847421254962
1783003376782698800,5.36369873046875,-0.08566986624002457,0.0025022286118939517,0.013528019351279362
1783003376792749800,5.373749755859375,-0.07833703913390636,-0.01216989187374711,0.021504660786269232
1783003376802802200,5.38380224609375,-0.08312778054177761,-0.00969097107220441,0.02814540484184399
1783003376812852700,5.393852783203125,-0.07743979803323746,-0.012413893230073154,0.01980683475928381
1783003376822905000,5.403905029296875,-0.09344868354797363,-0.019014022147469223,0.005637549229245632
1783003376832956200,5.4139560546875,-0.08641513164937496,-0.007755728693306446,0.009391421870049089
1783003376843008000,5.424008056640625,-0.0817728588014841,-0.0006356310224160551,-0.004219325594929978
1783003376853059000,5.43405908203125,-0.07818155631124973,0.011498751146532595,-0.01782395384637639
1783003376863111000,5.44411083984375,-0.08880173452496529,0.012009404082410037,-0.016211696344148367
1783003376873162000,5.454161865234375,-0.07712590977847576,0.020551424315199254,-0.01661674261423759
1783003376883213300,5.46421337890625,-0.08146189315617083,0.016440664528124035,-0.014147548622265457
1783003376893264400,5.474264404296875,-0.0786228703379631,0.01114376369640231,-0.0022315949769690633
1783003376903316200,5.484316162109375,-0.07728022355735302,-0.006562646451219916,-0.012600830636918544
1783003376913367300,5.4943671875,-0.07459142286479473,-0.015141893421858548,-0.0034180191494058818
1783003376923419100,5.504419189453125,-0.07683715596497058,-0.0158862089831382,0.014576258895732462
1783003376933470200,5.51447021484375,-0.0838689542979002,-0.004836187984794378,0.02585285519156605
1783003376943522600,5.5245224609375,-0.08462006492614746,0.006800839121267199,0.024006240944191813
1783003376953573000,5.534572998046875,-0.0840215145111084,-0.008481522217206657,0.009728289141599088
1783003376963625500,5.54462548828125,-0.0772808080792427,-0.011176314259134233,0.012743673173710703
1783003376973676500,5.554676513671875,-0.08176526001691818,-0.008735058586858212,-0.009498562905797734
1783003376983728400,5.564728271484375,-0.08266893085837364,-0.011268851380795239,-0.015589344928413629
1783003376993779500,5.574779541015625,-0.07683774048686028,-0.01217171850465238,-0.010299476625677198
1783003377003830500,5.58483056640625,-0.08147416811585426,-0.007891958826221524,-0.02346343017122708
1783003377013882400,5.59488232421875,-0.08252338490784168,-0.009822378899529575,-0.00530522113549523
1783003377023933400,5.604933349609375,-0.07729016042947769,0.0044756841093301775,0.006547841607732698
1783003377033985300,5.6149853515625,-0.07758943563699722,0.016732121755369006,0.009322183425584808
1783003377044036400,5.625036376953125,-0.07564823844134808,0.015811499779112635,0.01011681353515014
1783003377054088400,5.63508837890625,-0.07759586537778378,0.007585304029844701,0.008875718299718572
1783003377064139300,5.64513916015625,-0.08642682208716869,-0.0034497751276940107,0.002179910455504432
1783003377074191400,5.65519140625,-0.0844920546323061,-0.013351977797783911,-0.0069915576540865
1783003377084242400,5.665242431640625,-0.0831453161984682,-0.01978529878091067,0.00007242591539397835
1783003377094294300,5.675294189453125,-0.08598667710423469,-0.01878024992421269,-0.013224296297505498
1783003377104345300,5.685345458984375,-0.07820493718683719,-0.0039975086709484456,-0.012707378017622976
1783003377114397200,5.695397216796875,-0.0810498052239418,0.0033595030283555386,-0.005903470156434923
1783003377124448300,5.7054482421875,-0.08479542149305343,0.011228336707316338,0.003568095144582912
1783003377134500400,5.715500244140625,-0.08494389005303382,0.017487250971607863,-0.001357387692015618
1783003377144551200,5.72555126953125,-0.07401391523778438,0.007363368374854326,-0.003955322630191222
1783003377154603300,5.735603271484375,-0.08643442087173461,-0.0028087372777983546,-0.008491696551349013
1783003377164654300,5.745654296875,-0.08000117295384407,-0.010291823042184114,-0.015172480356367304
1783003377174706400,5.75570654296875,-0.07147416762709617,-0.0057745282808318735,-0.010677927149785682
1783003377184757200,5.76575732421875,-0.07461655730605125,0.0015731310682371258,-0.004010715212393552
1783003377194808300,5.775808349609375,-0.07760521772801876,0.003010653058066964,0.009459089411934837
1783003377204860400,5.7858603515625,-0.09002689240574836,0.01622793509289622,0.004239199339179322
1783003377214911500,5.795911376953125,-0.08987199410498142,0.008629808114096521,0.002985153290629387
1783003377224963300,5.80596337890625,-0.0870277105897665,-0.0027709260180592537,0.0073494859799742695
1783003377235014400,5.816014404296875,-0.06802782656550407,-0.009099873311258852,-0.0067532097204122685
1783003377245066500,5.82606640625,-0.07775836246311664,-0.035475765996240076,-0.005975393748329952
1783003377255117300,5.836117431640625,-0.09406535414159298,-0.03180219205003232,-0.007235038420604542
1783003377265169400,5.84616943359375,-0.08792845882177353,-0.009956672803685068,-0.007063188985036686
1783003377275220500,5.856220458984375,-0.07970014418065548,0.009371858653053641,0.00796790100610815
1783003377285272300,5.866272216796875,-0.07715747396051884,0.023141879199817774,0.013878495023073627
1783003377295323400,5.876323486328125,-0.07192249591648578,0.017210333726368845,0.01440737773538567
1783003377305375200,5.886375244140625,-0.0801519796013832,0.018019860010966657,0.004953667751466855
1783003377315426300,5.89642626953125,-0.07865092738866805,0.011826850589737295,0.007460965264122933
1783003377325478400,5.906478515625,-0.07551029127538204,0.00115183691624552,-0.01354916260400787
1783003377335529200,5.916529296875,-0.07820961336195469,-0.0055520446365699165,-0.03203086797306314
1783003377345581300,5.926581298828125,-0.08285597786307335,-0.004904065589234233,-0.022658589194901286
1783003377355632400,5.93663232421875,-0.08390636369884014,-0.006774352973140775,-0.023858439104491844
1783003377365684200,5.946684326171875,-0.0988660324215889,0.008363996784761548,-0.009997351873945444
1783003377375735300,5.9567353515625,-0.08674655556082725,0.022639738363958894,0.0008905647647101431
1783003377385786400,5.966786376953125,-0.08450374507009982,0.011192790469899773,0.014452869978081434
1783003377395838200,5.976838134765625,-0.08599836754202843,-0.012340462667681277,0.015826542084617538
1783003377405889300,5.98688916015625,-0.07783084317743778,-0.02604143656622618,0.0018783702256623654
1783003377415941000,5.996941162109375,0.7441472189754247,-0.012680544809624552,0.0010048479272983968
1783003377425992200,6.0069921875,-1.0422241566210984,-0.06120755209140479,-0.02764037792915478
1783003377436044500,6.01704443359375,0.019778467181324956,-0.03135229285806417,0.1471043680882547
1783003377446095000,6.02709521484375,-0.11000292798578738,0.08921674506664276,-0.19064462733287363
1783003377456147500,6.0371474609375,-0.12471300586163997,-0.012095657593756913,0.137251447919989
1783003377466198500,6.047198486328125,-0.06417933444380759,0.06987929965108633,-0.14087547450289128
1783003377476250400,6.05725048828125,-0.14228431838750838,0.0010062544330954552,0.05593235163483768
1783003377486301400,6.067301513671875,-0.2509399234175682,-0.009333462871424853,-0.047241716711595653
1783003377496353300,6.077353271484375,-0.15447744500637053,0.0027210589943453666,0.16771452772021292
