time,seconds_elapsed,z,y,x
1783003371491841000,0.072841064453125,-1.0033416748046875,-0.0359039306640625,0.0061492919921875
1783003371501892000,0.08289208984375,-1.0142669677734375,-0.036834716796875,0.009124755859375
1783003371511944000,0.09294384765625,-1.0175628662109375,-0.038848876953125,0.01171875
1783003371521995000,0.1029951171875,-1.011260986328125,-0.0381011962890625,0.0108489990234375
1783003371532047000,0.113047119140625,-1.0016632080078125,-0.0367279052734375,0.0084381103515625
1783003371542098000,0.123097900390625,-0.9994964599609375,-0.034942626953125,0.0083770751953125
1783003371552150000,0.13314990234375,-1.006805419921875,-0.0355224609375,0.0104217529296875
1783003371562201000,0.143201171875,-1.0128021240234375,-0.036224365234375,0.01202392578125
1783003371572253000,0.1532529296875,-1.0127410888671875,-0.037994384765625,0.0118255615234375
1783003371582304000,0.163303955078125,-1.0071258544921875,-0.0386199951171875,0.0102386474609375
1783003371592355800,0.17335595703125,-1.002655029296875,-0.0388031005859375,0.0076141357421875
1783003371602407000,0.183406982421875,-1.003692626953125,-0.0382537841796875,0.0077362060546875
1783003371612459000,0.193458984375,-1.0080108642578125,-0.038360595703125,0.009429931640625
1783003371622511000,0.203510986328125,-1.0103912353515625,-0.0377349853515625,0.0106048583984375
1783003371632562200,0.213562255859375,-1.0097198486328125,-0.037994384765625,0.011077880859375
1783003371642614000,0.223614013671875,-1.006378173828125,-0.03662109375,0.010498046875
1783003371652665000,0.2336650390625,-1.0045013427734375,-0.0373687744140625,0.01129150390625
1783003371662717200,0.24371728515625,-1.0060882568359375,-0.0369720458984375,0.0113067626953125
1783003371672768000,0.25376806640625,-1.0091094970703125,-0.037017822265625,0.0101776123046875
1783003371682820000,0.263820068359375,-1.0102996826171875,-0.03765869140625,0.0091705322265625
1783003371692871200,0.27387109375,-1.0073699951171875,-0.0367279052734375,0.006744384765625
1783003371702923000,0.283923095703125,-1.006195068359375,-0.036376953125,0.00640869140625
1783003371712974000,0.29397412109375,-1.007171630859375,-0.03631591796875,0.0062103271484375
1783003371723026000,0.30402587890625,-1.0075836181640625,-0.036834716796875,0.0078887939453125
1783003371733077000,0.314076904296875,-1.008819580078125,-0.036102294921875,0.0094146728515625
1783003371743129000,0.324129150390625,-1.0080413818359375,-0.036895751953125,0.009796142578125
1783003371753180000,0.334179931640625,-1.00653076171875,-0.036956787109375,0.0113372802734375
1783003371763232000,0.34423193359375,-1.0072174072265625,-0.038055419921875,0.01190185546875
1783003371773283000,0.354282958984375,-1.0067901611328125,-0.0388031005859375,0.012359619140625
1783003371783335000,0.3643349609375,-1.00714111328125,-0.0387420654296875,0.012939453125
1783003371793386000,0.374385986328125,-1.00860595703125,-0.0383758544921875,0.0118560791015625
1783003371803437800,0.384437744140625,-1.0088348388671875,-0.0368499755859375,0.00909423828125
1783003371813489000,0.394489013671875,-1.00714111328125,-0.0370635986328125,0.0088043212890625
1783003371823541200,0.404541259765625,-1.0066375732421875,-0.0360565185546875,0.0081329345703125
1783003371833592000,0.414592041015625,-1.0087127685546875,-0.0366058349609375,0.00750732421875
1783003371843644200,0.42464404296875,-1.008148193359375,-0.036651611328125,0.00933837890625
1783003371853695200,0.4346953125,-1.008331298828125,-0.0369873046875,0.0100250244140625
1783003371863747000,0.4447470703125,-1.0069122314453125,-0.03680419921875,0.0105743408203125
1783003371873798400,0.45479833984375,-1.0070037841796875,-0.036590576171875,0.011383056640625
1783003371883850200,0.464850341796875,-1.0064849853515625,-0.0361785888671875,0.0115203857421875
1783003371893902300,0.47490234375,-1.0072174072265625,-0.0374603271484375,0.01104736328125
1783003371903953400,0.484953369140625,-1.007965087890625,-0.038116455078125,0.010955810546875
1783003371914005200,0.495005126953125,-1.0082855224609375,-0.0381622314453125,0.0099945068359375
1783003371924056300,0.505056396484375,-1.0070343017578125,-0.0388946533203125,0.0093536376953125
1783003371934108200,0.515108154296875,-1.0074920654296875,-0.0379638671875,0.0092315673828125
1783003371944159200,0.5251591796875,-1.00787353515625,-0.037750244140625,0.009429931640625
1783003371954211300,0.53521142578125,-1.0078125,-0.036712646484375,0.01080322265625
1783003371964262100,0.54526220703125,-1.0080108642578125,-0.0354766845703125,0.0103912353515625
1783003371974314200,0.555314208984375,-1.0091094970703125,-0.035736083984375,0.0098419189453125
1783003371984365300,0.565365234375,-1.0072784423828125,-0.03607177734375,0.0101470947265625
1783003371994417200,0.575417236328125,-1.0070343017578125,-0.036834716796875,0.008636474609375
1783003372004468200,0.58546826171875,-1.0074920654296875,-0.0378570556640625,0.0097198486328125
1783003372014520300,0.595520263671875,-1.0078582763671875,-0.03900146484375,0.00982666015625
1783003372024571400,0.6055712890625,-1.006439208984375,-0.0384063720703125,0.00970458984375
1783003372034623500,0.61562353515625,-1.00689697265625,-0.037811279296875,0.0106048583984375
1783003372044674300,0.62567431640625,-1.0066070556640625,-0.037200927734375,0.01104736328125
1783003372054726400,0.635726318359375,-1.0065155029296875,-0.03619384765625,0.01177978515625
1783003372064777500,0.645777587890625,-1.0077056884765625,-0.036956787109375,0.0110931396484375
1783003372074829300,0.655829345703125,-1.0068817138671875,-0.0374908447265625,0.0109710693359375
1783003372084880400,0.66588037109375,-1.0076751708984375,-0.0386962890625,0.0104217529296875
1783003372094932200,0.67593212890625,-1.0085601806640625,-0.038665771484375,0.0092926025390625
1783003372104983300,0.6859833984375,-1.0070343017578125,-0.0375518798828125,0.0087432861328125
1783003372115035400,0.696035400390625,-1.0068359375,-0.0368499755859375,0.0081329345703125
1783003372125086200,0.706086181640625,-1.0071563720703125,-0.0359649658203125,0.0093994140625
1783003372135138300,0.71613818359375,-1.0070343017578125,-0.0366668701171875,0.0100250244140625
1783003372145189400,0.726189453125,-1.0071868896484375,-0.036651611328125,0.010406494140625
1783003372155241200,0.7362412109375,-1.0079803466796875,-0.037261962890625,0.01220703125
1783003372165293300,0.746293212890625,-1.007415771484375,-0.0370330810546875,0.010711669921875
1783003372175344000,0.75634423828125,-1.006988525390625,-0.0378265380859375,0.0088958740234375
1783003372185395200,0.766395263671875,-1.006927490234375,-0.03765869140625,0.0091094970703125
1783003372195447300,0.776447265625,-1.007843017578125,-0.037261962890625,0.0098114013671875
1783003372205499400,0.78649951171875,-1.007843017578125,-0.03826904296875,0.0081787109375
1783003372215550200,0.79655029296875,-1.0075836181640625,-0.0379638671875,0.0084686279296875
1783003372225602300,0.806602294921875,-1.0079193115234375,-0.0380096435546875,0.00872802734375
1783003372235653400,0.8166533203125,-1.0076446533203125,-0.0374908447265625,0.0103759765625
1783003372245705500,0.82670556640625,-1.007904052734375,-0.037628173828125,0.0107269287109375
1783003372255756300,0.83675634765625,-1.007568359375,-0.037384033203125,0.011810302734375
1783003372265808400,0.846808349609375,-1.007232666015625,-0.0365142822265625,0.011993408203125
1783003372275859500,0.856859375,-1.0082550048828125,-0.03680419921875,0.0102996826171875
1783003372285911300,0.866911376953125,-1.007965087890625,-0.037994384765625,0.01031494140625
1783003372295962400,0.87696240234375,-1.0075531005859375,-0.03759765625,0.0088043212890625
1783003372306014200,0.88701416015625,-1.0077362060546875,-0.0373992919921875,0.00897216796875
1783003372316065300,0.897065185546875,-1.0073394775390625,-0.0384979248046875,0.00927734375
1783003372326117400,0.907117431640625,-1.0075836181640625,-0.0389556884765625,0.0099945068359375
1783003372336168200,0.917168212890625,-1.0081787109375,-0.038482666015625,0.010650634765625
1783003372346220300,0.92722021484375,-1.007476806640625,-0.0375518798828125,0.010101318359375
1783003372356271400,0.937271240234375,-1.007965087890625,-0.0363922119140625,0.010498046875
1783003372366323200,0.9473232421875,-1.0072479248046875,-0.036224365234375,0.0114288330078125
1783003372376374300,0.957374267578125,-1.0067291259765625,-0.0359649658203125,0.009979248046875
1783003372386426000,0.967426025390625,-1.008697509765625,-0.0370025634765625,0.0089874267578125
1783003372396477200,0.977477294921875,-1.00787353515625,-0.0377960205078125,0.00921630859375
1783003372406529300,0.987529296875,-1.0068817138671875,-0.0375213623046875,0.0085601806640625
1783003372416580000,0.997580078125,-1.0077972412109375,-0.0381622314453125,0.0092315673828125
1783003372426632400,1.007632568359375,-1.007232666015625,-0.0372772216796875,0.01007080078125
1783003372436683500,1.01768359375,-1.008514404296875,-0.0366973876953125,0.010101318359375
1783003372446735400,1.0277353515625,-1.008270263671875,-0.036102294921875,0.0106964111328125
1783003372456786400,1.037786376953125,-1.007598876953125,-0.036529541015625,0.0109100341796875
1783003372466838300,1.04783837890625,-1.00665283203125,-0.03704833984375,0.01080322265625
1783003372476889300,1.057889404296875,-1.007232666015625,-0.0374908447265625,0.009674072265625
1783003372486941400,1.06794140625,-1.0084228515625,-0.0374298095703125,0.0089874267578125
1783003372496992300,1.0779921875,-1.00823974609375,-0.037261962890625,0.008148193359375
1783003372507044400,1.08804443359375,-1.0064849853515625,-0.0369415283203125,0.007904052734375
1783003372517095400,1.098095458984375,-1.0066070556640625,-0.0377960205078125,0.009368896484375
1783003372527147300,1.108147216796875,-1.00811767578125,-0.037384033203125,0.009490966796875
1783003372537198300,1.1181982421875,-1.0084228515625,-0.0369720458984375,0.0096588134765625
1783003372547250200,1.128250244140625,-1.00799560546875,-0.0360260009765625,0.0108184814453125
1783003372557302300,1.13830224609375,-1.0076446533203125,-0.03668212890625,0.0115966796875
1783003372567353300,1.148353271484375,-1.007659912109375,-0.036346435546875,0.0110321044921875
1783003372577405200,1.1584052734375,-1.0076141357421875,-0.0365753173828125,0.011077880859375
1783003372587456300,1.168456298828125,-1.007720947265625,-0.0371551513671875,0.0093841552734375
1783003372597508000,1.178508056640625,-1.0072174072265625,-0.038299560546875,0.0096893310546875
1783003372607559200,1.18855908203125,-1.0079498291015625,-0.0385284423828125,0.010101318359375
1783003372617611500,1.198611572265625,-1.0078887939453125,-0.0390472412109375,0.01031494140625
1783003372627662000,1.208662109375,-1.007781982421875,-0.0384063720703125,0.0111236572265625
1783003372637714400,1.21871435546875,-1.0091705322265625,-0.037750244140625,0.0106658935546875
1783003372647765500,1.228765625,-1.0078582763671875,-0.03594970703125,0.0106201171875
1783003372657817300,1.2388173828125,-1.006805419921875,-0.036407470703125,0.011505126953125
1783003372667868400,1.248868408203125,-1.007781982421875,-0.0363006591796875,0.0095977783203125
1783003372677920300,1.258920166015625,-1.0075531005859375,-0.0362701416015625,0.009033203125
1783003372687971300,1.268971435546875,-1.0074310302734375,-0.036773681640625,0.00811767578125
1783003372698023400,1.2790234375,-1.0082550048828125,-0.0367584228515625,0.006683349609375
1783003372708074200,1.28907421875,-1.00701904296875,-0.036468505859375,0.007232666015625
1783003372718126300,1.299126220703125,-1.00732421875,-0.036651611328125,0.0077667236328125
1783003372728177400,1.309177490234375,-1.0077362060546875,-0.0358428955078125,0.008636474609375
1783003372738229200,1.319229248046875,-1.0067291259765625,-0.03717041015625,0.0107269287109375
1783003372748280300,1.3292802734375,-1.0075225830078125,-0.038787841796875,0.0117950439453125
1783003372758332200,1.339332275390625,-1.007904052734375,-0.0387420654296875,0.0143585205078125
1783003372768383200,1.34938330078125,-1.0075836181640625,-0.0390777587890625,0.0134124755859375
1783003372778435300,1.359435302734375,-1.0085296630859375,-0.038726806640625,0.0121612548828125
1783003372788486100,1.369486083984375,-1.008636474609375,-0.0385589599609375,0.0100860595703125
1783003372798538200,1.379538330078125,-1.00775146484375,-0.0379638671875,0.0085296630859375
1783003372808589300,1.38958935546875,-1.0067901611328125,-0.0379638671875,0.008209228515625
1783003372818641200,1.39964111328125,-1.0065765380859375,-0.0366058349609375,0.0076446533203125
1783003372828692200,1.409692138671875,-1.0077667236328125,-0.036529541015625,0.00799560546875
1783003372838744300,1.419744384765625,-1.0080718994140625,-0.03631591796875,0.0095672607421875
1783003372848795400,1.42979541015625,-1.007843017578125,-0.035736083984375,0.00994873046875
1783003372858847500,1.439847412109375,-1.0074920654296875,-0.036376953125,0.0100555419921875
1783003372868897300,1.449897216796875,-1.0073699951171875,-0.03741455078125,0.011199951171875
1783003372878949400,1.459949462890625,-1.00714111328125,-0.037689208984375,0.0113372802734375
1783003372889000400,1.47000048828125,-1.0075836181640625,-0.038055419921875,0.011077880859375
1783003372899052300,1.48005224609375,-1.0067596435546875,-0.0383758544921875,0.0097198486328125
1783003372909103400,1.490103271484375,-1.0079345703125,-0.0388946533203125,0.0102386474609375
1783003372919155500,1.500155517578125,-1.0065765380859375,-0.0377655029296875,0.0087432861328125
1783003372929206300,1.510206298828125,-1.0074462890625,-0.0368804931640625,0.00921630859375
1783003372939258400,1.52025830078125,-1.00732421875,-0.0368499755859375,0.00933837890625
1783003372949310200,1.530310302734375,-1.0073394775390625,-0.0367584228515625,0.0093536376953125
1783003372959361300,1.540361328125,-1.0077056884765625,-0.0368804931640625,0.009765625
1783003372969413400,1.550413330078125,-1.0079345703125,-0.0361175537109375,0.00994873046875
1783003372979464200,1.560464111328125,-1.0073394775390625,-0.0365142822265625,0.0102386474609375
1783003372989516300,1.570516357421875,-1.0081024169921875,-0.0368194580078125,0.010284423828125
1783003372999567400,1.5805673828125,-1.0077667236328125,-0.0371856689453125,0.009429931640625
1783003373009619200,1.590619140625,-1.0073089599609375,-0.037628173828125,0.009552001953125
1783003373019670300,1.600670166015625,-1.006805419921875,-0.0375518798828125,0.0096893310546875
1783003373029722000,1.61072216796875,-1.007965087890625,-0.03802490234375,0.0098419189453125
1783003373039773200,1.620773193359375,-1.0076751708984375,-0.0376739501953125,0.010498046875
1783003373049825300,1.6308251953125,-1.0079193115234375,-0.0376434326171875,0.0106048583984375
1783003373059876000,1.6408759765625,-1.0075225830078125,-0.0374603271484375,0.0114898681640625
1783003373069928400,1.650928466796875,-1.007354736328125,-0.037750244140625,0.0100250244140625
1783003373079979300,1.660979248046875,-1.0078277587890625,-0.0378570556640625,0.0095672607421875
1783003373090031400,1.67103125,-1.0070343017578125,-0.037322998046875,0.009246826171875
1783003373100082400,1.68108251953125,-1.0081024169921875,-0.0366363525390625,0.0102996826171875
1783003373110134300,1.69113427734375,-1.007415771484375,-0.037384033203125,0.0093536376953125
1783003373120185300,1.701185302734375,-1.0074920654296875,-0.0366058349609375,0.00970458984375
1783003373130237400,1.711237548828125,-1.0067138671875,-0.0372467041015625,0.0103302001953125
1783003373140288300,1.721288330078125,-1.0084381103515625,-0.0367431640625,0.0102386474609375
1783003373150340400,1.73134033203125,-1.0074310302734375,-0.0371246337890625,0.0105743408203125
1783003373160391400,1.741391357421875,-1.0079803466796875,-0.0364990234375,0.0103302001953125
1783003373170443300,1.751443359375,-1.00848388671875,-0.03582763671875,0.0106048583984375
1783003373180494300,1.761494384765625,-1.007598876953125,-0.0371856689453125,0.0097503662109375
1783003373190546200,1.771546142578125,-1.008544921875,-0.038116455078125,0.008209228515625
1783003373200597200,1.78159716796875,-1.0073699951171875,-0.0387725830078125,0.008056640625
1783003373210649300,1.7916494140625,-1.0078887939453125,-0.037872314453125,0.0088958740234375
1783003373220700200,1.8017001953125,-1.007659912109375,-0.0381622314453125,0.01043701171875
1783003373230752300,1.811752197265625,-1.0076141357421875,-0.0365142822265625,0.01177978515625
1783003373240803300,1.82180322265625,-1.0073089599609375,-0.036346435546875,0.0113983154296875
1783003373250855200,1.831855224609375,-1.00787353515625,-0.03607177734375,0.0111236572265625
1783003373260906200,1.84190625,-1.0081787109375,-0.037109375,0.0111236572265625
1783003373270958000,1.8519580078125,-1.0078887939453125,-0.0382080078125,0.00982666015625
1783003373281009200,1.862009033203125,-1.0065765380859375,-0.03802490234375,0.008819580078125
1783003373291061500,1.8720615234375,-1.0076751708984375,-0.039031982421875,0.008392333984375
1783003373301112300,1.8821123046875,-1.0075531005859375,-0.0381927490234375,0.0083160400390625
1783003373311164400,1.892164306640625,-1.0074310302734375,-0.0371856689453125,0.0095672607421875
1783003373321215500,1.902215576171875,-1.0079193115234375,-0.0364227294921875,0.0114288330078125
1783003373331267300,1.912267333984375,-1.0070648193359375,-0.036102294921875,0.010711669921875
1783003373341318400,1.922318359375,-1.0075225830078125,-0.036651611328125,0.0100250244140625
1783003373351370200,1.932370361328125,-1.0077362060546875,-0.0377044677734375,0.0110931396484375
1783003373361421300,1.94242138671875,-1.008056640625,-0.0382232666015625,0.0105743408203125
1783003373371473400,1.952473388671875,-1.00811767578125,-0.038543701171875,0.0091552734375
1783003373381524200,1.962524169921875,-1.00762939453125,-0.0378875732421875,0.008880615234375
1783003373391576300,1.972576416015625,-1.007781982421875,-0.0371551513671875,0.008514404296875
1783003373401627400,1.98262744140625,-1.0071563720703125,-0.0367889404296875,0.009796142578125
1783003373411679200,1.99267919921875,-1.0088348388671875,-0.0362396240234375,0.00946044921875
1783003373421731300,2.0027314453125,-1.0068817138671875,-0.0364532470703125,0.00970458984375
1783003373431782100,2.0127822265625,-1.0078582763671875,-0.037811279296875,0.0099945068359375
1783003373441834200,2.022834228515625,-1.0076446533203125,-0.0384063720703125,0.0106658935546875
1783003373451885300,2.03288525390625,-1.0079498291015625,-0.038360595703125,0.0113525390625
1783003373461937200,2.042937255859375,-1.00762939453125,-0.037322998046875,0.0106353759765625
1783003373471988200,2.05298828125,-1.0080413818359375,-0.0373992919921875,0.011383056640625
1783003373482040300,2.063040283203125,-1.006927490234375,-0.0379180908203125,0.009185791015625
1783003373492091400,2.07309130859375,-1.007415771484375,-0.037445068359375,0.0082550048828125
1783003373502143500,2.0831435546875,-1.0072784423828125,-0.0382537841796875,0.0084228515625
1783003373512194300,2.0931943359375,-1.007232666015625,-0.037353515625,0.00830078125
1783003373522246400,2.103246337890625,-1.0069122314453125,-0.037017822265625,0.0091552734375
1783003373532297500,2.11329736328125,-1.0085296630859375,-0.038116455078125,0.01007080078125
1783003373542349300,2.123349365234375,-1.0079498291015625,-0.03741455078125,0.010955810546875
1783003373552400400,2.133400390625,-1.006500244140625,-0.036163330078125,0.0122222900390625
1783003373562452200,2.1434521484375,-1.0079803466796875,-0.0357208251953125,0.0122222900390625
1783003373572503300,2.15350341796875,-1.0078277587890625,-0.03643798828125,0.0117645263671875
1783003373582555400,2.163555419921875,-1.0077667236328125,-0.037139892578125,0.0099639892578125
1783003373592606200,2.173606201171875,-1.00787353515625,-0.0381927490234375,0.00799560546875
1783003373602658300,2.183658203125,-1.0073699951171875,-0.0384063720703125,0.0091705322265625
1783003373612709400,2.19370947265625,-1.007781982421875,-0.03765869140625,0.0091400146484375
1783003373622761200,2.20376123046875,-1.0080108642578125,-0.037353515625,0.0086669921875
1783003373632812300,2.213812255859375,-1.0064544677734375,-0.0360260009765625,0.010894775390625
1783003373642864000,2.223864013671875,-1.00811767578125,-0.0360260009765625,0.0107421875
1783003373652915200,2.233915283203125,-1.0078582763671875,-0.035430908203125,0.010955810546875
1783003373662967300,2.24396728515625,-1.0071868896484375,-0.0362091064453125,0.011322021484375
1783003373673018000,2.25401806640625,-1.0081024169921875,-0.0384521484375,0.011138916015625
1783003373683070200,2.2640703125,-1.0077972412109375,-0.0388641357421875,0.01031494140625
1783003373693121300,2.274121337890625,-1.0074005126953125,-0.03936767578125,0.0097503662109375
1783003373703173400,2.28417333984375,-1.0077362060546875,-0.038787841796875,0.0100555419921875
1783003373713224400,2.294224365234375,-1.008087158203125,-0.038848876953125,0.0108489990234375
1783003373723276300,2.3042763671875,-1.0086822509765625,-0.037994384765625,0.011505126953125
1783003373733327400,2.314327392578125,-1.0075531005859375,-0.0359649658203125,0.01129150390625
1783003373743379500,2.32437939453125,-1.007720947265625,-0.0360107421875,0.0109405517578125
1783003373753430300,2.33443017578125,-1.007965087890625,-0.03466796875,0.0096282958984375
1783003373763482400,2.344482421875,-1.008544921875,-0.036956787109375,0.0089874267578125
1783003373773533400,2.354533447265625,-1.00830078125,-0.037506103515625,0.0078582763671875
1783003373783585300,2.364585205078125,-1.0079803466796875,-0.03729248046875,0.0077667236328125
1783003373793636400,2.37463623046875,-1.0071563720703125,-0.0379180908203125,0.0070648193359375
1783003373803688200,2.384688232421875,-1.007110595703125,-0.0369415283203125,0.0078582763671875
1783003373813739300,2.3947392578125,-1.006866455078125,-0.0353851318359375,0.0086669921875
1783003373823791400,2.404791259765625,-1.0066986083984375,-0.0361480712890625,0.0101470947265625
1783003373833842200,2.41484228515625,-1.00799560546875,-0.0365447998046875,0.011749267578125
1783003373843894300,2.424894287109375,-1.0088653564453125,-0.036590576171875,0.0121917724609375
1783003373853945300,2.4349453125,-1.006927490234375,-0.0394134521484375,0.011566162109375
1783003373863997200,2.4449970703125,-1.006072998046875,-0.0404205322265625,0.011566162109375
1783003373874049000,2.455049072265625,-1.007598876953125,-0.039581298828125,0.01129150390625
1783003373884100900,2.465100830078125,-1.0076904296875,-0.039337158203125,0.0103912353515625
1783003373894152000,2.47515185546875,-1.007781982421875,-0.036224365234375,0.009735107421875
1783003373904203800,2.485203857421875,-1.00665283203125,-0.0361328125,0.0082550048828125
1783003373914254800,2.4952548828125,-1.0078887939453125,-0.0359039306640625,0.0085906982421875
1783003373924307000,2.505306884765625,-1.0073699951171875,-0.03680419921875,0.0089111328125
1783003373934357800,2.515357666015625,-1.0074920654296875,-0.0373077392578125,0.0095977783203125
1783003373944409900,2.525409912109375,-1.0075836181640625,-0.0371246337890625,0.0103759765625
1783003373954461000,2.5354609375,-1.0069580078125,-0.0365447998046875,0.011627197265625
1783003373964512800,2.5455126953125,-1.0072784423828125,-0.0370635986328125,0.011138916015625
1783003373974563800,2.555563720703125,-1.0066375732421875,-0.037017822265625,0.0098419189453125
1783003373984615700,2.56561572265625,-1.0078277587890625,-0.0387115478515625,0.009124755859375
1783003373994666800,2.575666748046875,-1.0077667236328125,-0.038909912109375,0.0099639892578125
1783003374004718800,2.58571875,-1.0084075927734375,-0.0389404296875,0.0097198486328125
1783003374014770000,2.59577001953125,-1.00799560546875,-0.0379486083984375,0.0098876953125
1783003374024821800,2.60582177734375,-1.0069580078125,-0.03643798828125,0.010009765625
1783003374034872800,2.615872802734375,-1.0066070556640625,-0.036346435546875,0.0102386474609375
1783003374044924700,2.625924560546875,-1.0077056884765625,-0.035552978515625,0.0096588134765625
1783003374054975700,2.635975830078125,-1.0071258544921875,-0.036865234375,0.00994873046875
1783003374065027800,2.64602783203125,-1.006988525390625,-0.0373077392578125,0.0106048583984375
1783003374075080000,2.656079833984375,-1.007720947265625,-0.0374755859375,0.0085601806640625
1783003374085131000,2.666131103515625,-1.008148193359375,-0.037628173828125,0.0089263916015625
1783003374095182800,2.676182861328125,-1.00732421875,-0.0373992919921875,0.009735107421875
1783003374105234000,2.68623388671875,-1.0081787109375,-0.0370941162109375,0.0093536376953125
1783003374115285800,2.69628564453125,-1.007659912109375,-0.03741455078125,0.01043701171875
1783003374125336800,2.7063369140625,-1.0076904296875,-0.0374755859375,0.009735107421875
1783003374135389000,2.716388916015625,-1.007171630859375,-0.0377349853515625,0.00970458984375
1783003374145439700,2.726439697265625,-1.0084228515625,-0.0379486083984375,0.0094146728515625
1783003374155491800,2.736491943359375,-1.0072479248046875,-0.03826904296875,0.0106964111328125
1783003374165543000,2.74654296875,-1.0068817138671875,-0.0376434326171875,0.0099029541015625
1783003374175594800,2.7565947265625,-1.008026123046875,-0.036590576171875,0.009796142578125
1783003374185645800,2.766645751953125,-1.00799560546875,-0.03619384765625,0.0104827880859375
1783003374195697700,2.77669775390625,-1.0078582763671875,-0.0364990234375,0.0097198486328125
1783003374205748700,2.786748779296875,-1.0078582763671875,-0.0367279052734375,0.0095977783203125
1783003374215800800,2.79680078125,-1.0070648193359375,-0.0361175537109375,0.0087738037109375
1783003374225851600,2.8068515625,-1.0074615478515625,-0.037506103515625,0.008636474609375
1783003374235903700,2.81690380859375,-1.0067901611328125,-0.037689208984375,0.0088958740234375
1783003374245954800,2.826954833984375,-1.0066680908203125,-0.0377655029296875,0.0094451904296875
1783003374256007000,2.8370068359375,-1.007171630859375,-0.0390167236328125,0.009063720703125
1783003374266057700,2.8470576171875,-1.007080078125,-0.037750244140625,0.0102996826171875
1783003374276109800,2.85710986328125,-1.006866455078125,-0.036895751953125,0.0117034912109375
1783003374286161000,2.867160888671875,-1.007354736328125,-0.0369873046875,0.0118255615234375
1783003374296213000,2.877212890625,-1.008087158203125,-0.0369720458984375,0.01141357421875
1783003374306263800,2.887263916015625,-1.007476806640625,-0.036865234375,0.00970458984375
1783003374316316000,2.89731591796875,-1.0074005126953125,-0.036895751953125,0.008331298828125
1783003374326367000,2.907366943359375,-1.0067596435546875,-0.0374298095703125,0.008056640625
1783003374336418800,2.917418701171875,-1.0065765380859375,-0.0376129150390625,0.0081939697265625
1783003374346470000,2.927469970703125,-1.0073699951171875,-0.037750244140625,0.009368896484375
1783003374356521700,2.937521728515625,-1.0068206787109375,-0.0370330810546875,0.0104217529296875
1783003374366572800,2.94757275390625,-1.007415771484375,-0.037384033203125,0.01007080078125
1783003374376625000,2.957625,-1.007568359375,-0.03765869140625,0.0109710693359375
1783003374386675700,2.96767578125,-1.007476806640625,-0.0366973876953125,0.011322021484375
1783003374396727800,2.977727783203125,-1.007568359375,-0.0374755859375,0.010955810546875
1783003374406779000,2.98777880859375,-1.0081634521484375,-0.03741455078125,0.01031494140625
1783003374416830700,2.997830810546875,-1.006378173828125,-0.0363616943359375,0.0092926025390625
1783003374426881800,3.0078818359375,-1.0067291259765625,-0.0368804931640625,0.0074005126953125
1783003374436933600,3.01793359375,-1.007476806640625,-0.037811279296875,0.0072174072265625
1783003374446984700,3.027984619140625,-1.0076751708984375,-0.0377044677734375,0.0088653564453125
1783003374457036800,3.038036865234375,-1.007293701171875,-0.037811279296875,0.0101165771484375
1783003374467088000,3.048087890625,-1.0077972412109375,-0.03729248046875,0.0106658935546875
1783003374477140000,3.058139892578125,-1.0074615478515625,-0.0368804931640625,0.011627197265625
1783003374487190800,3.068190673828125,-1.0072784423828125,-0.036590576171875,0.011505126953125
1783003374497243000,3.078242919921875,-1.0066070556640625,-0.03692626953125,0.0116424560546875
1783003374507294000,3.0882939453125,-1.0080718994140625,-0.0387420654296875,0.0106353759765625
1783003374517345800,3.098345703125,-1.00762939453125,-0.0389404296875,0.0091705322265625
1783003374527396900,3.10839697265625,-1.00738525390625,-0.0386505126953125,0.008087158203125
1783003374537449000,3.118448974609375,-1.0078277587890625,-0.0373992919921875,0.008026123046875
1783003374547499800,3.128499755859375,-1.007598876953125,-0.036163330078125,0.0082550048828125
1783003374557551900,3.1385517578125,-1.0071868896484375,-0.0358123779296875,0.009063720703125
1783003374567603000,3.14860302734375,-1.0075225830078125,-0.0362548828125,0.0107421875
1783003374577654800,3.15865478515625,-1.0078582763671875,-0.036102294921875,0.0103607177734375
1783003374587705900,3.168705810546875,-1.0077056884765625,-0.037445068359375,0.011016845703125
1783003374597757700,3.1787578125,-1.006805419921875,-0.0376739501953125,0.010162353515625
1783003374607808800,3.188808837890625,-1.007965087890625,-0.0377197265625,0.0102081298828125
1783003374617860900,3.19886083984375,-1.00732421875,-0.0384521484375,0.009765625
1783003374627911700,3.20891162109375,-1.0075836181640625,-0.037933349609375,0.0093231201171875
1783003374637963800,3.2189638671875,-1.007904052734375,-0.0381622314453125,0.009521484375
1783003374648014800,3.229014892578125,-1.0075225830078125,-0.037689208984375,0.0103302001953125
1783003374658066700,3.239066650390625,-1.006988525390625,-0.03643798828125,0.010223388671875
1783003374668117800,3.24911767578125,-1.0075225830078125,-0.036102294921875,0.009613037109375
1783003374678169600,3.259169677734375,-1.0073699951171875,-0.0367431640625,0.0095672607421875
1783003374688220700,3.269220703125,-1.0083770751953125,-0.0366363525390625,0.01007080078125
1783003374698273000,3.27927294921875,-1.007537841796875,-0.037261962890625,0.0102081298828125
1783003374708323800,3.28932373046875,-1.0079803466796875,-0.037841796875,0.010040283203125
1783003374718376000,3.2993759765625,-1.007843017578125,-0.0377960205078125,0.0097503662109375
1783003374728427000,3.309427001953125,-1.008209228515625,-0.0362396240234375,0.0098419189453125
1783003374738478800,3.319478759765625,-1.0072479248046875,-0.03607177734375,0.0081939697265625
1783003374748530000,3.329530029296875,-1.0066986083984375,-0.0364227294921875,0.0089111328125
1783003374758581800,3.339581787109375,-1.006866455078125,-0.03753662109375,0.0084686279296875
1783003374768632800,3.3496328125,-1.0072479248046875,-0.0384063720703125,0.0085296630859375
1783003374778685000,3.359684814453125,-1.0074005126953125,-0.038299560546875,0.01019287109375
1783003374788735700,3.36973583984375,-1.00714111328125,-0.038421630859375,0.0103302001953125
1783003374798787800,3.379787841796875,-1.0077362060546875,-0.038848876953125,0.0110626220703125
1783003374808839000,3.3898388671875,-1.006927490234375,-0.03851318359375,0.0116119384765625
1783003374818890800,3.399890869140625,-1.0071563720703125,-0.0372772216796875,0.012451171875
1783003374828941800,3.40994189453125,-1.008758544921875,-0.037994384765625,0.0125274658203125
1783003374838993700,3.41999365234375,-1.0074615478515625,-0.036865234375,0.010894775390625
1783003374849044700,3.430044677734375,-1.00775146484375,-0.0355072021484375,0.00860595703125
1783003374859096800,3.440096923828125,-1.0074615478515625,-0.035614013671875,0.0075531005859375
1783003374869148000,3.45014794921875,-1.0072784423828125,-0.0355682373046875,0.0063629150390625
1783003374879200000,3.460199951171875,-1.0077056884765625,-0.036712646484375,0.0062103271484375
1783003374889251000,3.4702509765625,-1.0076904296875,-0.0366973876953125,0.0064849853515625
1783003374899303000,3.480302978515625,-1.007354736328125,-0.037628173828125,0.00830078125
1783003374909354000,3.49035400390625,-1.0079345703125,-0.0373077392578125,0.009490966796875
1783003374919405800,3.50040576171875,-1.0074920654296875,-0.03729248046875,0.0124664306640625
1783003374929457000,3.510456787109375,-1.00787353515625,-0.0365753173828125,0.0126495361328125
1783003374939509200,3.52050927734375,-1.007354736328125,-0.0370025634765625,0.01348876953125
1783003374949560000,3.53056005859375,-1.007904052734375,-0.037322998046875,0.0110931396484375
1783003374959612200,3.540612060546875,-1.0072174072265625,-0.03759765625,0.010345458984375
1783003374969663200,3.550663330078125,-1.0072174072265625,-0.0393218994140625,0.0099334716796875
1783003374979715000,3.560715087890625,-1.0066986083984375,-0.039886474609375,0.0089263916015625
1783003374989766100,3.57076611328125,-1.008819580078125,-0.039276123046875,0.0090179443359375
1783003374999818000,3.58081787109375,-1.007904052734375,-0.0400848388671875,0.0094757080078125
1783003375009869000,3.590869140625,-1.00775146484375,-0.037109375,0.0098114013671875
1783003375019921200,3.600921142578125,-1.0078887939453125,-0.0335845947265625,0.0092926025390625
1783003375029972000,3.610971923828125,-1.0067901611328125,-0.0313262939453125,0.01068115234375
1783003375040024000,3.621024169921875,-1.007781982421875,-0.032684326171875,0.010955810546875
1783003375050075100,3.6310751953125,-1.0079345703125,-0.0351104736328125,0.0105133056640625
1783003375060127000,3.641126953125,-1.0077667236328125,-0.039459228515625,0.0088653564453125
1783003375070178000,3.651177978515625,-1.0076446533203125,-0.0426483154296875,0.00799560546875
1783003375080230000,3.66122998046875,-1.008056640625,-0.0426177978515625,0.00872802734375
1783003375090281000,3.671281005859375,-1.0082244873046875,-0.0411376953125,0.0088043212890625
1783003375100333000,3.6813330078125,-1.0078887939453125,-0.0382843017578125,0.0101318359375
1783003375110383900,3.6913837890625,-1.00701904296875,-0.035980224609375,0.014404296875
1783003375120436000,3.70143603515625,-1.0079803466796875,-0.034637451171875,0.015533447265625
1783003375130487000,3.711487060546875,-1.0078887939453125,-0.0352630615234375,0.01434326171875
1783003375140539100,3.7215390625,-1.007415771484375,-0.036346435546875,0.01220703125
1783003375150590000,3.73158984375,-1.007659912109375,-0.03729248046875,0.0090484619140625
1783003375160642000,3.74164208984375,-1.007720947265625,-0.0375823974609375,0.0064697265625
1783003375170693000,3.751693115234375,-1.007568359375,-0.0369415283203125,0.00396728515625
1783003375180745200,3.7617451171875,-1.00799560546875,-0.03631591796875,0.003509521484375
1783003375190796000,3.771796142578125,-1.0076904296875,-0.0368499755859375,0.0067901611328125
1783003375200848100,3.78184814453125,-1.0073394775390625,-0.0387115478515625,0.01025390625
1783003375210899200,3.791899169921875,-1.00665283203125,-0.0379486083984375,0.0129852294921875
1783003375220951000,3.801950927734375,-1.00732421875,-0.037841796875,0.015106201171875
1783003375231002000,3.812002197265625,-1.0080718994140625,-0.0381622314453125,0.0158233642578125
1783003375241054000,3.822053955078125,-1.0081329345703125,-0.0376434326171875,0.0145111083984375
1783003375251105000,3.83210498046875,-1.006927490234375,-0.037261962890625,0.01123046875
1783003375261157000,3.8421572265625,-1.007110595703125,-0.03802490234375,0.0074920654296875
1783003375271208000,3.8522080078125,-1.0077972412109375,-0.038726806640625,0.0054473876953125
1783003375281260000,3.862260009765625,-1.0075531005859375,-0.03704833984375,0.00531005859375
1783003375291311000,3.87231103515625,-1.0091400146484375,-0.0362701416015625,0.0059051513671875
1783003375301362000,3.88236181640625,-1.007568359375,-0.0356903076171875,0.00787353515625
1783003375311414000,3.8924140625,-1.0062255859375,-0.03363037109375,0.010650634765625
1783003375321465900,3.9024658203125,-1.0075531005859375,-0.0346832275390625,0.0133819580078125
1783003375331517000,3.912516845703125,-1.00750732421875,-0.036407470703125,0.01434326171875
1783003375341568000,3.922568115234375,-1.0081939697265625,-0.0384674072265625,0.013519287109375
1783003375351619800,3.932619873046875,-1.0084381103515625,-0.0403900146484375,0.0123138427734375
1783003375361671000,3.9426708984375,-1.0082244873046875,-0.0411529541015625,0.01019287109375
1783003375371723000,3.952722900390625,-1.0088653564453125,-0.039794921875,0.0084228515625
1783003375381773800,3.96277392578125,-1.00762939453125,-0.037322998046875,0.0080413818359375
1783003375391826200,3.972826171875,-1.0064849853515625,-0.03533935546875,0.006805419921875
1783003375401877200,3.982877197265625,-1.0070037841796875,-0.033905029296875,0.00726318359375
1783003375411929000,3.99292919921875,-1.007965087890625,-0.0328369140625,0.008819580078125
1783003375421980200,4.002980224609375,-1.008148193359375,-0.035430908203125,0.011016845703125
1783003375432032000,4.013031982421875,-1.007568359375,-0.0377960205078125,0.011932373046875
1783003375442083000,4.0230830078125,-1.0078125,-0.03973388671875,0.01190185546875
1783003375452135200,4.03313525390625,-1.0084228515625,-0.0408477783203125,0.01214599609375
1783003375462186000,4.04318603515625,-1.007781982421875,-0.03997802734375,0.0116729736328125
1783003375472238000,4.053238037109375,-1.0075836181640625,-0.03826904296875,0.0104217529296875
1783003375482289200,4.0632890625,-1.0068511962890625,-0.0369415283203125,0.0097198486328125
1783003375492341000,4.073341064453125,-1.0072174072265625,-0.03680419921875,0.008697509765625
1783003375502392000,4.08339208984375,-1.00830078125,-0.0367584228515625,0.009521484375
1783003375512444000,4.09344384765625,-1.00750732421875,-0.0364837646484375,0.0085906982421875
1783003375522495000,4.103494873046875,-1.0076141357421875,-0.0367279052734375,0.0079498291015625
1783003375532547000,4.113547119140625,-1.00799560546875,-0.0372467041015625,0.009368896484375
1783003375542598000,4.123597900390625,-1.008026123046875,-0.0374603271484375,0.0104827880859375
1783003375552650000,4.13364990234375,-1.008026123046875,-0.0367279052734375,0.0117340087890625
1783003375562701000,4.143701171875,-1.00738525390625,-0.035797119140625,0.0110321044921875
1783003375572753000,4.1537529296875,-1.007232666015625,-0.0371856689453125,0.0110321044921875
1783003375582804000,4.163803955078125,-1.0066986083984375,-0.038299560546875,0.0099639892578125
1783003375592856000,4.17385595703125,-1.0072021484375,-0.038543701171875,0.009002685546875
1783003375602907000,4.183906982421875,-1.00799560546875,-0.0386199951171875,0.00872802734375
1783003375612959200,4.193959228515625,-1.0074310302734375,-0.03759765625,0.0091094970703125
1783003375623010000,4.204010009765625,-1.008209228515625,-0.037872314453125,0.0087432861328125
1783003375633062100,4.214062255859375,-1.008575439453125,-0.036651611328125,0.0095977783203125
1783003375643113200,4.22411328125,-1.0073394775390625,-0.0350189208984375,0.0100555419921875
1783003375653165000,4.2341650390625,-1.0072174072265625,-0.0352020263671875,0.0098114013671875
1783003375663216000,4.244216064453125,-1.0075225830078125,-0.0361328125,0.0104522705078125
1783003375673268000,4.25426806640625,-1.00787353515625,-0.03668212890625,0.010223388671875
1783003375683319000,4.264319091796875,-1.0076904296875,-0.0381011962890625,0.009765625
1783003375693371100,4.27437109375,-1.007415771484375,-0.038238525390625,0.0101470947265625
1783003375703422000,4.284421875,-1.0071563720703125,-0.038177490234375,0.0099639892578125
1783003375713474000,4.29447412109375,-1.0075836181640625,-0.03790283203125,0.0085906982421875
1783003375723525000,4.304525146484375,-1.0081939697265625,-0.037261962890625,0.009552001953125
1783003375733577000,4.314576904296875,-1.0080413818359375,-0.0360260009765625,0.009674072265625
1783003375743628000,4.3246279296875,-1.0068817138671875,-0.0362396240234375,0.0095672607421875
1783003375753680000,4.334679931640625,-1.007049560546875,-0.036346435546875,0.0100860595703125
1783003375763731000,4.34473095703125,-1.008544921875,-0.0371551513671875,0.010894775390625
1783003375773783000,4.354782958984375,-1.00787353515625,-0.0377349853515625,0.0101776123046875
1783003375783833900,4.364833740234375,-1.0072021484375,-0.038665771484375,0.01080322265625
1783003375793886000,4.374885986328125,-1.0066375732421875,-0.03857421875,0.01104736328125
1783003375803937000,4.38493701171875,-1.00799560546875,-0.0382232666015625,0.0103302001953125
1783003375813989000,4.394989013671875,-1.0081634521484375,-0.03729248046875,0.011627197265625
1783003375824040000,4.4050400390625,-1.0084381103515625,-0.0371246337890625,0.0101776123046875
1783003375834092000,4.415092041015625,-1.00823974609375,-0.0380096435546875,0.009918212890625
1783003375844143000,4.42514306640625,-1.00732421875,-0.037841796875,0.0095672607421875
1783003375854194200,4.435194091796875,-1.0076904296875,-0.0365753173828125,0.0093841552734375
1783003375864246000,4.44524609375,-1.0072479248046875,-0.035980224609375,0.0086212158203125
1783003375874296800,4.455296875,-1.00677490234375,-0.0357208251953125,0.0084228515625
1783003375884349000,4.465348876953125,-1.0071258544921875,-0.0356292724609375,0.0080718994140625
1783003375894400000,4.47539990234375,-1.007843017578125,-0.0362091064453125,0.008636474609375
1783003375904452000,4.4854521484375,-1.0077972412109375,-0.036376953125,0.010009765625
1783003375914503000,4.4955029296875,-1.0074615478515625,-0.03759765625,0.01025390625
1783003375924555000,4.505554931640625,-1.008148193359375,-0.0370330810546875,0.01214599609375
1783003375934606000,4.515606201171875,-1.007080078125,-0.037994384765625,0.012054443359375
1783003375944658000,4.525657958984375,-1.0073394775390625,-0.03741455078125,0.011688232421875
1783003375954709000,4.535708984375,-1.00701904296875,-0.0384368896484375,0.0110931396484375
1783003375964761000,4.545760986328125,-1.0068206787109375,-0.0392608642578125,0.010009765625
1783003375974812000,4.55581201171875,-1.0079345703125,-0.0394744873046875,0.0093994140625
1783003375984864000,4.565864013671875,-1.0066680908203125,-0.037384033203125,0.009552001953125
1783003375994915000,4.5759150390625,-1.00726318359375,-0.0366973876953125,0.0092010498046875
1783003376004967000,4.585966796875,-1.0083160400390625,-0.0366668701171875,0.0089569091796875
1783003376015018000,4.59601806640625,-1.0073699951171875,-0.0358123779296875,0.0097808837890625
1783003376025070000,4.606070068359375,-1.0078887939453125,-0.03607177734375,0.0099029541015625
1783003376035121000,4.616120849609375,-1.0084991455078125,-0.037078857421875,0.00958251953125
1783003376045173000,4.626173095703125,-1.0076751708984375,-0.0367279052734375,0.0103912353515625
1783003376055224000,4.63622412109375,-1.007171630859375,-0.0367584228515625,0.01025390625
1783003376065276000,4.64627587890625,-1.0071563720703125,-0.0377197265625,0.0110015869140625
1783003376075327000,4.656326904296875,-1.007904052734375,-0.03802490234375,0.0107879638671875
1783003376085378800,4.66637890625,-1.008392333984375,-0.0382843017578125,0.0104522705078125
1783003376095430000,4.676429931640625,-1.007476806640625,-0.0381011962890625,0.009033203125
1783003376105482000,4.68648193359375,-1.0077667236328125,-0.0386810302734375,0.008392333984375
1783003376115532800,4.69653271484375,-1.00750732421875,-0.0375518798828125,0.0089569091796875
1783003376125585200,4.706585205078125,-1.0076141357421875,-0.037384033203125,0.0092926025390625
1783003376135636000,4.716635986328125,-1.007904052734375,-0.036376953125,0.0092315673828125
1783003376145688000,4.72668798828125,-1.0080718994140625,-0.0359649658203125,0.0099029541015625
1783003376155739100,4.7367392578125,-1.0073394775390625,-0.0359954833984375,0.0106353759765625
1783003376165791000,4.746791015625,-1.0075836181640625,-0.035552978515625,0.01031494140625
1783003376175842000,4.756842041015625,-1.0067291259765625,-0.03619384765625,0.0105438232421875
1783003376185894000,4.766893798828125,-1.007354736328125,-0.037628173828125,0.010223388671875
1783003376195945000,4.776945068359375,-1.007965087890625,-0.0390472412109375,0.009552001953125
1783003376205997000,4.7869970703125,-1.0076904296875,-0.038848876953125,0.008636474609375
1783003376216048000,4.797048095703125,-1.007232666015625,-0.0386199951171875,0.009185791015625
1783003376226099000,4.807098876953125,-1.0079803466796875,-0.038543701171875,0.0099639892578125
1783003376236151000,4.817151123046875,-1.0088043212890625,-0.037841796875,0.0111236572265625
1783003376246202000,4.8272021484375,-1.007720947265625,-0.036834716796875,0.0106201171875
1783003376256254000,4.83725390625,-1.0080413818359375,-0.0360107421875,0.010650634765625
1783003376266305000,4.847304931640625,-1.0072784423828125,-0.035614013671875,0.0112152099609375
1783003376276356900,4.85735693359375,-1.00732421875,-0.0363311767578125,0.0095977783203125
1783003376286408000,4.867407958984375,-1.0076141357421875,-0.0369720458984375,0.0088043212890625
1783003376296460000,4.8774599609375,-1.008514404296875,-0.0380096435546875,0.0083465576171875
1783003376306510800,4.8875107421875,-1.0070953369140625,-0.038909912109375,0.0078125
1783003376316563000,4.89756298828125,-1.00750732421875,-0.037750244140625,0.009979248046875
1783003376326614000,4.907614013671875,-1.0069122314453125,-0.0361785888671875,0.0113067626953125
1783003376336665900,4.917665771484375,-1.006591796875,-0.0355682373046875,0.0107574462890625
1783003376346717000,4.927717041015625,-1.0068511962890625,-0.0360107421875,0.011566162109375
1783003376356769000,4.93776904296875,-1.0077667236328125,-0.037628173828125,0.01165771484375
1783003376366819800,4.94781982421875,-1.0077056884765625,-0.0392303466796875,0.0093536376953125
1783003376376872000,4.957871826171875,-1.00750732421875,-0.0389862060546875,0.00921630859375
1783003376386923000,4.967923095703125,-1.0077056884765625,-0.03814697265625,0.0089874267578125
1783003376396975000,4.97797509765625,-1.0079193115234375,-0.0374603271484375,0.008270263671875
1783003376407026200,4.988026123046875,-1.006683349609375,-0.0364990234375,0.0079498291015625
1783003376417078000,4.998078125,-1.0066070556640625,-0.0353240966796875,0.0083160400390625
1783003376427129000,5.008129150390625,-1.0076904296875,-0.0351104736328125,0.009796142578125
1783003376437181000,5.018180908203125,-1.0079193115234375,-0.037261962890625,0.00970458984375
1783003376447232000,5.02823193359375,-1.0081329345703125,-0.03839111328125,0.010711669921875
1783003376457284000,5.0382841796875,-1.0078277587890625,-0.040130615234375,0.01031494140625
1783003376467335000,5.0483349609375,-1.0078582763671875,-0.0395050048828125,0.0111083984375
1783003376477387000,5.058386962890625,-1.007659912109375,-0.03851318359375,0.0108795166015625
1783003376487438000,5.06843798828125,-1.0077362060546875,-0.0378570556640625,0.0110015869140625
1783003376497490000,5.078489990234375,-1.0083160400390625,-0.0352630615234375,0.0103912353515625
1783003376507541000,5.088541015625,-1.00830078125,-0.0340423583984375,0.0092010498046875
1783003376517592800,5.0985927734375,-1.008697509765625,-0.035552978515625,0.008270263671875
1783003376527644000,5.108643798828125,-1.008026123046875,-0.0364532470703125,0.0075836181640625
1783003376537695000,5.118695068359375,-1.0074920654296875,-0.0385894775390625,0.008270263671875
1783003376547746800,5.128746826171875,-1.0081329345703125,-0.0397796630859375,0.008575439453125
1783003376557798000,5.1387978515625,-1.0071563720703125,-0.038970947265625,0.010589599609375
1783003376567850000,5.14885009765625,-1.0069427490234375,-0.0378265380859375,0.0113983154296875
1783003376577900800,5.15890087890625,-1.008331298828125,-0.0363922119140625,0.0138702392578125
1783003376587953000,5.168952880859375,-1.0079498291015625,-0.0360565185546875,0.0127410888671875
1783003376598004000,5.17900390625,-1.0081329345703125,-0.0370941162109375,0.0119171142578125
1783003376608056000,5.18905615234375,-1.007965087890625,-0.0379180908203125,0.0102081298828125
1783003376618107100,5.199107177734375,-1.007904052734375,-0.0379486083984375,0.0084991455078125
1783003376628159000,5.209158935546875,-1.008056640625,-0.03759765625,0.0079193115234375
1783003376638210000,5.2192099609375,-1.006927490234375,-0.0370941162109375,0.0072021484375
1783003376648262100,5.22926220703125,-1.00762939453125,-0.036346435546875,0.008056640625
1783003376658313000,5.23931298828125,-1.0087432861328125,-0.0364990234375,0.0089874267578125
1783003376668365000,5.249364990234375,-1.0070037841796875,-0.035491943359375,0.010223388671875
1783003376678416100,5.259416015625,-1.0067596435546875,-0.036590576171875,0.01190185546875
1783003376688468000,5.269468017578125,-1.0067291259765625,-0.037353515625,0.0128021240234375
1783003376698519000,5.27951904296875,-1.0071868896484375,-0.0377655029296875,0.0132904052734375
1783003376708571000,5.28957080078125,-1.0069732666015625,-0.03741455078125,0.0116424560546875
1783003376718622000,5.2996220703125,-1.007568359375,-0.038299560546875,0.0093841552734375
1783003376728674000,5.309674072265625,-1.0072021484375,-0.0378570556640625,0.0088653564453125
1783003376738724900,5.319724853515625,-1.0071868896484375,-0.037689208984375,0.0077362060546875
1783003376748777000,5.32977685546875,-1.008209228515625,-0.03680419921875,0.007293701171875
1783003376758828000,5.339828125,-1.007354736328125,-0.037139892578125,0.008331298828125
1783003376768878800,5.34987890625,-1.0081024169921875,-0.036102294921875,0.010528564453125
1783003376778931000,5.359930908203125,-1.007568359375,-0.037200927734375,0.011474609375
1783003376788982000,5.36998193359375,-1.007354736328125,-0.0385589599609375,0.012481689453125
1783003376799033900,5.380033935546875,-1.0076141357421875,-0.0381622314453125,0.0127716064453125
1783003376809085000,5.3900849609375,-1.0074310302734375,-0.0386199951171875,0.0116729736328125
1783003376819136800,5.40013671875,-1.00897216796875,-0.03875732421875,0.010772705078125
1783003376829187800,5.410187744140625,-1.0077056884765625,-0.0376739501953125,0.010528564453125
1783003376839240200,5.420240234375,-1.0076751708984375,-0.0367889404296875,0.00927734375
1783003376849290800,5.430290771484375,-1.007659912109375,-0.03582763671875,0.007965087890625
1783003376859343000,5.440343017578125,-1.0079803466796875,-0.0356903076171875,0.0081939697265625
1783003376869394200,5.450394287109375,-1.0071258544921875,-0.0351104736328125,0.00823974609375
1783003376879445200,5.4604453125,-1.007568359375,-0.0354156494140625,0.0088958740234375
1783003376889496300,5.470496337890625,-1.00738525390625,-0.0364837646484375,0.009613037109375
1783003376899548400,5.48054833984375,-1.007293701171875,-0.0381011962890625,0.0084228515625
1783003376909599200,5.49059912109375,-1.006683349609375,-0.038787841796875,0.0103912353515625
1783003376919651300,5.5006513671875,-1.00738525390625,-0.0383148193359375,0.011627197265625
1783003376929702400,5.510702392578125,-1.0081024169921875,-0.0375518798828125,0.0127716064453125
1783003376939754200,5.520754150390625,-1.00775146484375,-0.036376953125,0.0117950439453125
1783003376949805300,5.530805419921875,-1.0076751708984375,-0.0384368896484375,0.011138916015625
1783003376959857200,5.540857177734375,-1.0071258544921875,-0.0379180908203125,0.0110321044921875
1783003376969908200,5.550908203125,-1.0077667236328125,-0.0381011962890625,0.00860595703125
1783003376979960300,5.560960205078125,-1.007659912109375,-0.0381011962890625,0.00848388671875
1783003376990011400,5.571011474609375,-1.006988525390625,-0.0382232666015625,0.00860595703125
1783003377000062200,5.581062255859375,-1.007537841796875,-0.0380859375,0.0076141357421875
1783003377010114300,5.5911142578125,-1.0074462890625,-0.037872314453125,0.009918212890625
1783003377020165400,5.601165283203125,-1.007354736328125,-0.0362701416015625,0.0109100341796875
1783003377030217500,5.611217529296875,-1.007080078125,-0.035491943359375,0.0108795166015625
1783003377040268500,5.6212685546875,-1.0069580078125,-0.0357818603515625,0.010955810546875
1783003377050320400,5.6313203125,-1.00738525390625,-0.03668212890625,0.010711669921875
1783003377060371500,5.641371337890625,-1.008026123046875,-0.0379486083984375,0.010009765625
1783003377070423300,5.65142333984375,-1.00787353515625,-0.0388031005859375,0.0092620849609375
1783003377080474400,5.661474365234375,-1.0077056884765625,-0.0393218994140625,0.0099334716796875
1783003377090526500,5.6715263671875,-1.00823974609375,-0.0386962890625,0.0083160400390625
1783003377100577300,5.681577392578125,-1.0071563720703125,-0.03741455078125,0.0087432861328125
1783003377110629400,5.69162939453125,-1.0075531005859375,-0.0365447998046875,0.0097198486328125
1783003377120680400,5.701680419921875,-1.00787353515625,-0.035614013671875,0.010345458984375
1783003377130732300,5.711732177734375,-1.0073699951171875,-0.035552978515625,0.0095672607421875
1783003377140783400,5.721783447265625,-1.0068359375,-0.036773681640625,0.0095977783203125
1783003377150835200,5.731835205078125,-1.0080718994140625,-0.037445068359375,0.008880615234375
1783003377160886300,5.74188623046875,-1.007293701171875,-0.0384063720703125,0.0088653564453125
1783003377170938400,5.7519384765625,-1.006439208984375,-0.0375518798828125,0.00872802734375
1783003377180989200,5.7619892578125,-1.006988525390625,-0.0369873046875,0.0101165771484375
1783003377191040300,5.772040283203125,-1.0077667236328125,-0.036651611328125,0.0110321044921875
1783003377201092400,5.78209228515625,-1.008453369140625,-0.03546142578125,0.010406494140625
1783003377211143200,5.79214306640625,-1.008331298828125,-0.0367279052734375,0.010467529296875
1783003377221195500,5.802195556640625,-1.0075531005859375,-0.0373992919921875,0.0103607177734375
1783003377231246300,5.812246337890625,-1.00616455078125,-0.0388031005859375,0.0092620849609375
1783003377241298400,5.82229833984375,-1.0075836181640625,-0.04095458984375,0.0094451904296875
1783003377251349500,5.832349609375,-1.0089263916015625,-0.0396575927734375,0.0089874267578125
1783003377261401300,5.8424013671875,-1.0078887939453125,-0.037841796875,0.009918212890625
1783003377271452400,5.852452392578125,-1.007537841796875,-0.03582763671875,0.01080322265625
1783003377281504500,5.86250439453125,-1.0070343017578125,-0.034820556640625,0.0113677978515625
1783003377291555300,5.872555419921875,-1.00665283203125,-0.0354766845703125,0.011566162109375
1783003377301607400,5.882607421875,-1.00775146484375,-0.0357208251953125,0.010406494140625
1783003377311658500,5.892658447265625,-1.007080078125,-0.03619384765625,0.010589599609375
1783003377321710300,5.90271044921875,-1.006805419921875,-0.0374603271484375,0.0078125
1783003377331761400,5.912761474609375,-1.007476806640625,-0.0378265380859375,0.007232666015625
1783003377341813200,5.922813232421875,-1.0076751708984375,-0.037994384765625,0.007476806640625
1783003377351864300,5.9328642578125,-1.008056640625,-0.0376129150390625,0.00787353515625
1783003377361916400,5.94291650390625,-1.009368896484375,-0.0358123779296875,0.009490966796875
1783003377371967200,5.95296728515625,-1.0078887939453125,-0.0352020263671875,0.010101318359375
1783003377382018300,5.963018310546875,-1.0078582763671875,-0.03662109375,0.0118255615234375
1783003377392070400,5.9730703125,-1.0080108642578125,-0.03912353515625,0.0112457275390625
1783003377402121200,5.983121337890625,-1.001251220703125,-0.0406951904296875,0.011627197265625
1783003377412173300,5.99317333984375,-0.936737060546875,-0.0375213623046875,0.00701904296875
1783003377422224400,6.003224365234375,-1.0816192626953125,-0.0479278564453125,0.0255889892578125
1783003377432276200,6.013276123046875,-0.9928131103515625,-0.0411224365234375,0.0074615478515625
1783003377442327300,6.023327392578125,-1.0147705078125,-0.03265380859375,0.007354736328125
1783003377452379100,6.033379150390625,-1.0104217529296875,-0.034271240234375,0.013580322265625
1783003377462430200,6.04343017578125,-1.0072021484375,-0.03228759765625,0.0055084228515625
1783003377472482600,6.053482666015625,-1.0167388916015625,-0.0378265380859375,0.011383056640625
1783003377482533400,6.063533447265625,-1.0185546875,-0.0401611328125,0.013397216796875
1783003377492585500,6.07358544921875,-1.0185699462890625,-0.0372314453125,0.018096923828125
