time,seconds_elapsed,z,y,x
1783003371496866000,0.077865966796875,-0.005905559752136469,0.020328175276517868,0.01375176478177309
1783003371506918000,0.08791796875,-0.005370264407247305,-0.012858008034527302,-0.00009267800487577915
1783003371516970200,0.09797021484375,-0.004038949962705374,-0.02429868094623089,-0.003727626521140337
1783003371527021000,0.10802099609375,-0.0031100395135581493,-0.004806472919881344,0.0035563854034990072
1783003371537073200,0.1180732421875,-0.004761998075991869,0.024775387719273567,0.015137141570448875
1783003371547124200,0.128124267578125,-0.004795287735760212,0.025673672556877136,0.01737898960709572
1783003371557176000,0.138176025390625,-0.003500991500914097,0.00959696713835001,0.011083543300628662
1783003371567227100,0.14822705078125,-0.003775297198444605,-0.011149057187139988,0.001969940261915326
1783003371577279000,0.158279052734375,-0.001241033081896603,-0.013734987005591393,0.0015893745003268123
1783003371587330000,0.168330078125,-0.003733751829713583,0.0021252024453133345,0.0059811933897435665
1783003371597382100,0.178382080078125,-0.004419249482452869,0.016596287488937378,0.016516659408807755
1783003371607433000,0.188432861328125,-0.004135622642934322,0.01441142987459898,0.013494237326085567
1783003371617485000,0.198485107421875,-0.004049070179462433,0.0009270463488064706,0.006826214492321014
1783003371627536100,0.2085361328125,-0.0036069853231310844,-0.0027172232512384653,0.003585147438570857
1783003371637588000,0.218587890625,-0.004166249185800552,-0.0012037487467750907,0.0064373929053545
1783003371647639000,0.22863916015625,-0.0038453382439911366,0.007472563534975052,0.011066232807934284
1783003371657691000,0.23869091796875,-0.0036615801509469748,0.013227920979261398,0.013139770366251469
1783003371667742000,0.248741943359375,-0.0037092508282512426,0.006643255241215229,0.007607319392263889
1783003371677794000,0.2587939453125,-0.006484797224402428,0.0005797701887786388,0.001790975802578032
1783003371687844900,0.268844970703125,-0.004092745948582888,-0.0027294738683849573,0.006028064992278814
1783003371697897000,0.27889697265625,-0.005274390336126089,0.004178766161203384,0.008249940350651741
1783003371707948000,0.288947998046875,-0.003977963700890541,0.008770854212343693,0.011079282499849796
1783003371717999900,0.298999755859375,-0.002936135046184063,0.011626295745372772,0.009498164057731628
1783003371728051000,0.309051025390625,-0.003704190719872713,0.004609399009495974,0.007670969236642122
1783003371738103000,0.31910302734375,-0.00043782367720268667,-0.00023435817274730653,0.008611065335571766
1783003371748154000,0.329154052734375,-0.004092745948582888,0.001791242160834372,0.005720470100641251
1783003371758206200,0.339206298828125,-0.002156894188374281,0.0076030585914850235,0.009788980707526207
1783003371768258000,0.349258056640625,-0.003951332066208124,0.007845406420528889,0.005426723510026932
1783003371778309000,0.35930908203125,-0.005037369206547737,0.0043651871383190155,0.008851282298564911
1783003371788361000,0.36936083984375,-0.003522563260048628,0.00088949577184394,0.006870422977954149
1783003371798412000,0.379412109375,-0.0033332123421132565,0.0009606021922081709,0.006172141991555691
1783003371808464100,0.389464111328125,-0.0020847225096076727,0.0037473340053111315,0.006729275453835726
1783003371818515000,0.399514892578125,-0.00336197461001575,0.006652842741459608,0.0034466630313545465
1783003371828567000,0.409567138671875,-0.004708202555775642,0.006976949516683817,0.005941246170550585
1783003371838618000,0.4196181640625,-0.003922303672879934,0.0026911243330687284,0.008576976135373116
1783003371848670000,0.429669921875,-0.0038991342298686504,0.0029704899061471224,0.008272843435406685
1783003371858721000,0.439720947265625,-0.0016556872287765145,0.005562544334679842,0.00737269502133131
1783003371868773000,0.449773193359375,-0.0067934575490653515,0.005790777504444122,0.009445699863135815
1783003371878824200,0.45982421875,-0.00401578051969409,0.004223507363349199,0.009557286277413368
1783003371888876300,0.469876220703125,-0.004885036498308182,0.00427224300801754,0.008842227049171925
1783003371898927000,0.479927001953125,-0.0041372207924723625,0.0025861957110464573,0.007425958290696144
1783003371908979500,0.4899794921875,-0.004573712591081858,0.002998719457536936,0.010178601369261742
1783003371919030300,0.5000302734375,-0.004465322010219097,0.004817658569663763,0.008982310071587563
1783003371929082400,0.510082275390625,-0.00532499048858881,0.0057676080614328384,0.009529856033623219
1783003371939133400,0.520133544921875,-0.004599279258400202,0.003852795111015439,0.007284544408321381
1783003371949185300,0.530185302734375,-0.004536694847047329,0.0028245486319065094,0.007962319068610668
1783003371959236400,0.540236328125,-0.003820038167759776,0.0056829191744327545,0.007237140089273453
1783003371969288400,0.550288330078125,-0.0037758296821266413,0.002936667762696743,0.008684568107128143
1783003371979339300,0.56033935546875,-0.004912200383841991,0.002126534003764391,0.006439789664000273
1783003371989391400,0.570391357421875,-0.004504204262048006,0.002700711600482464,0.008584699593484402
1783003371999442400,0.5804423828125,-0.005676527973264456,0.004945490043610334,0.005079180933535099
1783003372009494300,0.590494384765625,-0.004533499013632536,0.0052267201244831085,0.010037187486886978
1783003372019545300,0.60054541015625,-0.00390312890522182,0.003920439630746841,0.009682721458375454
1783003372029597200,0.61059716796875,-0.003721767570823431,0.006459763273596764,0.008736765943467617
1783003372039649300,0.620649169921875,-0.004384628497064114,0.005733519326895475,0.008128766901791096
1783003372049700400,0.630700439453125,-0.0054786549881100655,0.0035167040769010782,0.005303152836859226
1783003372059752200,0.640752197265625,-0.005647499579936266,0.0038064562249928713,0.007543936371803284
1783003372069803300,0.65080322265625,-0.005785451270639896,0.004729773849248886,0.008706672117114067
1783003372079855000,0.660855224609375,-0.0046903593465685844,0.004150270018726587,0.0059835901483893394
1783003372089906200,0.67090625,-0.0012548814993351698,0.003962517250329256,0.009036105126142502
1783003372099958300,0.680958251953125,-0.005259742960333824,0.0032344090286642313,0.008657404221594334
1783003372110009000,0.691009033203125,-0.005715409759432077,0.004711398389190435,0.008255266584455967
1783003372120061400,0.7010615234375,-0.00475534051656723,0.0065439194440841675,0.009766343981027603
1783003372130112500,0.711112548828125,-0.004888232331722975,0.0046906257048249245,0.0049369679763913155
1783003372140164400,0.721164306640625,-0.0022564963437616825,0.003784085623919964,0.008622783236205578
1783003372150215400,0.73121533203125,-0.0035918052308261395,0.005635515321046114,0.007515707053244114
1783003372160267300,0.741267333984375,-0.0031105722300708294,0.004837632179260254,0.00714526092633605
1783003372170318300,0.751318359375,-0.0026818031910806894,0.000931041082367301,0.00845393817871809
1783003372180370400,0.761370361328125,-0.004204598721116781,0.003156644757837057,0.009857158176600933
1783003372190421200,0.771421142578125,-0.003824033075943589,0.0026647590566426516,0.008976717479526997
1783003372200473300,0.781473388671875,-0.003294330323114991,0.006658968050032854,0.008580438792705536
1783003372210524400,0.7915244140625,-0.0018064221367239952,0.0038248319178819656,0.00968831405043602
1783003372220576300,0.801576171875,-0.003835484618321061,0.006608101539313793,0.00729466462507844
1783003372230627300,0.81162744140625,-0.002793922321870923,0.0046842340379953384,0.008423578925430775
1783003372240679200,0.82167919921875,-0.006411560345441103,0.002755572786554694,0.008464591577649117
1783003372250730200,0.831730224609375,-0.0037023264449089766,0.005511944647878408,0.0075194351375103
1783003372260782300,0.8417822265625,-0.002897519152611494,0.003976366017013788,0.005142297595739365
1783003372270833200,0.851833251953125,-0.0015869776252657175,0.006863764952868223,0.007999070920050144
1783003372280885200,0.86188525390625,-0.004316451493650675,0.0038330876268446445,0.005253085400909185
1783003372290936300,0.871936279296875,-0.0038368161767721176,0.0032719597220420837,0.008931975811719894
1783003372300988200,0.88198828125,-0.0043992758728563786,0.005909021943807602,0.008875517174601555
1783003372311039200,0.892039306640625,-0.0060115535743534565,0.004400873556733131,0.007442736066877842
1783003372321091300,0.90209130859375,-0.00461685610935092,0.004893824923783541,0.011446266435086727
1783003372331142100,0.91214208984375,-0.0037499971222132444,0.0041278996504843235,0.011019627563655376
1783003372341194500,0.922194580078125,-0.002014415105804801,0.003940413240343332,0.004867726005613804
1783003372351245300,0.932245361328125,-0.004932706709951162,0.0033712955191731453,0.00723394425585866
1783003372361297400,0.94229736328125,-0.004605937283486128,0.004318315535783768,0.009158611297607422
1783003372371349200,0.952349365234375,-0.004114584065973759,0.004870655480772257,0.010726946406066418
1783003372381400300,0.962400390625,-0.005334577988833189,0.0023726101499050856,0.00851545762270689
1783003372391452400,0.972452392578125,-0.005863215308636427,0.0009837717516347766,0.007931958884000778
1783003372401503200,0.982503173828125,-0.0034703651908785105,0.0030282805673778057,0.009159675799310207
1783003372411555300,0.992555419921875,-0.002157160546630621,0.003005377249792218,0.009149822406470776
1783003372421606400,1.0026064453125,-0.0033894050866365433,0.007955394685268402,0.008299475535750389
1783003372431658200,1.012658203125,-0.00714765815064311,0.00577746145427227,0.00914556160569191
1783003372441709300,1.022709228515625,-0.0038748993538320065,0.0037971350830048323,0.007780957501381636
1783003372451761200,1.03276123046875,-0.0037875475827604532,0.0037699707318097353,0.008473645895719528
1783003372461812200,1.042812255859375,-0.004874916281551123,0.0018181400373578072,0.0076869479380548
1783003372471864300,1.0528642578125,-0.005798500496894121,0.004760933108627796,0.007275489624589682
1783003372481915100,1.0629150390625,-0.0032653016969561577,0.0027539748698472977,0.004436027258634567
1783003372491967200,1.07296728515625,-0.004605937283486128,0.006422745529562235,0.008934639394283295
1783003372502018300,1.083018310546875,-0.006228334736078978,0.004923918284475803,0.006657636258751154
1783003372512070400,1.0930703125,-0.0036362800747156143,0.00347542529925704,0.008555671200156212
1783003372522121200,1.103121337890625,-0.0018405106384307146,0.004562793765217066,0.005674929823726416
1783003372532173300,1.11317333984375,-0.004341484978795052,0.004393683280795813,0.009592706337571144
1783003372542224400,1.123224365234375,-0.004329234827309847,0.004336425103247166,0.009052084758877754
1783003372552276500,1.1332763671875,-0.004306597635149956,0.0028666264843195677,0.008058725856244564
1783003372562327300,1.143327392578125,-0.0034519892651587725,0.004249073565006256,0.007224090863019228
1783003372572379400,1.15337939453125,-0.004511128645390272,0.0017536915838718414,0.008354868739843369
1783003372582430500,1.163430419921875,-0.00566853815689683,0.0032732912804931402,0.0070645674131810665
1783003372592482300,1.173482421875,-0.003460245206952095,0.004650411661714315,0.009428123012185097
1783003372602533400,1.183533447265625,-0.004581169690936804,0.006231530569493771,0.007536745630204678
1783003372612585200,1.193585205078125,-0.0030751521699130535,0.0038013961166143417,0.008356466889381409
1783003372622636300,1.20363623046875,-0.006340720225125551,0.005858688149601221,0.007285077124834061
1783003372632688400,1.2136884765625,-0.005362540949136019,0.007456052117049694,0.007396929897367954
1783003372642739200,1.2237392578125,-0.003715642262250185,0.0031196267809718847,0.005624063778668642
1783003372652791300,1.233791259765625,-0.004708202555775642,0.003704190719872713,0.0070395334623754025
1783003372662842400,1.24384228515625,-0.004026433452963829,0.005406217183917761,0.009778860956430435
1783003372672894200,1.253894287109375,-0.006207029335200787,0.003978230059146881,0.007894940674304962
1783003372682945300,1.2639453125,-0.0026349315885454416,0.0024141555186361074,0.006811034400016069
1783003372692997000,1.2739970703125,-0.0031766186002641916,0.0046754456125199795,0.006202768534421921
1783003372703048200,1.284048095703125,-0.005550294183194637,0.006007025949656963,0.009249690920114517
1783003372713100300,1.294100341796875,-0.004606469534337521,0.007759918924421072,0.007382548879832029
1783003372723151000,1.304151123046875,-0.002314553363248706,0.006044842768460512,0.008987369947135448
1783003372733203500,1.314203369140625,-0.004337756894528866,0.006670419592410326,0.007366569712758064
1783003372743254300,1.324254150390625,-0.003285009181126952,0.008434231393039227,0.008468053303658962
1783003372753306400,1.334306396484375,-0.0017534252256155014,0.005108742043375969,0.010180465877056122
1783003372763358500,1.3443583984375,-0.0027499801944941282,0.003553189570084214,0.008585765026509762
1783003372773409300,1.3544091796875,-0.004566788673400879,0.0029734193813055754,0.007515972945839167
1783003372783461400,1.36446142578125,-0.0037015276029706,0.002127599436789751,0.007410245481878519
1783003372793512400,1.374512451171875,-0.004351871553808451,0.0027289411518722773,0.007694937754422426
1783003372803564300,1.384564208984375,-0.0004040015337523073,0.0037774275988340378,0.008442220278084278
1783003372813615400,1.394615478515625,-0.00202240445651114,0.00455746753141284,0.007980961352586746
1783003372823667200,1.404667236328125,-0.005059473216533661,0.004506334662437439,0.006969226058572531
1783003372833718300,1.41471826171875,-0.003947603516280651,0.0049436260014772415,0.006328469607979059
1783003372843770400,1.424770263671875,-0.005116731394082308,0.007266701199114323,0.010084325447678566
1783003372853821200,1.4348212890625,-0.003439472522586584,0.0044054011814296246,0.008886169642210007
1783003372863873300,1.444873291015625,-0.00324852392077446,0.004832572303712368,0.006009423173964024
1783003372873923300,1.45492333984375,-0.0032714270055294037,0.003802194958552718,0.00791251752525568
1783003372883975200,1.46497509765625,-0.004026433452963829,0.002930276095867157,0.007768973242491484
1783003372894026200,1.475026123046875,-0.002323341788724065,0.005285309627652168,0.0070491209626197815
1783003372904078300,1.485078369140625,-0.005038168281316757,0.0026551715563982725,0.009123989380896091
1783003372914129200,1.495129150390625,-0.005781190004199743,0.002712695859372616,0.01022760383784771
1783003372924181200,1.50518115234375,-0.0019497001776471734,0.003995007835328579,0.005260542035102844
1783003372934232300,1.515232421875,-0.0038951393216848373,0.006422212813049555,0.002727875951677561
1783003372944284200,1.5252841796875,-0.004375307355076075,0.005505552981048822,0.010293650440871716
1783003372954335200,1.535335205078125,-0.005037901923060417,0.0037031255196779966,0.008985239081084728
1783003372964387300,1.54538720703125,-0.003718571737408638,0.0046722497791051865,0.008728777058422565
1783003372974438100,1.555438232421875,-0.0034437335561960936,0.005398227367550135,0.008275773376226425
1783003372984490500,1.565490478515625,-0.005163336638361216,0.00433163158595562,0.008973787538707256
1783003372994541300,1.575541259765625,-0.003231213428080082,0.005197691265493631,0.005930060520768166
1783003373004593400,1.585593505859375,-0.004261590540409088,0.004667189903557301,0.008806540630757809
1783003373014644500,1.59564453125,-0.0034077810123562813,0.004220843780785799,0.006589459255337715
1783003373024696300,1.6056962890625,-0.006845921743661165,0.005351888481527567,0.008460063487291336
1783003373034747400,1.615747314453125,-0.00558012118563056,0.004036286845803261,0.007035272661596537
1783003373044799200,1.62579931640625,-0.007375890854746103,0.003768639173358679,0.00797297153621912
1783003373054850300,1.635850341796875,-0.004966529086232185,0.0034104441292583942,0.005834453273564577
1783003373064902400,1.64590234375,-0.003608849598094821,0.004861067980527878,0.006684534251689911
1783003373074953200,1.655953125,-0.005568936001509428,0.006834470201283693,0.008558068424463272
1783003373085005300,1.66600537109375,-0.0035686357878148556,0.007416370790451765,0.010699782520532608
1783003373095056400,1.676056396484375,-0.004971322603523731,0.005289836786687374,0.009371397085487843
1783003373105108200,1.686108154296875,-0.004640291910618544,0.0030487868934869766,0.006918093655258417
1783003373115159300,1.6961591796875,-0.005030977539718151,0.0035358788445591927,0.010101103223860264
1783003373125211100,1.706211181640625,-0.0043444144539535046,0.006223008502274752,0.008892294950783253
1783003373135262200,1.71626220703125,-0.0046091326512396336,0.006512227933853865,0.008282963186502457
1783003373145314300,1.726314208984375,-0.004120708908885717,0.005917277652770281,0.0068147629499435425
1783003373155365000,1.736365234375,-0.0028847360517829657,0.0034975295420736074,0.007044061087071896
1783003373165417200,1.746417236328125,-0.005513275973498821,0.002231728984043002,0.0062789348885416985
1783003373175468300,1.75646826171875,-0.005007275380194187,0.0024290692526847124,0.009600695222616196
1783003373185520400,1.766520263671875,-0.005015264730900526,0.0065473816357553005,0.007446997333317995
1783003373195572500,1.776572509765625,-0.0019076223252341151,0.005291434936225414,0.009090966545045376
1783003373205623300,1.786623291015625,-0.003943342715501785,0.004395014606416225,0.007691475562751293
1783003373215675400,1.79667529296875,-0.0022442457266151905,0.004159591160714626,0.0091157341375947
1783003373225726500,1.8067265625,-0.002189118415117264,0.002463423879817128,0.009548497386276722
1783003373235778300,1.8167783203125,-0.00355851580388844,0.0037257622461766005,0.008462194353342056
1783003373245829400,1.826829345703125,-0.004058391321450472,0.0032234902027994394,0.006219812668859959
1783003373255881200,1.836881103515625,-0.002112952060997486,0.002026133006438613,0.009406817145645618
1783003373265932300,1.846932373046875,-0.0019273296929895878,0.00304692261852324,0.011373561806976795
1783003373275984400,1.856984375,-0.005411277059465647,0.0031518512405455112,0.008593488484621048
1783003373286035200,1.86703515625,-0.00410552928224206,0.005087703000754118,0.007763913366943598
1783003373296087300,1.87708740234375,-0.0021289309952408075,0.006646717432886362,0.00708667142316699
1783003373306138400,1.887138427734375,-0.003983023576438427,0.006667756475508213,0.00689119566231966
1783003373316190200,1.897190185546875,-0.004024302586913109,0.004778509959578514,0.009636647999286652
1783003373326241300,1.9072412109375,-0.005595034919679165,0.0049217878840863705,0.005821137689054012
1783003373336293000,1.917293212890625,-0.00358781055547297,0.0073143718764185905,0.007693605963140726
1783003373346344200,1.92734423828125,-0.0007590008899569511,0.0030123014003038406,0.00905581284314394
1783003373356396300,1.937396240234375,-0.002397643867880106,0.003831756068393588,0.006380667444318533
1783003373366447000,1.947447021484375,-0.003890611929818988,-0.0010373012628406286,0.008174839429557323
1783003373376499500,1.95749951171875,-0.005942843854427338,0.004197407979518175,0.009945575147867203
1783003373386550300,1.96755029296875,-0.005332979839295149,0.002998985582962632,0.004741758108139038
1783003373396602400,1.977602294921875,-0.003777960315346718,0.004847485572099686,0.011625496670603752
1783003373406653400,1.9876533203125,-0.003370230318978429,0.00526613462716341,0.007732221856713295
1783003373416705300,1.997705322265625,-0.0016594156622886658,0.005846703890711069,0.006749781779944897
1783003373426756400,2.00775634765625,-0.003168362658470869,0.004893558565527201,0.007675496395677328
1783003373436808400,2.017808349609375,-0.004734301473945379,0.006421413738280535,0.007096525281667709
1783003373446859300,2.027859375,-0.005183043889701366,0.004851480480283499,0.006533532869070768
1783003373456911400,2.037911376953125,-0.002828276949003339,0.004795554094016552,0.006188121158629656
1783003373466962400,2.04796240234375,-0.0036464000586420298,0.0027023095171898603,0.00848456472158432
1783003373477014300,2.05801416015625,-0.0035273567773401737,0.003317766124382615,0.0067239492200315
1783003373487065300,2.0680654296875,-0.004465854726731777,0.0038535939529538155,0.0049617355689406395
1783003373497117200,2.0781171875,-0.0046576024033129215,0.0031672974582761526,0.009579656645655632
1783003373507168300,2.088168212890625,-0.00526586826890707,0.0036767602432519197,0.008784436620771885
1783003373517220400,2.098220458984375,-0.0035262915771454573,0.0046690539456903934,0.0065284729935228825
1783003373527271200,2.108271240234375,-0.003546797903254628,0.005086371209472418,0.006311691831797361
1783003373537323300,2.1183232421875,-0.004422178957611322,0.006621151231229305,0.011633752845227718
1783003373547374300,2.128374267578125,-0.0031435952987521887,0.003979029133915901,0.009943976998329163
1783003373557426200,2.13842626953125,-0.0019523634109646082,0.0021667478140443563,0.009154615923762321
1783003373567477200,2.148477294921875,-0.0046791741624474525,0.004369448404759169,0.007678159512579441
1783003373577529000,2.158529052734375,-0.0028993834275752306,0.005577458068728447,0.010363957844674587
1783003373587580200,2.168580078125,-0.005615008994936943,0.003628556849434972,0.009073656052350998
1783003373597632500,2.178632568359375,-0.00732422573491931,0.0065564364194869995,0.00965848658233881
1783003373607683000,2.18868310546875,-0.004531368613243103,0.0073561836034059525,0.005014466121792793
1783003373617735400,2.1987353515625,-0.004720719531178474,0.002856240142136812,0.008564193733036518
1783003373627786500,2.208786376953125,-0.004291950259357691,0.0041761030443012714,0.008167382329702377
1783003373637838300,2.21883837890625,-0.0038005972746759653,0.005106344819068909,0.005480785388499498
1783003373647889400,2.228889404296875,-0.00563950976356864,0.006886135786771774,0.010494719259440899
1783003373657941200,2.238941162109375,-0.005018460564315319,0.005258411634713411,0.008479771204292774
1783003373667993300,2.248993408203125,-0.004053330980241299,0.004642955027520657,0.00512951472774148
1783003373678044400,2.25904443359375,-0.00421471893787384,0.0032948628067970276,0.009407882578670979
1783003373688096300,2.26909619140625,-0.0046208505518734455,0.007610781583935022,0.004845088813453913
1783003373698147300,2.279147216796875,-0.0018271948210895061,0.00586774293333292,0.0057188719511032104
1783003373708199200,2.28919921875,-0.004327636677771807,0.005768406670540571,0.009909888729453087
1783003373718250200,2.299250244140625,-0.004356665071099997,0.005798234138637781,0.007710383739322424
1783003373728302300,2.30930224609375,-0.004466387443244457,0.004697549622505903,0.006109557580202818
1783003373738353200,2.319353271484375,-0.004915129859000444,0.005033640656620264,0.008413990959525108
1783003373748405200,2.3294052734375,-0.004762530792504549,0.0029204224701970816,0.006117281038314104
1783003373758456300,2.339456298828125,-0.0024895230308175087,0.003951598424464464,0.008217982016503811
1783003373768508200,2.349508056640625,-0.003162503708153963,0.005745237227529287,0.006057892460376024
1783003373778559200,2.359559326171875,-0.0021784657146781683,0.005709018558263779,0.00600409647449851
1783003373788611300,2.369611328125,-0.0032439965289086103,0.004172640852630138,0.006533532869070768
1783003373798662100,2.379662109375,-0.005527124274522066,0.00464588450267911,0.007069627288728952
1783003373808714500,2.389714599609375,-0.0059843892231583595,0.00785632524639368,0.008197209797799587
1783003373818765300,2.399765380859375,-0.0038013961166143417,0.00484162662178278,0.01034531556069851
1783003373828817400,2.4098173828125,-0.005046690348535776,0.003796069882810116,0.007929828017950058
1783003373838868500,2.419868408203125,-0.002659432590007782,0.003572630463168025,0.007297061383724213
1783003373848920300,2.42992041015625,-0.004367051646113396,0.004197674337774515,0.009879262186586857
1783003373858971400,2.439971435546875,-0.005518335849046707,0.003920439630746841,0.006061887368559837
1783003373869023700,2.450023681640625,-0.002427204977720976,0.004756938200443983,0.007967645302414894
1783003373879074800,2.46007470703125,-0.005678392015397549,0.004463457968086004,0.009279784746468067
1783003373889126700,2.470126708984375,-0.004742024466395378,0.0027981833554804325,0.006660565733909607
1783003373899177700,2.480177734375,-0.004348942078649998,0.003282346064224839,0.009224124252796173
1783003373909229800,2.490229736328125,-0.0037729002069681883,0.0023406522814184427,0.010260893031954765
1783003373919280600,2.50028076171875,-0.004225637763738632,0.0068312743678689,0.011198592372238636
1783003373929332700,2.510332763671875,-0.002457032445818186,0.006420082412660122,0.007873369380831718
1783003373939383800,2.5203837890625,-0.003230947069823742,0.003425091505050659,0.005131378769874573
1783003373949436000,2.530435791015625,-0.005167065188288689,0.00412417110055685,0.008037419989705086
1783003373959486700,2.54048681640625,-0.0037140443455427885,0.0032402679789811373,0.011012437753379345
1783003373969538800,2.550538818359375,-0.003561711637303233,0.00740119069814682,0.007673632353544235
1783003373979590000,2.56058984375,-0.0019086875254288316,0.004533232655376196,0.00711862975731492
1783003373989642000,2.57064208984375,-0.005624596029520035,0.003306314582005143,0.008243815042078495
1783003373999692800,2.58069287109375,-0.004194212146103382,0.004114317707717419,0.00902545265853405
1783003374009745000,2.590744873046875,-0.003662112867459655,0.006643787957727909,0.00812210887670517
1783003374019796000,2.6007958984375,-0.005824067164212465,0.005735650192946196,0.006558300461620092
1783003374029847800,2.610847900390625,-0.005373726598918438,0.005434979218989611,0.008249673992395401
1783003374039899000,2.62089892578125,-0.005305016878992319,0.004513525404036045,0.009225189685821533
1783003374049950700,2.63095068359375,-0.004084223881363869,0.003099386813119054,0.004441353492438793
1783003374060001800,2.641001708984375,-0.006292516831308603,0.002959837205708027,0.01121909823268652
1783003374070054000,2.651053955078125,-0.004388090688735247,0.002900714986026287,0.007529555354267359
1783003374080104700,2.661104736328125,-0.0026375947054475546,0.004881307948380709,0.007357248570770025
1783003374090156800,2.67115673828125,-0.004566522315144539,0.005276787560433149,0.008625445887446404
1783003374100207900,2.681207763671875,-0.0034205641131848097,0.0027779433876276016,0.009877397678792477
1783003374110259700,2.691259765625,-0.005577724426984787,0.004503405187278986,0.008523181080818176
1783003374120310800,2.701310791015625,-0.0016479641199111938,0.002208026824519038,0.006423011887818575
1783003374130362600,2.711362548828125,-0.004743622615933418,0.0068358019925653934,0.007384945638477802
1783003374140413700,2.72141357421875,-0.005603291094303131,0.003992877434939146,0.010184993036091328
1783003374150465800,2.7314658203125,-0.003053047927096486,0.0054490938782691956,0.009751430712640285
1783003374160516900,2.741516845703125,-0.005365736782550812,0.004206995479762554,0.009245430119335651
1783003374170569000,2.75156884765625,-0.004111121874302626,0.003120958572253585,0.0068389978259801865
1783003374180620000,2.7616201171875,-0.005130313336849213,0.00612207455560565,0.008216118440032005
1783003374190672000,2.771671875,-0.005373726598918438,0.004619252867996693,0.007787349168211222
1783003374200723000,2.781722900390625,-0.0020932445768266916,0.003984888084232807,0.00800572894513607
1783003374210774800,2.79177490234375,-0.005646700505167246,0.004988367203623056,0.006759369280189276
1783003374220825900,2.801825927734375,-0.002350505907088518,0.005754558369517326,0.009161806665360928
1783003374230878000,2.8118779296875,-0.004197940696030855,0.0062576294876635075,0.009850766509771347
1783003374240928800,2.8219287109375,-0.002656236756592989,0.005632852204144001,0.010616159066557884
1783003374250980900,2.83198095703125,-0.005144960712641478,0.004595017991960049,0.008020375855267048
1783003374261032000,2.842031982421875,-0.004463990684598684,0.005835785064846277,0.006779342889785767
1783003374271083800,2.852083740234375,-0.003177683800458908,0.004788896068930626,0.008672317489981651
1783003374281134800,2.862134765625,-0.0056392434053123,0.0049036783166229725,0.010330401360988617
1783003374291186700,2.872186767578125,-0.003472495824098587,0.0033878071699291468,0.008918659761548042
1783003374301237800,2.88223779296875,-0.0049039446748793125,0.0032706281635910273,0.009827064350247383
1783003374311289900,2.892289794921875,-0.00407410366460681,0.00487251952290535,0.007474694401025772
1783003374321340700,2.902340576171875,-0.001662877737544477,0.0032858080230653286,0.007573497481644154
1783003374331392800,2.912392822265625,-0.0060048955492675304,0.004233094397932291,0.00878949649631977
1783003374341443800,2.92244384765625,-0.005392102058976889,0.00293320557102561,0.00896579772233963
1783003374351495700,2.93249560546875,-0.002959570847451687,0.003993942867964506,0.00993438996374607
1783003374361546800,2.942546630859375,-0.004166515544056892,0.00281948852352798,0.008203601464629173
1783003374371598800,2.952598876953125,-0.003837615018710494,0.004427771549671888,0.012249208986759186
1783003374381649700,2.962649658203125,-0.005804892163723707,0.003263970138505101,0.010328005068004131
1783003374391702000,2.972701904296875,-0.002397643867880106,0.0005757753970101476,0.0073412698693573475
1783003374401752800,2.9827529296875,-0.00350392097607255,0.002317482838407159,0.00595589354634285
1783003374411805000,2.992804931640625,-0.004628307651728392,0.0034352114889770746,0.008667523972690105
1783003374421856000,3.00285595703125,-0.003308444982394576,0.0038123151753097773,0.009125321172177792
1783003374431907800,3.012907958984375,-0.0027273432351648808,0.005508216097950935,0.008816927671432495
1783003374441959000,3.022958984375,-0.004608334042131901,0.006029130425304174,0.006892793346196413
1783003374452010800,3.0330107421875,-0.003826696192845702,0.0066637615673244,0.005352154839783907
1783003374462061800,3.043061767578125,-0.003876763628795743,0.0063005066476762295,0.007926632650196552
1783003374472114000,3.053114013671875,-0.0029020465444773436,0.0030450583435595036,0.009017463773488998
1783003374482164700,3.063164794921875,-0.0026229473296552896,0.003540672594681382,0.007939415983855724
1783003374492216800,3.073216796875,-0.002776079112663865,0.005501291714608669,0.008578041568398476
1783003374502268000,3.083267822265625,-0.004066380672156811,0.005594502668827772,0.00504136411473155
1783003374512319700,3.09331982421875,-0.004978246986865997,0.0006016080733388662,0.008901349268853664
1783003374522370800,3.103370849609375,-0.004457599017769098,0.005379585549235344,0.009111206978559494
1783003374532422700,3.113422607421875,-0.0034147051628679037,0.0041097900830209255,0.009134110063314438
1783003374542473700,3.1234736328125,-0.003471963107585907,0.004433364141732454,0.007130347657948732
1783003374552525800,3.13352587890625,-0.0016056197928264737,0.0051779840141534805,0.010647584684193134
1783003374562577000,3.143576904296875,-0.005016596522182226,0.0038780951872467995,0.012259329669177532
1783003374572628700,3.153628662109375,-0.0038661109283566475,0.0054938350804150105,0.008100536651909351
1783003374582679800,3.1636796875,-0.003623763332143426,0.0038250982761383057,0.00634977500885725
1783003374592732000,3.17373193359375,-0.0017480988753959537,0.004560397006571293,0.005936185829341412
1783003374602782700,3.18378271484375,-0.003509779926389456,0.004817125853151083,0.010037453845143318
1783003374612834800,3.193834716796875,-0.006327404174953699,0.005420864559710026,0.007898936048150063
1783003374622886000,3.203885986328125,-0.005087170284241438,0.0037699707318097353,0.008257663808763027
1783003374632938000,3.21393798828125,-0.0029843382071703672,0.0057439059019088745,0.007738347165286541
1783003374642988800,3.22398876953125,-0.0020607539918273687,0.0037848844658583403,0.00691889226436615
1783003374653041000,3.234041015625,-0.003677559085190296,0.005290635861456394,0.0054701329208910465
1783003374663092000,3.244092041015625,-0.0033931334037333727,0.005243764258921146,0.010056096129119396
1783003374673143800,3.254143798828125,-0.005788912996649742,0.004829908721148968,0.00749040674418211
1783003374683195000,3.26419482421875,-0.0052179316990077496,0.0044346959330141544,0.008304269053041935
1783003374693246700,3.274246826171875,-0.0046578687615692616,0.0023912524338811636,0.007923702709376812
1783003374703297800,3.2842978515625,-0.0054845139384269714,0.003023220458999276,0.008421448059380054
1783003374713350000,3.294349853515625,-0.002038117265328765,0.00415373221039772,0.009779127314686775
1783003374723400700,3.304400634765625,-0.0043952809646725655,0.0030658310279250145,0.006326072849333286
1783003374733452800,3.314452880859375,-0.004294879734516144,0.003626160090789199,0.004232295788824558
1783003374743504000,3.32450390625,-0.004460794851183891,0.007291202433407307,0.006561762653291225
1783003374753555700,3.3345556640625,-0.002805373864248395,0.00395799009129405,0.01082867942750454
1783003374763606800,3.344606689453125,-0.0014929680619388819,0.004050667863339186,0.00635057408362627
1783003374773659000,3.354658935546875,-0.0029140308033674955,0.002781938062980771,0.008324242196977139
1783003374783709700,3.364709716796875,-0.003579022129997611,0.003771835006773472,0.008727178908884525
1783003374793761800,3.37476171875,-0.004291683901101351,0.004474110435694456,0.007231281138956547
1783003374803812900,3.384812744140625,-0.004483697935938835,0.0076086511835455894,0.007834221236407757
1783003374813865000,3.394864990234375,-0.007457916159182787,0.004018177278339863,0.006591856479644775
1783003374823916000,3.404916015625,-0.0028575719334185123,0.004512459971010685,0.0065015750005841255
1783003374833967900,3.4149677734375,-0.002246376359835267,0.0025505092926323414,0.006621949840337038
1783003374844019000,3.42501904296875,-0.005101817660033703,0.002110022585839033,0.008189752697944641
1783003374854070800,3.43507080078125,-0.004750812891870737,0.0026114957872778177,0.009253419004380703
1783003374864121900,3.445121826171875,-0.005209675524383783,0.0065593658946454525,0.0070919981226325035
1783003374874174200,3.45517431640625,-0.003632019041106105,0.005380384158343077,0.00794261135160923
1783003374884225000,3.46522509765625,-0.0012540825409814715,0.004574511665850878,0.006336725316941738
1783003374894277000,3.475277099609375,-0.0033545177429914474,0.005315136630088091,0.013102752156555653
1783003374904328200,3.485328125,-0.0010673949727788568,0.004865328781306744,0.008150071837008
1783003374914380000,3.495380126953125,-0.004286357667297125,0.004482632502913475,0.005405684467405081
1783003374924431000,3.50543115234375,-0.003079679561778903,0.005642172880470753,0.007302920334041119
1783003374934483000,3.51548291015625,-0.0022357236593961716,0.005062669049948454,0.008553273975849152
1783003374944534000,3.525533935546875,-0.004251736681908369,-0.00005805691034765914,0.006478139199316502
1783003374954586000,3.535586181640625,-0.0008695221040397882,0.001728391507640481,0.0057098171673715115
1783003374964637000,3.545636962890625,-0.004007258452475071,0.004145210143178701,0.00686163455247879
1783003374974689000,3.55568896484375,-0.0041460092179477215,0.005531119182705879,0.00926460511982441
1783003374984740000,3.565739990234375,-0.006050169467926025,0.0048424256965518,0.007266168482601643
1783003374994792000,3.5757919921875,-0.005680788774043322,0.0037611823063343763,0.006040848325937986
1783003375004843000,3.585843017578125,-0.005072522908449173,0.0026937874499708414,0.006079197861254215
1783003375014894800,3.595894775390625,-0.003059173235669732,0.0023696806747466326,0.007780158892273903
1783003375024946000,3.60594580078125,-0.002482066163793206,0.0037438718136399984,0.009103483520448208
1783003375034998000,3.615998046875,-0.0072983927093446255,0.005785451270639896,0.00893730204552412
1783003375045048800,3.626048828125,-0.002124403603374958,0.005957491230219603,0.007035805378109217
1783003375055101200,3.63610107421875,-0.004238154739141464,0.0041252365335822105,0.00643765926361084
1783003375065152300,3.64615234375,-0.003070891136303544,0.003425357863306999,0.010072607547044754
1783003375075204000,3.6562041015625,-0.0036735644098371267,0.003314836649224162,0.008864331990480423
1783003375085255200,3.666255126953125,-0.005915679503232241,0.005758020561188459,0.007393734063953161
1783003375095307000,3.67630712890625,-0.005364139098674059,0.0038607846945524216,0.008555937558412552
1783003375105358000,3.686358154296875,-0.003680488560348749,0.005314071662724018,0.008094677701592445
1783003375115410200,3.69641015625,-0.003994741477072239,0.006428338121622801,0.008163387887179852
1783003375125461000,3.7064609375,-0.0043718451634049416,0.003531085327267647,0.00424401368945837
1783003375135513000,3.71651318359375,-0.00497984467074275,0.002594451420009136,0.007768440991640091
1783003375145564200,3.726564208984375,-0.005162005312740803,0.0028631645254790783,0.007517038378864527
1783003375155616000,3.736615966796875,-0.005889846943318844,0.0009797769598662853,0.010177802294492722
1783003375165667000,3.7466669921875,-0.0027710190042853355,0.004847751930356026,0.008321845903992653
1783003375175719000,3.756718994140625,-0.005410744342952967,0.006779076531529427,0.011373295448720455
1783003375185770000,3.76677001953125,-0.0027624969370663166,0.00782543234527111,0.006106362212449312
1783003375195822000,3.776822021484375,-0.002150236163288355,0.007861118763685226,0.007018494885414839
1783003375205873000,3.786872802734375,-0.0037883466575294733,0.008497348055243492,0.007720237597823143
1783003375215925000,3.796925048828125,-0.0026969832833856344,0.004823783412575722,0.010112821124494076
1783003375225976000,3.80697607421875,-0.0041436124593019485,0.0026320021133869886,0.00887871254235506
1783003375236028000,3.81702783203125,-0.0019510318525135517,0.003178216516971588,0.0076179723255336285
1783003375246079000,3.827078857421875,-0.0016767261549830437,0.0006319681415334344,0.004291950259357691
1783003375256130800,3.837130859375,-0.002007490722462535,0.0021374530624598265,0.008802546188235283
1783003375266182000,3.847181884765625,-0.00577905960381031,0.0028756812680512667,0.008856075815856457
1783003375276234200,3.857234130859375,-0.006564425770193338,0.005714344792068005,0.01085957232862711
1783003375286285000,3.86728515625,-0.0027182884514331818,0.006469617132097483,0.005627259146422148
1783003375296337200,3.877337158203125,-0.006711964961141348,0.006305033806711435,0.007724498864263296
1783003375306388200,3.88738818359375,-0.000874582096002996,0.006518086884170771,0.007482950109988451
1783003375316440000,3.897440185546875,-0.005013134330511093,0.0060328589752316475,0.008479504846036434
1783003375326491100,3.9074912109375,-0.005631520412862301,0.004096474498510361,0.009824667125940323
1783003375336543000,3.91754296875,-0.0051625375635921955,0.004295146092772484,0.008803078904747963
1783003375346594000,3.927593994140625,-0.0036511938087642193,0.001981924520805478,0.0063196811825037
1783003375356646100,3.937646240234375,-0.004315119702368975,0.00347435986623168,0.006597182713449001
1783003375366697000,3.947697021484375,-0.005167065188288689,0.0008285093936137855,0.0070669641718268394
1783003375376749000,3.9577490234375,-0.0046690539456903934,0.0033662356436252594,0.004551608581095934
1783003375386800000,3.967800048828125,-0.005691708065569401,0.006193181034177542,0.004750546533614397
1783003375396852000,3.97785205078125,-0.0046237800270318985,0.007019559852778912,0.00962413102388382
1783003375406903000,3.987903076171875,-0.0034650389570742846,0.006214486435055733,0.008817194029688835
1783003375416955000,3.997954833984375,-0.005216067191213369,0.006385727785527706,0.007660582661628723
1783003375427006000,4.008005859375,-0.0030599720776081085,0.006761499680578709,0.007113303057849407
1783003375437058000,4.01805810546875,-0.003572896821424365,0.006069077644497156,0.009637447074055672
1783003375447108900,4.02810888671875,-0.0034967304673045874,0.004325239919126034,0.009728793986141682
1783003375457161000,4.038160888671875,-0.00869149249047041,0.0006026733317412436,0.00839774589985609
1783003375467212000,4.0482119140625,-0.004338821861892939,0.0015757924411445856,0.005066930316388607
1783003375477264100,4.05826416015625,-0.005579855293035507,0.0023374564480036497,0.010554905980825424
1783003375487315000,4.06831494140625,-0.00571833923459053,0.004968925844877958,0.007134075742214918
1783003375497367000,4.078366943359375,-0.004683434963226318,0.003689276985824108,0.011038536205887794
1783003375507418000,4.088418212890625,-0.004053330980241299,0.002984072081744671,0.007910121232271194
1783003375517470200,4.09847021484375,-0.0030336068011820316,0.0029441246297210455,0.009282181970775127
1783003375527521000,4.10852099609375,-0.004752144683152437,0.006595051847398281,0.006355900317430496
1783003375537573000,4.118572998046875,-0.005710882600396872,0.0041465419344604015,0.007129548583179712
1783003375547624200,4.128624267578125,-0.00628905463963747,0.004641357343643904,0.005913282744586468
1783003375557676000,4.138676025390625,-0.004027498420327902,0.004966795444488525,0.0052173989824950695
1783003375567727000,4.14872705078125,-0.007862716913223267,0.004511395003646612,0.00871972180902958
1783003375577779000,4.158779052734375,-0.003923634998500347,0.003495132550597191,0.009731722995638847
1783003375587830000,4.168830078125,-0.00424374733120203,0.004320446401834488,0.006819023750722408
1783003375597882000,4.178882080078125,-0.0035337484441697598,0.0023438481148332357,0.00842863880097866
1783003375607933000,4.188932861328125,-0.003315103007480502,0.005146825220435858,0.009560481645166874
1783003375617985000,4.198985107421875,-0.004177967086434364,0.0027571707032620907,0.007195062469691038
1783003375628036000,4.2090361328125,-0.003275954397395253,0.00435986090451479,0.008705873973667622
1783003375638087000,4.2190869140625,-0.004465588368475437,0.0029907298739999533,0.008340221829712391
1783003375648139000,4.229138916015625,-0.00621049152687192,0.0051569449715316296,0.006280798930674791
1783003375658190000,4.239190185546875,-0.0054786549881100655,0.004749747924506664,0.010402306914329529
1783003375668242000,4.249241943359375,-0.004427238833159208,0.0033398703671991825,0.006926615722477436
1783003375678293000,4.25929296875,-0.0028599686920642853,0.00276116537861526,0.006908239796757698
1783003375688344800,4.2693447265625,-0.002357163932174444,0.005441370885819197,0.009845706634223461
1783003375698396000,4.27939599609375,-0.005794771946966648,0.0019065570086240768,0.008977781981229782
1783003375708448000,4.289447998046875,-0.002425074577331543,0.004049869254231453,0.0048887645825743675
1783003375718499000,4.2994990234375,-0.003835750976577401,0.006733802612870932,0.00839668046683073
1783003375728551200,4.30955126953125,-0.004250404890626669,0.0032229574862867594,0.009544236585497856
1783003375738602200,4.319602294921875,-0.005258411634713411,0.004343615844845772,0.007095726206898689
1783003375748654000,4.329654052734375,-0.004178233444690704,0.0049620019271969795,0.007906125858426094
1783003375758705200,4.339705078125,-0.003870904678478837,0.004126035608351231,0.006938599981367588
1783003375768757000,4.349757080078125,-0.003299922915175557,0.0033992587123066187,0.01038446370512247
1783003375778808000,4.35980810546875,-0.0017688715597614646,0.004743356257677078,0.009800964966416359
1783003375788860200,4.369860107421875,-0.003829892026260495,0.006432066671550274,0.009519202634692192
1783003375798911000,4.379910888671875,-0.004998220596462488,0.002912432886660099,0.003805124433711171
1783003375808963000,4.389963134765625,-0.004668254870921373,0.0037816886324435472,0.008248874917626381
1783003375819014100,4.40001416015625,-0.0037356161046773195,0.005119394510984421,0.008262457326054573
1783003375829066000,4.41006591796875,-0.004215517546981573,0.0041313618421554565,0.009689911268651485
1783003375839117000,4.420116943359375,-0.005307413637638092,0.003059173235669732,0.005224589258432388
1783003375849169000,4.4301689453125,-0.0014434333425015211,0.00452870549634099,0.007655522786080837
1783003375859220000,4.440219970703125,-0.00421471893787384,0.003260241821408272,0.008192416280508041
1783003375869272000,4.45027197265625,-0.003783819265663624,0.006638195365667343,0.007685882970690727
1783003375879323000,4.460322998046875,-0.005067196674644947,0.005537510849535465,0.008416654542088509
1783003375889375000,4.470375,-0.002159290947020054,0.006597981322556734,0.006018477492034435
1783003375899426000,4.480426025390625,-0.0029499835800379515,0.004777178168296814,0.009073389694094658
1783003375909478000,4.490477783203125,-0.007723966147750616,0.006269081030040979,0.009709885343909264
1783003375919529000,4.500529052734375,-0.004750546533614397,0.00427091121673584,0.009138903580605984
1783003375929580800,4.510580810546875,-0.0037121803034096956,0.001933454885147512,0.007807589136064053
1783003375939631900,4.5206318359375,-0.004568386357277632,0.0036727653350681067,0.00896819494664669
1783003375949684000,4.53068408203125,-0.002692722249776125,0.0046424223110079765,0.00938897393643856
1783003375959735000,4.540735107421875,-0.0057167415507137775,0.003769438248127699,0.010118680074810982
1783003375969787000,4.550786865234375,-0.0019121496006846428,0.0027110979426652193,0.008566590026021004
1783003375979838000,4.560837890625,-0.003943875432014465,0.00250603468157351,0.005305283237248659
1783003375989889800,4.570889892578125,-0.0007222492713481188,0.00436092633754015,0.008155131712555885
1783003375999940900,4.58094091796875,-0.003707919269800186,0.005855492316186428,0.00809228140860796
1783003376009993000,4.590992919921875,-0.006475209724158049,0.003379285102710128,0.009268333204090595
1783003376020043800,4.601043701171875,-0.0030242856591939926,0.007796403951942921,0.008141815662384033
1783003376030096100,4.61109619140625,-0.0015824503498151898,0.002886067610234022,0.00606455048546195
1783003376040147000,4.62114697265625,-0.00430100504308939,0.00390312890522182,0.00555242458358407
1783003376050198000,4.631197998046875,-0.003998736385256052,0.00631914846599102,0.009701629169285297
1783003376060250000,4.64125,-0.004886634182184935,0.005942311137914658,0.007258445490151644
1783003376070301000,4.651301025390625,-0.005300223361700773,0.004220843780785799,0.009406285360455513
1783003376080353000,4.66135302734375,-0.003005377249792218,0.0008934905636124313,0.0039880839176476
1783003376090404000,4.671404052734375,-0.004541754722595215,0.006789196282625198,0.007762049324810505
1783003376100456000,4.6814560546875,-0.005499161314219236,0.0013821806060150266,0.007452589925378561
1783003376110507000,4.691507080078125,-0.004581169690936804,0.0028943235520273447,0.007192398887127638
1783003376120559000,4.70155908203125,-0.002974218223243952,0.00520674604922533,0.00654525076970458
1783003376130610000,4.71160986328125,-0.003370496677234769,0.004983839578926563,0.008839830756187439
1783003376140662000,4.721662109375,-0.0015837819082662463,0.0046573360450565815,0.007187871728092432
1783003376150713000,4.731713134765625,-0.003318032482638955,0.002772883279249072,0.007589742541313171
1783003376160765000,4.741764892578125,-0.00569969741627574,0.0057228668592870235,0.007031544111669064
1783003376170816000,4.75181591796875,-0.0041433461010456085,0.005357481073588133,0.007364705670624971
1783003376180867800,4.761867919921875,-0.00475560687482357,0.004852545913308859,0.009101086296141148
1783003376190919000,4.7719189453125,-0.004037884995341301,0.003644269658252597,0.008861934766173363
1783003376200971000,4.781970947265625,-0.00566933723166585,0.004829908721148968,0.009874468669295311
1783003376211021800,4.792021728515625,-0.004036553204059601,0.005407282151281834,0.010165019892156124
1783003376221074000,4.802073974609375,-0.004863731097429991,0.004817392211407423,0.010100305080413818
1783003376231125000,4.812125,-0.0038748993538320065,0.005170793738216162,0.007248325273394585
1783003376241177000,4.822177001953125,-0.006589991971850395,0.0049766493029892445,0.006077333353459835
1783003376251228000,4.832227783203125,-0.004880242515355349,0.0048738508485257626,0.007641141768544912
1783003376261280000,4.842280029296875,-0.005077849142253399,0.004465588368475437,0.0068238177336752415
1783003376271331000,4.8523310546875,-0.003171558491885662,0.0029760824982076883,0.009322129189968109
1783003376281383000,4.8623828125,-0.005691175349056721,0.005298625212162733,0.008110923692584038
1783003376291434000,4.87243408203125,-0.004867726005613804,0.0027827369049191475,0.007527957204729319
1783003376301486000,4.882486083984375,-0.005343366414308548,0.006442452780902386,0.007623032201081514
1783003376311537200,4.892537109375,-0.004580370616167784,0.005519401282072067,0.006586263421922922
1783003376321589000,4.902589111328125,-0.001871403306722641,0.0049255164340138435,0.009681922383606434
1783003376331640000,4.91264013671875,-0.00490154791623354,0.004523911513388157,0.009949569590389729
1783003376341692000,4.92269189453125,-0.002260491019114852,0.0034384073223918676,0.009650496765971184
1783003376351743000,4.932742919921875,-0.002865294925868511,0.005848834291100502,0.006258961278945208
1783003376361795000,4.942795166015625,-0.004791293293237686,0.004238154739141464,0.00820972677320242
1783003376371846000,4.952845947265625,-0.00606534956023097,0.0032434638123959303,0.009850233793258667
1783003376381897000,4.96289697265625,-0.005339904222637415,0.004268248099833727,0.00806325301527977
1783003376391949000,4.972948974609375,-0.0028639633674174547,0.0029614351224154234,0.007865645922720432
1783003376402000000,4.982999755859375,-0.003555053612217307,0.004897020757198334,0.008298676460981369
1783003376412052000,4.993052001953125,-0.0018282600212842226,0.006458431947976351,0.009040633216500282
1783003376422103000,5.00310302734375,-0.002822417998686433,0.0067907944321632385,0.006991863250732422
1783003376432155000,5.01315478515625,-0.0035843485966324806,0.004251470323652029,0.008146876469254494
1783003376442206000,5.0232060546875,-0.0012426309986039996,0.0046599991619586945,0.006933273747563362
1783003376452257800,5.0332578125,-0.0033569145016372204,0.00395692465826869,0.0065322015434503555
1783003376462308900,5.043308837890625,-0.0027771443128585815,0.004005128052085638,0.008329568430781364
1783003376472361000,5.05336083984375,-0.004289020784199238,0.004516188520938158,0.007951666601002216
1783003376482411800,5.063411865234375,-0.0043771713972091675,0.004200870171189308,0.0032655680552124977
1783003376492464000,5.073464111328125,-0.002892725635319948,0.001677525113336742,0.0073657711036503315
1783003376502515200,5.08351513671875,-0.0057289921678602695,0.0031643679831176996,0.008678975515067577
1783003376512567000,5.093567138671875,-0.004171575419604778,0.0037473340053111315,0.009893643669784069
1783003376522618000,5.1036181640625,-0.0036786242853850126,0.005790511146187782,0.0087820403277874
1783003376532670000,5.113669921875,-0.004218447022140026,0.004817924462258816,0.008133294060826302
1783003376542721000,5.123720947265625,-0.0057220677845180035,0.003894340479746461,0.006201969459652901
1783003376552773000,5.133773193359375,-0.005369998048990965,0.00672315014526248,0.007539675105363131
1783003376562824000,5.143823974609375,-0.0016863135388121009,0.005370530765503645,0.0070645674131810665
1783003376572876000,5.1538759765625,-0.004108192399144173,0.0031965922098606825,0.008015049621462822
1783003376582927000,5.163927001953125,-0.004363589454442263,0.005014732480049133,0.006947388406842947
1783003376592979000,5.17397900390625,-0.0038922098465263844,0.003650128608569503,0.008489890955388546
1783003376603030000,5.184030029296875,-0.0027566379867494106,0.002382996492087841,0.008183893747627735
1783003376613081900,5.194081787109375,-0.0024767396971583366,0.005246693734079599,0.008363923989236355
1783003376623133000,5.2041328125,-0.0035960664972662926,0.0021049624774605036,0.008115717209875584
1783003376633185000,5.21418505859375,-0.004551342222839594,0.005577990785241127,0.005290635861456394
1783003376643235800,5.22423583984375,-0.004068777430802584,0.003507116809487343,0.008927182294428349
1783003376653287000,5.234286865234375,-0.002713228575885296,0.003597131697461009,0.009943976998329163
1783003376663339000,5.244339111328125,-0.0038450718857347965,0.0038389465771615505,0.008068579249083996
1783003376673389800,5.254389892578125,-0.0056770602241158485,0.005540173966437578,0.01059139147400856
1783003376683442000,5.26444189453125,-0.0028301412239670753,0.004798483569175005,0.008115184493362904
1783003376693493000,5.274492919921875,-0.0037028591614216566,0.0029198897536844015,0.008894159458577633
1783003376703544800,5.284544921875,-0.0034107104875147343,0.0021310613956302404,0.005311142187565565
1783003376713596000,5.294595947265625,-0.0033830134198069572,0.00487198680639267,0.007367901504039764
1783003376723648000,5.30464794921875,-0.0024836640805006027,0.0044139232486486435,0.008535963483154774
1783003376733699000,5.314698974609375,-0.00654551712796092,0.005772401578724384,0.008265119977295399
1783003376743751200,5.324751220703125,-0.004035221878439188,0.0057164751924574375,0.010185792110860348
1783003376753802000,5.334802001953125,-0.0057614827528595924,0.0059596216306090355,0.008530903607606888
1783003376763854000,5.34485400390625,-0.00458676228299737,0.005931658670306206,0.009579390287399292
1783003376773905200,5.3549052734375,-0.004285558592528105,0.002749181119725108,0.006994260009378195
1783003376783957000,5.36495703125,-0.004334294702857733,0.004906075540930033,0.00723500968888402
1783003376794008000,5.375008056640625,-0.005783586762845516,0.003916711080819368,0.00893703568726778
1783003376804060000,5.385059814453125,-0.0017307883827015758,0.004661863669753075,0.007949003018438816
1783003376814111000,5.395111083984375,-0.004994758404791355,0.002094309777021408,0.006047506351023912
1783003376824163000,5.4051630859375,-0.005060005933046341,0.0014887070283293724,0.009130114689469337
1783003376834214000,5.4152138671875,-0.0046970173716545105,0.001660214620642364,0.010667557828128338
1783003376844266000,5.425265869140625,-0.0024796691723167896,0.0051446943543851376,0.007198790553957224
1783003376854317000,5.435317138671875,-0.005567338317632675,0.00444028852507472,0.005504221189767122
1783003376864369000,5.445368896484375,-0.002630936913192272,0.005592105444520712,0.007273092865943909
1783003376874419500,5.45541943359375,-0.004608600400388241,0.005741775035858154,0.006518619135022163
1783003376884470300,5.46547021484375,-0.002323075430467725,0.0035401401109993458,0.008449943736195564
1783003376894522400,5.4755224609375,-0.003811249742284417,0.004358795937150717,0.006051767151802778
1783003376904573400,5.485573486328125,-0.0010375675046816468,0.005013667047023773,0.007486145943403244
1783003376914625300,5.495625244140625,-0.0035446672700345516,0.0065170214511454105,0.005841909907758236
1783003376924676400,5.50567626953125,-0.0029760824982076883,0.005688778590410948,0.011503790505230427
1783003376934728400,5.515728515625,-0.004324174486100674,0.0030570426024496555,0.008270978927612305
1783003376944779500,5.525779541015625,-0.004767058417201042,0.005053880624473095,0.008066182024776936
1783003376954831400,5.535831298828125,-0.0046570696868002415,0.004773183725774288,0.005905826110392809
1783003376964882400,5.54588232421875,-0.0036698358599096537,0.0010586065473034978,0.007595601491630077
1783003376974934300,5.555934326171875,-0.0036511938087642193,0.005696501582860947,0.006474943365901709
1783003376984985300,5.5659853515625,-0.0016024239594116807,0.005320463329553604,0.007141266483813524
1783003376995037400,5.576037353515625,-0.004262655507773161,0.005616073962301016,0.006759102921932936
1783003377005088300,5.586088134765625,-0.004057858604937792,0.005520733073353767,0.009934922680258751
1783003377015140400,5.596140380859375,-0.00267674308270216,0.003344397759065032,0.009674731642007828
1783003377025191400,5.60619140625,-0.0034320156555622816,0.002957440447062254,0.006459231022745371
1783003377035243300,5.6162431640625,-0.003865045728161931,0.0029497172217816114,0.00821052584797144
1783003377045294300,5.62629443359375,-0.0036879454273730516,0.002026399364694953,0.009897638112306595
1783003377055346200,5.63634619140625,-0.0028309402987360954,0.005619269795715809,0.007275489624589682
1783003377065397200,5.646397216796875,-0.004835767671465874,0.0035625104792416096,0.010144779458642006
1783003377075449300,5.656449462890625,-0.0046331011690199375,0.004680239129811525,0.0062278020195662975
1783003377085500200,5.666500244140625,-0.004258661065250635,0.0011984225129708648,0.00752023421227932
1783003377095551200,5.67655126953125,-0.005503954831510782,0.005824599415063858,0.005874134600162506
1783003377105603600,5.686603515625,-0.002886067610234022,0.005602758377790451,0.008267250843346119
1783003377115654100,5.696654052734375,-0.0038775624707341194,0.00624165078625083,0.008236624300479889
1783003377125706500,5.70670654296875,-0.00355851580388844,0.005398227367550135,0.007690410129725933
1783003377135757600,5.716757568359375,-0.0031672974582761526,0.0021614215802401304,0.008696019649505615
1783003377145809400,5.726809326171875,-0.005781190004199743,0.0034378746058791876,0.005756688769906759
1783003377155860500,5.736860595703125,-0.00256355875171721,0.006560430862009525,0.007715444080531597
1783003377165912300,5.746912353515625,-0.0043982104398310184,0.006489058490842581,0.008897354826331139
1783003377175963400,5.75696337890625,-0.004583033733069897,0.005652026738971472,0.009466205723583698
1783003377186015500,5.767015380859375,-0.0031704932916909456,0.0052056810818612576,0.006403304636478424
1783003377196066300,5.77706640625,-0.006767891347408295,0.0038626487366855145,0.007013967260718346
1783003377206118400,5.787118408203125,-0.0032320122700184584,0.003308444982394576,0.006427273154258728
1783003377216169500,5.79716943359375,-0.003556119045242667,0.0035350800026208162,0.008716260083019733
1783003377226221300,5.80722119140625,-0.0032948628067970276,0.005591040477156639,0.007764712441712618
1783003377236272400,5.8172724609375,-0.0036277580074965954,0.005526858381927013,0.00785818975418806
1783003377246324200,5.82732421875,-0.0032812808640301228,0.0037055222783237696,0.008943960070610046
1783003377256375300,5.837375244140625,-0.004264520015567541,0.0029891319572925568,0.009879528544843197
1783003377266427400,5.847427490234375,-0.004324973560869694,0.002972354181110859,0.008363391272723675
1783003377276478200,5.857478271484375,-0.005108475685119629,0.006619553081691265,0.008582835085690022
1783003377286529300,5.867529296875,-0.0032687638886272907,0.0028272117488086224,0.009982326999306679
1783003377296581400,5.877581298828125,-0.003379817819222808,0.003965180367231369,0.011785020120441914
1783003377306632200,5.887632080078125,-0.0068091703578829765,0.003425091505050659,0.006931409239768982
1783003377316684300,5.897684326171875,-0.004424042999744415,0.0026871294248849154,0.006216616835445166
1783003377326735400,5.9077353515625,-0.003931891173124313,0.0027196200098842382,0.008300273679196835
1783003377336787200,5.917787109375,-0.004220311529934406,0.0049433596432209015,0.009941314347088337
1783003377346838300,5.92783837890625,-0.0052355085499584675,0.005871471017599106,0.008494684472680092
1783003377356890400,5.937890380859375,-0.004281297791749239,0.007256581448018551,0.009501892141997814
1783003377366941400,5.94794140625,-0.005868275184184313,0.003918042406439781,0.005893841851502657
1783003377376993500,5.95799365234375,-0.003876497270539403,0.003237072378396988,0.010045443661510944
1783003377387044400,5.96804443359375,-0.0024772724136710167,0.004890895448625088,0.009184709750115871
1783003377397096400,5.978096435546875,-0.007828895002603531,0.010482468642294407,0.011931227520108223
1783003377407147500,5.9881474609375,-0.028240159153938293,0.319347620010376,0.13863644003868103
1783003377417199400,5.998199462890625,0.0048855687491595745,-0.07023954391479492,0.015050588175654411
1783003377427250400,6.00825048828125,-0.001026115962304175,0.07315916568040848,0.02990170568227768
1783003377437302300,6.01830224609375,-0.0010604707058519125,-0.04066513851284981,0.0012282498646527529
1783003377447353300,6.028353271484375,-0.009265136905014515,0.012545086443424225,0.005952431354671717
1783003377457405400,6.038405517578125,-0.0033507891930639744,-0.006039516534656286,-0.0011832424206659198
1783003377467456300,6.048456298828125,0.005347627215087414,-0.018391789868474007,-0.011326423846185207
1783003377477507300,6.05850732421875,0.0033800839446485043,-0.08239927142858505,-0.032043155282735825
1783003377487559400,6.068559326171875,-0.0039017973467707634,-0.11534284055233002,-0.04729507863521576
1783003377497610200,6.0786103515625,-0.006910103838890791,-0.037342578172683716,-0.010409231297671795
