time,seconds_elapsed,z,y,x
1783003371505660200,0.08666015625,0.0013317088596522808,-0.011890746653079987,-0.0058477940037846565
1783003371515712000,0.0967119140625,-0.0000653853639960289,-0.027571972459554672,-0.0110087338835001
1783003371525763000,0.10676318359375,-0.0027117375284433365,-0.012243643403053284,-0.005188733339309692
1783003371535815000,0.11681494140625,0.0002544908784329891,0.0158122256398201,0.007651431020349264
1783003371545866000,0.126865966796875,-0.0012248731218278408,0.022661568596959114,0.008505543693900108
1783003371555918000,0.13691796875,0.0026678694412112236,0.006956908851861954,0.005397367756813765
1783003371565969000,0.146968994140625,-0.00011181551963090897,-0.01423131488263607,-0.0054888539016246796
1783003371576021000,0.15702099609375,0.0008530477061867714,-0.01821300759911537,-0.006804988253861666
1783003371586072000,0.167072021484375,-0.00225174892693758,-0.0030502022709697485,0.00016594259068369865
1783003371596124000,0.1771240234375,-0.0008567851036787033,0.013053134083747864,0.004513287451118231
1783003371606175000,0.187175048828125,-0.00042345840483903885,0.012464014813303947,0.004847443196922541
1783003371616227000,0.19722705078125,-0.00007698126137256622,0.0009373207576572895,-0.0012764958664774895
1783003371626279200,0.207279052734375,-0.0006812755018472672,-0.007797272875905037,-0.0019865292124450207
1783003371636330200,0.217330322265625,0.0010002441704273224,-0.009104618802666664,-0.00010447343811392784
1783003371646382000,0.227382080078125,0.0001501990482211113,0.002608935348689556,0.0019777645356953144
1783003371656433200,0.23743310546875,0.0011962885037064552,0.008344585075974464,0.0034571499563753605
1783003371666485000,0.247485107421875,0.00018040183931589127,0.0027220589108765125,0.0020945160649716854
1783003371676536000,0.2575361328125,-0.0009242775849997997,-0.006301529705524445,0.001018864568322897
1783003371686588200,0.267588134765625,-0.0009286687709391117,-0.00803887564688921,-0.0011930325999855995
1783003371696639000,0.277638916015625,-0.0005363849923014641,-0.0007037310861051083,-0.0003264402039349079
1783003371706691000,0.287691162109375,0.00024155527353286743,0.002973799593746662,0.0015395660884678364
1783003371716742100,0.2977421875,0.0004921585787087679,0.007507032249122858,0.000550201628357172
1783003371726794000,0.3077939453125,0.0012290026061236858,0.0011948766186833382,0.0015651681460440159
1783003371736845000,0.317844970703125,0.002796805463731289,-0.0011313946451991796,0.0006948472000658512
1783003371746897000,0.32789697265625,0.0019077814649790525,-0.002872246317565441,-0.0019910759292542934
1783003371756948000,0.337947998046875,0.001763704465702176,0.0033243969082832336,0.00015543168410658836
1783003371767000000,0.348,0.0002185511402785778,0.002570750191807747,-0.002071179449558258
1783003371777051000,0.35805078125,-0.003271787893027067,0.0011326433159410954,-0.0003550387918949127
1783003371787103000,0.36810302734375,-0.0002763606607913971,-0.0019221995025873184,-0.0015978855080902576
1783003371797154000,0.378154052734375,0.0020517746452242136,-0.006074866279959679,-0.0031230775639414787
1783003371807206100,0.3882060546875,0.0012925376649945974,-0.001832213019952178,-0.002122865989804268
1783003371817257200,0.39825732421875,0.0013695030938833952,0.002822193782776594,-0.0008666529320180416
1783003371827309000,0.40830908203125,0.001538377720862627,0.0019965856336057186,0.0021575619466602802
1783003371837360000,0.418360107421875,-0.0012805783189833164,-0.0003901394084095955,-0.0024273362942039967
1783003371847412200,0.428412109375,0.0014162228908389807,-0.0020528484601527452,-0.0013459334149956703
1783003371857463000,0.438463134765625,0.0010566962882876396,0.0023845103569328785,-0.0023866971023380756
1783003371867515100,0.44851513671875,0.0007856697775423527,0.0003449651412665844,0.0019592088647186756
1783003371877566500,0.45856640625,-0.000053758732974529266,0.0023258239962160587,0.004052453208714724
1783003371887618300,0.468618408203125,0.0002557006664574146,0.0011897198855876923,0.002008210401982069
1783003371897670100,0.478670166015625,0.0010975259356200695,-0.0009442712180316448,0.00021377252414822578
1783003371907721200,0.48872119140625,-0.0024678735062479973,-0.000613584415987134,0.0015249219723045826
1783003371917773300,0.498773193359375,0.0005891693290323019,0.0021028397604823112,-0.00020746467635035515
1783003371927824400,0.508824462890625,0.0006779448594897985,0.0008209752850234509,0.002195292618125677
1783003371937876200,0.518876220703125,0.0025956870522350073,0.0001759575679898262,0.0006796871311962605
1783003371947927300,0.52892724609375,-0.0006942306645214558,-0.00033511221408843994,-0.00020304042845964432
1783003371957979100,0.538979248046875,0.0009920827578753233,-0.000709818908944726,0.0009690164588391781
1783003371968030200,0.5490302734375,-0.0004035648889839649,0.00023110676556825638,-0.00017806654796004295
1783003371978082300,0.559082275390625,-0.0015540504828095436,0.0010894439183175564,-0.0032918346114456654
1783003371988133000,0.569133056640625,-0.0015000500716269016,-0.0019143472891300917,0.00044042663648724556
1783003371998185500,0.579185546875,-0.00022839056327939034,-0.0006008762866258621,-0.000718314666301012
1783003372008236300,0.589236328125,0.001184556633234024,0.0010807570070028305,-0.00014624930918216705
1783003372018288400,0.599288330078125,-0.0006210664287209511,-0.0011280688922852278,-0.0006346730515360832
1783003372028339500,0.60933935546875,-0.0007685031741857529,0.0009185704402625561,0.0011123609729111195
1783003372038391300,0.619391357421875,-0.0037597655318677425,-0.0001645372249186039,0.001366958487778902
1783003372048442400,0.6294423828125,-0.00003587501123547554,-0.0038621360436081886,-0.0016570938751101494
1783003372058494200,0.639494140625,0.0008272554259747267,0.001764856744557619,-0.0004983525723218918
1783003372068545300,0.649545166015625,-0.0013400381430983543,-0.0015821377746760845,-0.000019482802599668503
1783003372078597400,0.659597412109375,0.0010983520187437534,0.00034412648528814316,0.0023227673955261707
1783003372088648200,0.669648193359375,0.002174719236791134,-0.00023894105106592178,0.001495197881013155
1783003372098700300,0.6797001953125,0.001482830150052905,-0.0016333721578121185,-0.0007344009354710579
1783003372108751400,0.68975146484375,-0.0027040643617510796,0.00036570942029356956,0.0009527294896543026
1783003372118803200,0.69980322265625,0.00011622300371527672,0.00037769367918372154,0.0003644372336566448
1783003372128854300,0.709854248046875,-0.0019435323774814606,-0.00003131106495857239,-0.002147314138710499
1783003372138906400,0.71990625,0.00000670040026307106,0.001164714340120554,0.0010932204313576221
1783003372148957200,0.729957275390625,0.0013870748225599527,-0.0015106971841305494,-0.00008709263056516647
1783003372159009300,0.74000927734375,-0.00017513567581772804,0.0018885615281760693,0.0033518471755087376
1783003372169061000,0.75006103515625,0.0015697360504418612,-0.0023992618080228567,0.0007594586350023746
1783003372179112200,0.7601123046875,0.000674115028232336,0.0012482036836445332,-0.0013766628690063953
1783003372189163300,0.770163330078125,0.00080111064016819,-0.00034250225871801376,0.0003282926045358181
1783003372199215400,0.78021533203125,0.00002400018274784088,-0.0003315834328532219,0.0001735626719892025
1783003372209267500,0.790267333984375,0.0012542589101940393,0.0000028624199330806732,0.0018151500262320042
1783003372219318300,0.800318359375,-0.000398232601583004,0.0016899751499295235,-0.0016019516624510288
1783003372229370400,0.810370361328125,0.00018783984705805779,0.0003643212839961052,0.0028149359859526157
1783003372239421400,0.82042138671875,0.00040222425013780594,0.0013440982438623905,-0.00033212127164006233
1783003372249473300,0.830473388671875,-0.000614577904343605,0.0030197096057236195,0.0006326199509203434
1783003372259524400,0.8405244140625,0.0012717389035969973,-0.0004304158501327038,-0.001640920527279377
1783003372269576200,0.850576171875,0.0010481525678187609,0.0003433274105191231,-0.0010381420142948627
1783003372279627300,0.860627197265625,-0.0013843788765370846,-0.0016846696380525827,-0.001000058837234974
1783003372289679400,0.870679443359375,0.0021822217386215925,-0.0010241791605949402,0.0022097304463386536
1783003372299730200,0.880730224609375,0.0002514298539608717,0.0022837333381175995,0.00149547029286623
1783003372309782300,0.8907822265625,-0.0013851681724190712,0.0004697013646364212,0.0014255829155445099
1783003372319833300,0.900833251953125,-0.0008328286930918694,-0.0005731924902647734,0.002766750752925873
1783003372329885200,0.91088525390625,-0.0023748758248984814,-0.0013657957315444946,0.0017276015132665634
1783003372339936300,0.920936279296875,0.002159422030672431,-0.00039773667231202126,-0.00018135225400328636
1783003372349988000,0.930988037109375,-0.0016465624794363976,-0.0017448912840336561,-0.00010532187297940254
1783003372360039200,0.9410390625,-0.0009434875100851059,0.0002737846225500107,0.0020214784890413284
1783003372370091300,0.95109130859375,0.0001490835566073656,-0.0006282548420131207,0.0018550269305706024
1783003372380142300,0.961142333984375,-0.00005198502913117409,-0.0010237342212349176,0.0002296995371580124
1783003372390194400,0.9711943359375,-0.0016170856542885303,-0.0019060538616031408,-0.0007850192487239838
1783003372400245200,0.981245361328125,0.0006964022759348154,-0.0010716854594647884,0.001157224178314209
1783003372410297300,0.99129736328125,0.0021070586517453194,-0.000060988590121269226,-0.0015711490996181965
1783003372420348400,1.001348388671875,-0.0003811325877904892,0.0032099061645567417,0.0004770886152982712
1783003372430400300,1.011400146484375,-0.002762857358902693,0.0012454795651137829,0.000660567544400692
1783003372440451300,1.021451416015625,-0.0025772349908947945,-0.001167078036814928,0.0006027771160006523
1783003372450503400,1.03150341796875,-0.00015311827883124352,-0.0005458693485707045,-0.0014049187302589417
1783003372460554200,1.04155419921875,-0.0030303974635899067,-0.0011077963281422853,0.00182256568223238
1783003372470606300,1.0516064453125,0.002142034936696291,-0.0003985106013715267,-0.00023885071277618408
1783003372480657400,1.061657470703125,0.0012903560418635607,-0.00021768221631646156,-0.0020082546398043633
1783003372490709200,1.071709228515625,0.0019379484001547098,0.00005123298615217209,-0.0004431498236954212
1783003372500760300,1.08176025390625,0.00029531074687838554,0.00024031754583120346,0.0003872234374284744
1783003372510812200,1.091812255859375,0.00012936885468661785,0.0009002899751067162,0.0007804902270436287
1783003372520863200,1.10186328125,-0.0007460121996700764,-0.004098996054381132,0.00029978901147842407
1783003372530915300,1.111915283203125,0.0003841519355773926,-0.0012892663944512606,0.002042134292423725
1783003372540966400,1.12196630859375,-0.0017564967274665833,0.0010689627379179,-0.0005110381171107292
1783003372551018200,1.132018310546875,0.001714122947305441,-0.001712185563519597,-0.00047683948650956154
1783003372561070000,1.142070068359375,-0.0007274630479514599,-0.0005363998934626579,0.0033352086320519447
1783003372571121200,1.15212109375,0.0024916655384004116,-0.0021645240485668182,0.0007581338286399841
1783003372581173200,1.16217333984375,-0.001679111272096634,-0.0021541377063840628,0.000010584481060504913
1783003372591224300,1.172224365234375,0.0010988630820065737,0.0012882361188530922,0.001972997561097145
1783003372601276400,1.1822763671875,0.00014438596554100513,0.0012669307179749012,0.0008305013179779053
1783003372611327500,1.192327392578125,0.0007444035727530718,0.0015678214840590954,0.0006357058882713318
1783003372621379300,1.20237939453125,-0.0014471118338406086,-0.0010234343353658915,-0.00047350022941827774
1783003372631430400,1.212430419921875,-0.0002402360551059246,0.0010757730342447758,-0.001401086337864399
1783003372641482200,1.222482177734375,-0.00022106105461716652,-0.0018744769040495157,-0.0041265650652348995
1783003372651533300,1.232533203125,-0.00043439166620373726,-0.0005527597386389971,-0.000006278976798057556
1783003372661585400,1.24258544921875,-0.0005595600232481956,-0.0010025675874203444,0.0005708280950784683
1783003372671636200,1.25263623046875,-0.0041684056632220745,-0.00031471624970436096,-0.0004980126395821571
1783003372681688300,1.262688232421875,0.0004308735951781273,-0.0034199622459709644,0.0002764342352747917
1783003372691739400,1.272739501953125,0.002848567208275199,0.0011366554535925388,-0.0018961611203849316
1783003372701791200,1.282791259765625,0.00015158392488956451,0.0019846060313284397,0.0014714058488607407
1783003372711842300,1.29284228515625,0.0016948857810348272,0.0023364098742604256,-0.0008737733587622643
1783003372721894100,1.30289404296875,0.0010032628197222948,0.0009526312351226807,-0.0015427595935761929
1783003372731945200,1.3129453125,-0.001169833354651928,0.003115896601229906,-0.0031163375824689865
1783003372741997300,1.322997314453125,0.002368442714214325,0.003925231751054525,0.0005966415628790855
1783003372752048000,1.333048095703125,0.001494597876444459,0.0009665163233876228,-0.00016168458387255669
1783003372762100200,1.343100341796875,0.0008943213615566492,0.00024053873494267464,-0.00009244214743375778
1783003372772151300,1.3531513671875,0.002213358413428068,-0.0027211771812289953,0.00043055973947048187
1783003372782203100,1.363203125,-0.00024180952459573746,-0.0018077129498124123,-0.0006946255452930927
1783003372792254200,1.373254150390625,-0.0016799517907202244,-0.0004651416093111038,0.002255544066429138
1783003372802306300,1.383306396484375,0.0019158481154590845,-0.0006054902914911509,0.00012900959700345993
1783003372812357000,1.393357177734375,0.0022213240154087543,-0.0008262565825134516,0.000014117918908596039
1783003372822409500,1.403409423828125,-0.0014200164005160332,-0.0009514251723885536,0.0008159950375556946
1783003372832460300,1.413460205078125,-0.0008432618342339993,0.0025016693398356438,-0.0003213426098227501
1783003372842512400,1.423512451171875,0.00010375818237662315,-0.001004115678369999,0.0028408952057361603
1783003372852563500,1.4335634765625,0.0010546331759542227,-0.001090992707759142,0.00027120020240545273
1783003372862615300,1.443615234375,0.00036593968980014324,0.0012922701425850391,-0.00020923418924212456
1783003372872665300,1.453665283203125,-0.0004667588509619236,-0.0016381118912249804,-0.00012187939137220383
1783003372882717400,1.463717529296875,0.0010573684703558683,-0.0007241151761263609,-0.0004616989754140377
1783003372892768300,1.473768310546875,0.00008366582915186882,0.0008544069714844227,0.0010917577892541885
1783003372902820400,1.4838203125,0.0000037709251046180725,-0.00046066194772720337,-0.0006736521609127522
1783003372912871400,1.493871337890625,0.00018886080943048,0.0001947418786585331,-0.0007626018486917019
1783003372922923300,1.50392333984375,-0.0001416373997926712,0.00130528025329113,0.0012281108647584915
1783003372932974300,1.513974365234375,-0.00018173269927501678,-0.001099723158404231,-0.002782103605568409
1783003372943026400,1.5240263671875,-0.0009026504121720791,0.001165295485407114,0.0018749665468931198
1783003372953078300,1.534078369140625,0.00022493209689855576,-0.0010573789477348328,0.0008027777075767517
1783003372963129300,1.54412939453125,-0.0009905346669256687,-0.00010449998080730438,0.0011918656527996063
1783003372973181200,1.55418115234375,0.0007507463451474905,-0.0015932852402329445,0.0010932683944702148
1783003372983232300,1.564232177734375,0.0003051995299756527,-0.0014103259891271591,0.0029271217063069344
1783003372993284400,1.574284423828125,0.0003320078831166029,-0.0009823122527450323,-0.00015139207243919373
1783003373003335200,1.584335205078125,-0.0012011737562716007,-0.0009325111750513315,-0.0000962642952799797
1783003373013387300,1.59438720703125,-0.0012168902903795242,-0.0011170259676873684,0.0004937388002872467
1783003373023438300,1.604438232421875,0.00030377483926713467,0.001677428837865591,-0.0018418533727526665
1783003373033490400,1.614490478515625,-0.002614243421703577,0.00017343368381261826,0.0021306462585926056
1783003373043541200,1.624541259765625,-0.0013987766578793526,0.000024829525500535965,0.0004219627007842064
1783003373053593300,1.63459326171875,-0.0015986212529242039,-0.0012394366785883904,-0.0013486137613654137
1783003373063644400,1.64464453125,-0.0017139362171292305,-0.002133992500603199,0.0000775093212723732
1783003373073696300,1.6546962890625,-0.0012312950566411018,-0.00037766387686133385,0.002301923930644989
1783003373083747300,1.664747314453125,0.00008270842954516411,0.0009416663087904453,0.0005929740145802498
1783003373093799400,1.67479931640625,0.001962274080142379,-0.001222396269440651,-0.0005984771996736526
1783003373103850200,1.684850341796875,-0.0003200550563633442,-0.000380038283765316,-0.0009745154529809952
1783003373113902300,1.69490234375,-0.0013605919666588306,-0.0016445382498204708,0.004303406924009323
1783003373123953400,1.704953369140625,-0.0016591325402259827,-0.0007217528764158487,0.0010165339335799217
1783003373134005200,1.715005126953125,-0.000035117845982313156,0.000485170166939497,0.0009417105466127396
1783003373144056300,1.725056396484375,0.0013137729838490486,0.0037944139912724495,-0.000013299286365509033
1783003373154108200,1.735108154296875,-0.00026260409504175186,-0.00013702036812901497,0.0007497379556298256
1783003373164159200,1.7451591796875,-0.0006112116388976574,-0.0018531614914536476,-0.0014335215091705322
1783003373174211300,1.75521142578125,-0.001534278504550457,-0.0018771549221128225,0.0025016432628035545
1783003373184262400,1.765262451171875,-0.00033319275826215744,0.0005926606245338917,0.00018309522420167923
1783003373194314200,1.775314208984375,0.0005237602163106203,0.001284872181713581,-0.0015486343763768673
1783003373204365300,1.785365234375,0.00011310074478387833,0.0011636982671916485,-0.0003033401444554329
1783003373214417200,1.795417236328125,0.001893219305202365,-0.00009812740609049797,0.0031550368294119835
1783003373224468200,1.80546826171875,-0.001703912392258644,-0.0017540811095386744,0.001997360959649086
1783003373234520300,1.815520263671875,0.0008317255415022373,0.00022912770509719849,-0.0008945162408053875
1783003373244571100,1.825571044921875,0.00018111523240804672,-0.0008318754844367504,0.00038699712604284286
1783003373254623500,1.83562353515625,0.00013135536573827267,-0.0016253795474767685,-0.0019668093882501125
1783003373264674300,1.84567431640625,0.0007265717722475529,-0.0012900875881314278,0.0003924854099750519
1783003373274726400,1.855726318359375,-0.00003993883728981018,0.0003891787491738796,-0.0004108678549528122
1783003373284777500,1.865777587890625,-0.0002071852795779705,-0.0009719629306346178,-0.0002827700227499008
1783003373294829300,1.875829345703125,0.0008312673307955265,0.001174096018075943,-0.00039080996066331863
1783003373304880400,1.88588037109375,-0.0014934060163795948,0.001235615462064743,0.0004635322839021683
1783003373314932200,1.89593212890625,-0.0005375691689550877,-0.0005298610776662827,0.0016042999923229218
1783003373324983300,1.9059833984375,-0.0017157518304884434,-0.0007389192469418049,-0.0019163982942700386
1783003373335035400,1.916035400390625,-0.0012319465167820454,0.002155316062271595,-0.00023256242275238037
1783003373345086500,1.92608642578125,0.004133523907512426,0.0008535627275705338,0.00015679188072681427
1783003373355138300,1.93613818359375,0.0022214828059077263,-0.00043713441118597984,0.0007392605766654015
1783003373365189400,1.946189453125,-0.0013729855418205261,-0.0009183676447719336,0.00043379608541727066
1783003373375241200,1.9562412109375,-0.00042538903653621674,-0.0010212878696620464,0.0019157631322741508
1783003373385292300,1.966292236328125,-0.002452853601425886,-0.00016641337424516678,-0.0020121331326663494
1783003373395344400,1.976344482421875,0.002032957039773464,0.001614913810044527,0.002508140169084072
1783003373405395200,1.986395263671875,0.002674246206879616,0.0006718887016177177,0.0004929257556796074
1783003373415447300,1.996447265625,0.0015247368719428778,-0.000006637070327997208,0.0008326936513185501
1783003373425499100,2.0064990234375,0.00003230152651667595,0.0013382593169808388,-0.0030278246849775314
1783003373435550200,2.01655029296875,-0.0015762653201818466,0.0022606668062508106,-0.0002504945732653141
1783003373445602300,2.026602294921875,0.0008314987644553185,0.002088626381009817,-0.000846243929117918
1783003373455653000,2.036653076171875,0.0016414353158324957,-0.00023866677656769753,0.0006772540509700775
1783003373465705500,2.04670556640625,-0.0002547353506088257,-0.0018607981037348509,-0.00005431659519672394
1783003373475756300,2.05675634765625,0.002000135602429509,-0.0004981397651135921,0.0007567759603261948
1783003373485808400,2.066808349609375,-0.001835615374147892,-0.0003633834421634674,-0.001624356023967266
1783003373495859500,2.076859375,0.002364115323871374,-0.0013810317032039165,0.001612556166946888
1783003373505911300,2.086911376953125,-0.0003680214285850525,-0.0006867456249892712,-0.00034060655161738396
1783003373515962400,2.09696240234375,0.001494040247052908,0.0008335472084581852,-0.0006414046511054039
1783003373526014200,2.10701416015625,0.0008732574060559273,0.00038720155134797096,-0.0005625751800835133
1783003373536065300,2.117065185546875,-0.0006696861237287521,0.0006995657458901405,0.0027702543884515762
1783003373546117400,2.127117431640625,-0.0004292028024792671,-0.001313251443207264,0.002812332473695278
1783003373556168200,2.137168212890625,-0.000669773668050766,-0.0027322189416736364,-0.00036526890471577644
1783003373566220300,2.14722021484375,0.00226875813677907,-0.00011699460446834564,-0.001810300163924694
1783003373576271400,2.157271240234375,0.0005961833521723747,0.002045664004981518,0.00037103984504938126
1783003373586323200,2.1673232421875,0.0001011015847325325,0.00014443369582295418,0.002432059496641159
1783003373596374300,2.177374267578125,-0.00317583279684186,0.000868622213602066,0.0004084361717104912
1783003373606426000,2.187426025390625,-0.0009704693220555782,0.0003956449218094349,-0.0016251541674137115
1783003373616477200,2.197477294921875,0.00034136371687054634,-0.0008755801245570183,0.0008008964359760284
1783003373626529300,2.207529296875,0.0009120791219174862,-0.0008670580573379993,0.0018179574981331825
1783003373636580400,2.217580322265625,-0.0016264026053249836,0.002226330805569887,-0.0006987894885241985
1783003373646632200,2.227632080078125,-0.0018999092280864716,0.0014484217390418053,0.003471720963716507
1783003373656683300,2.237683349609375,-0.00012203678488731384,0.0004952293820679188,-0.0003353683277964592
1783003373666735400,2.2477353515625,-0.0013356390409171581,0.0008158739656209946,-0.003834229428321123
1783003373676786200,2.2577861328125,-0.0014062430709600449,-0.0013193183112889528,0.0006984751671552658
1783003373686838300,2.26783837890625,-0.0002019619569182396,0.001990990713238716,-0.0004493473097681999
1783003373696889300,2.277889404296875,0.0010168494191020727,0.000331011600792408,-0.0015114722773432732
1783003373706941400,2.28794140625,0.0006053911056369543,0.002121720928698778,0.0004795072600245476
1783003373716992300,2.2979921875,0.0019021488260477781,-0.001151482341811061,0.00007137935608625412
1783003373727044400,2.30804443359375,0.00008800346404314041,-0.0020340539049357176,-0.0018197307363152504
1783003373737095400,2.318095458984375,-0.0006347512826323509,-0.00256385188549757,-0.0011452431790530682
1783003373747147300,2.328147216796875,-0.00003607245162129402,-0.0008253403939306736,-0.0020903991535305977
1783003373757198300,2.3381982421875,0.002201080322265625,0.00037004565820097923,0.0022363951429724693
1783003373767250200,2.348250244140625,0.0012311572209000587,0.000422776211053133,-0.0012163929641246796
1783003373777301200,2.35830126953125,0.0007073953747749329,-0.0025493628345429897,-0.002711875829845667
1783003373787353300,2.368353271484375,0.000039474572986364365,-0.001804210478439927,-0.0026128063909709454
1783003373797404400,2.378404296875,-0.0009395433589816093,0.000041486695408821106,-0.002013999968767166
1783003373807456300,2.388456298828125,-0.0014418154023587704,0.0007003531791269779,0.0006848480552434921
1783003373817507300,2.39850732421875,-0.00003602122887969017,0.0008306512609124184,0.0006904024630784988
1783003373827559200,2.40855908203125,0.0010082044173032045,0.0007187984883785248,0.0023660631850361824
1783003373837610200,2.4186103515625,0.00003704242408275604,-0.0012407093308866024,0.000007647089660167694
1783003373847662300,2.428662353515625,-0.0004162276163697243,0.0002895430661737919,0.0020532216876745224
1783003373857713200,2.438713134765625,-0.0020593097433447838,0.0001799645833671093,0.0011343779042363167
1783003373867765200,2.44876513671875,0.0008544547017663717,0.0018042265437543392,-0.00039747264236211777
1783003373877816800,2.45881689453125,0.000369679881259799,0.001487362664192915,-0.0009768540039658546
1783003373887869000,2.468868896484375,-0.00041355565190315247,-0.0019933886360377073,0.00004899594932794571
1783003373897920000,2.478919921875,0.0014408424030989408,0.0003054644912481308,-0.0018488997593522072
1783003373907971800,2.488971923828125,0.0009271185845136642,-0.0038013961166143417,0.002002030611038208
1783003373918023000,2.49902294921875,-0.0003553549759089947,0.0010819463059306145,0.0015279054641723633
1783003373928074800,2.50907470703125,0.00006409315392374992,0.000913368072360754,-0.000060403719544410706
1783003373938125800,2.519125732421875,-0.0006848741322755814,0.00023232540115714073,-0.0010400940664112568
1783003373948178000,2.529177978515625,0.0009913193061947823,0.002046736888587475,0.001169797033071518
1783003373958228700,2.539228759765625,0.0014648425858467817,-0.0032993704080581665,0.002511008642613888
1783003373968280800,2.54928076171875,0.0005186214111745358,0.002174756955355406,-0.0019047781825065613
1783003373978332000,2.559331787109375,0.0013666008599102497,0.00021557603031396866,-0.0012459778226912022
1783003373988383700,2.5693837890625,-0.0012904349714517593,-0.0006193248555064201,-0.0005599474534392357
1783003373998434800,2.579434814453125,0.0006287710275501013,0.0006603584624826908,0.000658220611512661
1783003374008486700,2.589486572265625,0.0024082951713353395,0.00041534751653671265,0.00015727989375591278
1783003374018537700,2.599537841796875,-0.0006272769533097744,-0.0006891295779496431,-0.0012844270095229149
1783003374028589800,2.60958984375,-0.0008786791004240513,0.0024635205045342445,0.002550259232521057
1783003374038640600,2.619640625,0.0019609378650784492,0.0022261296398937702,0.0035585109144449234
1783003374048693000,2.62969287109375,-0.00006572762504220009,-0.0017654162365943193,-0.004060792736709118
1783003374058744000,2.639744140625,-0.001522124744951725,-0.002466323086991906,0.0016174055635929108
1783003374068796000,2.6497958984375,-0.0007263720035552979,-0.002822121372446418,-0.0005813008174300194
1783003374078848000,2.659847900390625,-0.001126216258853674,0.0007817805744707584,-0.00016347086057066917
1783003374088898800,2.66989892578125,-0.0011469889432191849,0.0013881823979318142,0.0010147113353013992
1783003374098951000,2.679950927734375,0.002935495227575302,0.0034572407603263855,0.0006679603829979897
1783003374109002000,2.690001953125,0.0004014975856989622,-0.0025772154331207275,0.0015246998518705368
1783003374119053800,2.7000537109375,0.0013160307426005602,-0.0015127814840525389,-0.0024078553542494774
1783003374129105000,2.71010498046875,0.00032240524888038635,0.0023115179501473904,-0.00045975297689437866
1783003374139156700,2.72015673828125,0.002705978462472558,0.00039463862776756287,0.003404015675187111
1783003374149207800,2.730207763671875,-0.0010421546176075935,-0.00018220208585262299,0.000827406533062458
1783003374159260000,2.740260009765625,0.0008634158875793219,-0.0005425577983260155,0.0027451636269688606
1783003374169310700,2.750310791015625,0.0002737920731306076,-0.0011209964286535978,-0.000586717389523983
1783003374179362800,2.76036279296875,-0.0014645340852439404,0.0010711844079196453,0.0002496568486094475
1783003374189414000,2.770413818359375,-0.0009441524744033813,-0.0016875842120498419,0.0002139713615179062
1783003374199465700,2.7804658203125,0.0005842209793627262,-0.0017477483488619328,0.0012542149052023888
1783003374209516800,2.790516845703125,-0.0006147339008748531,0.00258627999573946,-0.0010645990259945393
1783003374219568600,2.800568603515625,-0.001888250932097435,0.00009628478437662125,0.001548750326037407
1783003374229619700,2.81061962890625,0.0004169810563325882,0.0006502224132418633,0.0022875117138028145
1783003374239672000,2.820672119140625,0.0005224575288593769,0.000674449373036623,0.0009912755340337753
1783003374249723000,2.830722900390625,0.0013416458386927843,0.0006422251462936401,-0.0007230010814964771
1783003374259775000,2.84077490234375,-0.00029320036992430687,-0.00014061667025089264,-0.0026971353217959404
1783003374269826000,2.850825927734375,0.0017529060132801533,0.0004506050609052181,-0.0010758028365671635
1783003374279878000,2.8608779296875,0.0011252649128437042,0.000980176031589508,0.0023501506075263023
1783003374289929000,2.870928955078125,-0.000669172964990139,-0.0009753829799592495,-0.0011295359581708908
1783003374299980800,2.880980712890625,-0.0004146718420088291,-0.0022784185130149126,0.002187027595937252
1783003374310032000,2.891031982421875,0.0014961464330554008,0.0022675972431898117,0.0015651797875761986
1783003374320084000,2.901083984375,0.000979116652160883,-0.0006187388207763433,0.00010244455188512802
1783003374330134800,2.911134765625,-0.0012006806209683418,0.0006880746223032475,0.0007024547085165977
1783003374340187000,2.921186767578125,0.00036150310188531876,-0.0032208936754614115,0.0006036534905433655
1783003374350238000,2.931238037109375,-0.0007096203044056892,0.0007988815195858479,0.0009823553264141083
1783003374360289800,2.941289794921875,-0.00038627907633781433,-0.0016542722005397081,-0.0033337590284645557
1783003374370340900,2.9513408203125,-0.0013415548019111156,-0.0005639740265905857,0.002572333440184593
1783003374380392700,2.961392822265625,-0.0008708974346518517,-0.0009232251904904842,0.0018618125468492508
1783003374390443800,2.97144384765625,0.0005775957833975554,-0.0004382636398077011,-0.0003917538560926914
1783003374400495900,2.981495849609375,0.0024254294112324715,-0.002845793729647994,-0.0008490774780511856
1783003374410546700,2.991546630859375,-0.0006691636517643929,-0.0008737228345125914,-0.0006594606675207615
1783003374420598800,3.001598876953125,0.0006160372868180275,-0.00017272913828492165,-0.0001689484342932701
1783003374430649900,3.01164990234375,0.0011721053160727024,0.00101051339879632,-0.0008179610595107079
1783003374440701700,3.02170166015625,-0.0002433760091662407,0.0016997139900922775,-0.0029280981980264187
1783003374450752800,3.031752685546875,-0.0007672198116779327,0.000514607410877943,0.0011132480576634407
1783003374460804900,3.041804931640625,0.0021149180829524994,0.0017623608000576496,0.0020341239869594574
1783003374470856000,3.05185595703125,0.0013143718242645264,0.0002044113352894783,-0.00042663654312491417
1783003374480908000,3.061907958984375,0.0010615445207804441,0.00005126604810357094,0.000404910184442997
1783003374490958800,3.071958740234375,0.0008666010107845068,-0.0010230529587715864,0.0023476863279938698
1783003374501011000,3.082010986328125,0.000040933024138212204,0.0013166405260562897,0.0008042827248573303
1783003374511062000,3.09206201171875,-0.0005462937988340855,-0.002223499584943056,-0.0005209064111113548
1783003374521113900,3.10211376953125,0.0000717751681804657,-0.0005942010320723057,0.0010005654767155647
1783003374531165000,3.1121650390625,0.0007287771441042423,-0.0030592228285968304,-0.00028946949169039726
1783003374541216800,3.122216796875,0.0010948129929602146,-0.001476663164794445,-0.0013880529440939426
1783003374551267800,3.132267822265625,0.0016602019313722849,0.0005002012476325035,0.0022274544462561607
1783003374561320000,3.14231982421875,-0.0005496712401509285,-0.002056903438642621,0.0006273370236158371
1783003374571370800,3.152370849609375,0.0004783088807016611,0.0009282338432967663,-0.00011222343891859055
1783003374581422800,3.1624228515625,0.0002322487998753786,0.0013197138905525208,0.0006010551005601883
1783003374591474000,3.172473876953125,0.0005473007913678885,-0.0008536919485777617,-0.0026424084790050983
1783003374601525800,3.18252587890625,-0.00039480486884713173,-0.0010072109289467335,-0.0009649754501879215
1783003374611576800,3.192576904296875,-0.0026816613972187042,0.0006466121412813663,0.0010257372632622719
1783003374621628700,3.202628662109375,-0.002560940571129322,0.0007716072723269463,0.001196049153804779
1783003374631679700,3.2126796875,0.00012219464406371117,-0.0006497215945273638,-0.0015283646062016487
1783003374641731800,3.22273193359375,0.0007647126913070679,0.0010009580291807652,-0.00023489445447921753
1783003374651782700,3.23278271484375,-0.0005114739760756493,0.0011998964473605156,-0.0015275930054485798
1783003374661835000,3.2428349609375,-0.0000634663738310337,0.002018242608755827,0.000535985454916954
1783003374671885800,3.2528857421875,0.0003541172482073307,0.003621465526521206,0.000775403343141079
1783003374681938000,3.26293798828125,-0.00041867606341838837,-0.0026924246922135353,0.0008882125839591026
1783003374691989000,3.272989013671875,0.0003011764492839575,-0.003825599793344736,0.0006184345111250877
1783003374702040800,3.283040771484375,0.00003232620656490326,-0.0018612570129334927,-0.00037825247272849083
1783003374712092000,3.293091796875,0.0021780352108180523,0.0003257310017943382,0.00033840443938970566
1783003374722144000,3.30314404296875,0.0002335328608751297,-0.0001945197582244873,-0.002041136845946312
1783003374732194800,3.31319482421875,-0.0017404020763933659,-0.0010177027434110641,-0.003419855609536171
1783003374742247000,3.323246826171875,-0.0006929691880941391,0.0004916279576718807,0.0016890838742256165
1783003374752298000,3.333298095703125,-0.00038697198033332825,-0.0016295795794576406,0.0017415480688214302
1783003374762349800,3.343349853515625,-0.00043027009814977646,0.0008761221542954445,0.0008325278759002686
1783003374772401000,3.35340087890625,-0.00007260730490088463,-0.0006117860320955515,-0.0007768208160996437
1783003374782452700,3.36345263671875,0.001416635699570179,0.00038174353539943695,-0.0014776536263525486
1783003374792503800,3.37350390625,0.0000032959505915641785,-0.001483268104493618,-0.001651558093726635
1783003374802556000,3.383555908203125,-0.0032978132367134094,0.004551491234451532,0.0018408223986625671
1783003374812606700,3.393606689453125,0.00030810688622295856,-0.00012768246233463287,-0.0016223522834479809
1783003374822658800,3.403658935546875,0.0009258640930056572,-0.0003764880821108818,-0.0002919738180935383
1783003374832710000,3.4137099609375,0.0007176047656685114,-0.001396744977682829,-0.0005865194834768772
1783003374842761700,3.42376171875,0.00026563042774796486,-0.0031808000057935715,0.0003657480701804161
1783003374852812800,3.433812744140625,-0.001369284000247717,-0.0033533729147166014,0.00025735702365636826
1783003374862864600,3.44386474609375,-0.0005661137402057648,0.0004994538612663746,0.0009844396263360977
1783003374872916000,3.453916015625,0.002132733818143606,0.0011609834618866444,0.0023389235138893127
1783003374882968000,3.463968017578125,-0.00023037707433104515,-0.001428430201485753,0.00004387367516756058
1783003374893019000,3.474018798828125,0.0025502291973680258,-0.00044439220800995827,0.0041296957060694695
1783003374903071200,3.4840712890625,0.0005142870359122753,-0.00022228900343179703,0.0005372734740376472
1783003374913122000,3.4941220703125,-0.0003586970269680023,-0.0009045910555869341,0.0012366194278001785
1783003374923174100,3.504174072265625,0.0003182596992701292,0.00024396367371082306,0.00036917906254529953
1783003374933225200,3.51422509765625,0.0012538281735032797,0.001375807449221611,-0.00025160424411296844
1783003374943277000,3.524277099609375,-0.00127685209736228,-0.005513301119208336,-0.00012986082583665848
1783003374953328000,3.534328125,0.0000864202156662941,-0.0012666245456784964,-0.0022244369611144066
1783003374963380200,3.544380126953125,0.0006963422056287527,0.0003193644806742668,-0.001806032843887806
1783003374973431000,3.55443115234375,-0.00039209192618727684,0.001553473062813282,0.0015506148338317871
1783003374983483100,3.564483154296875,-0.0005242731422185898,0.0011364873498678207,0.00006205309182405472
1783003374993534200,3.5745341796875,-0.002327765803784132,0.000265633687376976,-0.0015912377275526524
1783003375003586000,3.5845859375,-0.0010463600046932697,-0.0009157974272966385,0.0021531283855438232
1783003375013637000,3.59463720703125,-0.000655673909932375,-0.00292621785774827,-0.0016280272975564003
1783003375023689000,3.60468896484375,0.002120933262631297,-0.000687894644215703,0.000026104040443897247
1783003375033740000,3.614739990234375,-0.002273282501846552,0.0018216022290289402,0.0025065727531909943
1783003375043792100,3.624792236328125,0.0010592772159725428,-0.000921263825148344,-0.0005471496842801571
1783003375053843000,3.634843017578125,0.0009508864022791386,0.0002156393602490425,0.0001085205003619194
1783003375063895000,3.64489501953125,-0.0008626040071249008,-0.0015219585038721561,0.0017230678349733353
1783003375073946000,3.654946044921875,0.00035366183146834373,0.00036675529554486275,0.00202000979334116
1783003375083998000,3.664998046875,-0.00025962432846426964,-0.0005126181058585644,-0.00031028222292661667
1783003375094049000,3.675049072265625,-0.0015352782793343067,0.0022693201899528503,-0.0017236219719052315
1783003375104100900,3.685100830078125,0.001173520227894187,0.001710202544927597,-0.0009456458501517773
1783003375114152000,3.69515185546875,-0.0025240126997232437,0.0001192302443087101,-0.00021753739565610886
1783003375124204000,3.7052041015625,-0.0005868594162166119,0.0001358306035399437,-0.0013250033371150494
1783003375134254800,3.7152548828125,-0.0021804948337376118,-0.0039052502252161503,-0.0004988908767700195
1783003375144307200,3.72530712890625,0.001957009080797434,0.000386970117688179,-0.0017917049117386341
1783003375154358300,3.735358154296875,-0.0012180116027593613,-0.004812851548194885,0.0020309966057538986
1783003375164410000,3.74541015625,0.0006150275003165007,0.0009060748852789402,-0.00001442059874534607
1783003375174461200,3.755461181640625,0.00007893331348896027,0.0033476613461971283,0.0006132861599326134
1783003375184513000,3.765512939453125,-0.001733975950628519,0.002627696841955185,-0.0008940952830016613
1783003375194564000,3.775564208984375,0.0011968326289206743,0.004312146455049515,0.000861460343003273
1783003375204616200,3.7856162109375,-0.0003666142001748085,0.0018725860863924026,0.0038714073598384857
1783003375214667000,3.7956669921875,-0.0006622248329222202,0.0010451418347656727,0.001694805920124054
1783003375224719000,3.805718994140625,-0.0002965833991765976,-0.002139145042747259,0.002099032513797283
1783003375234770200,3.815770263671875,0.0007867903914302588,-0.0046715447679162025,-0.0003859633579850197
1783003375244822000,3.825822021484375,0.002779413014650345,-0.002602280816063285,-0.0027656410820782185
1783003375254873000,3.835873046875,0.0014776596799492836,-0.00227231509052217,-0.00016373256221413612
1783003375264925000,3.845925048828125,-0.001453210599720478,-0.001057361951097846,0.0001863846555352211
1783003375274976000,3.85597607421875,-0.0019016866572201252,0.00010910257697105408,-0.0011643702164292336
1783003375285028000,3.866028076171875,-0.0025080456398427486,0.0012995405122637749,-0.0004849294200539589
1783003375295079000,3.876078857421875,-0.0014193453826010227,0.0034953169524669647,0.0014392044395208359
1783003375305130000,3.8861298828125,0.0014572576619684696,0.0029539759270846844,0.0007798215374350548
1783003375315182000,3.89618212890625,-0.0016692932695150375,0.0015803170390427113,-0.0016785422340035439
1783003375325234000,3.90623388671875,-0.00013192510232329369,-0.0000680871307849884,0.0029814178124070168
1783003375335285000,3.916284912109375,-0.0028494144789874554,0.0011543040163815022,0.0028013885021209717
1783003375345336000,3.926336181640625,-0.00001895008608698845,-0.003221845719963312,0.0006252685561776161
1783003375355388200,3.93638818359375,0.0013461860362440348,-0.00047106645070016384,-0.0005545113235712051
1783003375365439000,3.94643896484375,-0.0017649703659117222,-0.0023468052968382835,-0.0028977468609809875
1783003375375491000,3.956490966796875,-0.0004981048405170441,-0.0007600937969982624,-0.0017826813273131847
1783003375385542100,3.966542236328125,-0.0005805897526443005,0.0015170625410974026,-0.002904187422245741
1783003375395594200,3.97659423828125,-0.00005221879109740257,0.003601785283535719,-0.00013902690261602402
1783003375405645000,3.98664501953125,0.0004935741890221834,0.001455934252589941,-0.0005001970566809177
1783003375415697200,3.996697265625,-0.0013322890736162663,0.00245701614767313,-0.001208331435918808
1783003375425748200,4.006748291015625,0.00010362686589360237,0.000980178825557232,-0.00030664075165987015
1783003375435800000,4.016800048828125,0.002076763194054365,0.0017588869668543339,-0.0006019850261509418
1783003375445851100,4.02685107421875,-0.00025168759748339653,-0.00040792301297187805,-0.0016935057938098907
1783003375455903000,4.036903076171875,-0.003562529571354389,-0.0023712054826319218,-0.00014887237921357155
1783003375465954000,4.0469541015625,0.00012276601046323776,-0.0020271996036171913,-0.0024983431212604046
1783003375476006100,4.057006103515625,-0.0002687186934053898,-0.0016828528605401516,0.0016924068331718445
1783003375486057000,4.067056884765625,-0.0010265414603054523,0.00012264354154467583,0.0011070454493165016
1783003375496109000,4.077109130859375,-0.0002289246767759323,-0.0013564762193709612,0.0020271679386496544
1783003375506160000,4.08716015625,-0.000868725124746561,-0.0014287279918789864,0.00032572634518146515
1783003375516212000,4.0972119140625,-0.0008660620078444481,0.00043894676491618156,0.001100173220038414
1783003375526263000,4.107262939453125,0.0012007923796772957,0.0008175098337233067,-0.0014567519538104534
1783003375536315000,4.11731494140625,0.0005672264378517866,-0.00006186589598655701,0.0003334246575832367
1783003375546366000,4.127365966796875,-0.0014341650530695915,0.0009683757089078426,-0.0005177273415029049
1783003375556418000,4.13741796875,-0.0027875835075974464,0.001690092496573925,-0.0029598460532724857
1783003375566468900,4.14746875,-0.00015918072313070297,-0.0016393905971199274,-0.0003028819337487221
1783003375576521200,4.157521240234375,0.0007566804997622967,0.00044692959636449814,0.0015679886564612389
1783003375586572000,4.167572021484375,-0.00029981182888150215,-0.0005947197787463665,-0.00017897924408316612
1783003375596624100,4.1776240234375,0.00033029215410351753,-0.002625912893563509,0.0018594041466712952
1783003375606675200,4.18767529296875,0.0006428321357816458,0.0008530924096703529,0.0014026369899511337
1783003375616727000,4.19772705078125,-0.0017651980742812157,0.0023157005198299885,0.0007227323949337006
1783003375626778000,4.207778076171875,0.0018790834583342075,0.0011145654134452343,0.000517088919878006
1783003375636830200,4.217830322265625,-0.00119074247777462,-0.002516654785722494,0.0015791580080986023
1783003375646881000,4.227881103515625,-0.00009733298793435097,-0.0015445123426616192,-0.0007223016582429409
1783003375656933000,4.23793310546875,-0.0026829964481294155,0.0023306533694267273,0.0005086110904812813
1783003375666984200,4.247984130859375,0.000814585480839014,-0.0016710772179067135,-0.00036603258922696114
1783003375677036000,4.2580361328125,0.00043029128573834896,-0.002352846320718527,-0.0018352982588112354
1783003375687087000,4.268087158203125,0.001619407907128334,0.0008059595711529255,0.001516575925052166
1783003375697139000,4.278138916015625,-0.0004325578920543194,-0.0017653224058449268,0.001493140123784542
1783003375707190000,4.28818994140625,0.00037192064337432384,0.001257860567420721,-0.0005655284039676189
1783003375717242000,4.2982421875,0.002746128709986806,0.002019790932536125,0.0008384902030229568
1783003375727293000,4.30829296875,0.0007865286897867918,-0.001372586702927947,0.0015384508296847343
1783003375737345000,4.318344970703125,-0.0013695666566491127,0.0008969590999186039,-0.0008115223608911037
1783003375747396000,4.32839599609375,0.0016076178289949894,-0.0003044172190129757,-0.00131698464974761
1783003375757448000,4.338447998046875,-0.000428635161370039,-0.00143572804518044,0.00011739414185285568
1783003375767499000,4.3484990234375,0.0009884326718747616,0.0000055409036576747894,0.0019814148545265198
1783003375777550800,4.35855078125,-0.0012065446935594082,-0.000988084590062499,-0.0006796158850193024
1783003375787602000,4.368601806640625,0.000440260861068964,0.0011563370935618877,-0.0006611342541873455
1783003375797654300,4.378654296875,-0.00248655304312706,-0.0009590117260813713,-0.0023112287744879723
1783003375807705000,4.388705078125,-0.0006015971302986145,0.002002822235226631,0.002141655422747135
1783003375817757200,4.398757080078125,0.0008490264881402254,0.0019740602001547813,-0.00039820093661546707
1783003375827808300,4.408808349609375,0.0012585027143359184,-0.002713032066822052,0.0016597406938672066
1783003375837860000,4.418860107421875,-0.00019798008725047112,-0.002690128982067108,-0.004662603605538607
1783003375847911200,4.4289111328125,0.0016645260620862246,-0.0004972333554178476,0.00030510034412145615
1783003375857962200,4.438962158203125,-0.0013323291204869747,-0.0008282640483230352,-0.001844070851802826
1783003375868014000,4.44901416015625,-0.001216032076627016,0.0011384482495486736,-0.0014313971623778343
1783003375878065000,4.45906494140625,-0.00009670527651906013,0.001248436514288187,0.002732454799115658
1783003375888117000,4.469116943359375,0.0021585440263152122,-0.0001369672827422619,-0.0022214390337467194
1783003375898167800,4.479167724609375,-0.001564555335789919,0.00033494504168629646,0.0031695980578660965
1783003375908220200,4.48922021484375,-0.0014734943397343159,0.0028631119057536125,0.001180216670036316
1783003375918271000,4.49927099609375,-0.000006891787052154541,-0.0005103142466396093,0.0012936675921082497
1783003375928323000,4.509322998046875,0.0000035176053643226624,-0.0016907951794564724,-0.00275670038536191
1783003375938374100,4.5193740234375,0.0015758478548377752,0.000044254120439291,0.0009315116330981255
1783003375948426000,4.529426025390625,-0.0009208959527313709,0.00033508939668536186,0.002989349886775017
1783003375958477000,4.53947705078125,0.0005923123098909855,0.00027303770184516907,0.0007501645013689995
1783003375968529000,4.54952880859375,-0.00016992120072245598,-0.00016594445332884789,-0.0009048134088516235
1783003375978580000,4.559580078125,-0.0002716542221605778,-0.0006743418052792549,-0.0015676738694310188
1783003375988632000,4.569632080078125,0.0011472764890640974,0.0025349026545882225,0.001571049913764
1783003375998683000,4.579682861328125,0.0010980081278830767,-0.00040815630927681923,-0.0005046180449426174
1783003376008735000,4.58973486328125,-0.004123045597225428,-0.0021343885455280542,-0.0004177452065050602
1783003376018786000,4.5997861328125,-0.0014311224222183228,0.0006454191170632839,0.0016030613332986832
1783003376028838000,4.609837890625,0.0024254140444099903,-0.0004000631161034107,0.000055390410125255585
1783003376038889000,4.619888916015625,0.0012040885630995035,0.0000960836187005043,-0.00010280124843120575
1783003376048940800,4.62994091796875,0.001064887037500739,0.0011260048486292362,-0.0007939431816339493
1783003376058991900,4.639991943359375,-0.0026752562262117863,0.0003978963941335678,0.000791436992585659
1783003376069044000,4.6500439453125,-0.0007431535050272942,0.00027805380523204803,0.00023277103900909424
1783003376079094800,4.6600947265625,0.0016222663689404726,-0.0024407673627138138,0.00018829572945833206
1783003376089147000,4.67014697265625,-0.0013079307973384857,0.001239946112036705,0.00019779149442911148
1783003376099198000,4.680197998046875,0.0007597473450005054,-0.0027880852576345205,-0.0019740164279937744
1783003376109250000,4.69025,-0.0012824083678424358,0.000844873022288084,-0.0008794777095317841
1783003376119301000,4.700301025390625,0.00044092326425015926,0.0005210326053202152,-0.00039052125066518784
1783003376129353000,4.71035302734375,0.0022596344351768494,0.004468383267521858,0.0010494356974959373
1783003376139404000,4.720404052734375,0.0005978220142424107,0.0005367584526538849,-0.0008264947682619095
1783003376149456100,4.7304560546875,0.0008207899518311024,0.0013842512853443623,0.0010003382340073586
1783003376159507000,4.7405068359375,0.0011062808334827423,0.0011821174994111061,-0.0006628059782087803
1783003376169559000,4.75055908203125,0.0011938170064240694,0.00018950318917632103,0.0009976169094443321
1783003376179610000,4.760610107421875,-0.0016017034649848938,0.00036580488085746765,0.001333974301815033
1783003376189662000,4.770661865234375,0.002150188200175762,0.0011711320839822292,0.00031576957553625107
1783003376199713000,4.780713134765625,-0.0013039316982030869,0.0024063060991466045,-0.00013989722356200218
1783003376209764900,4.790764892578125,0.0004442017525434494,-0.00027653761208057404,-0.0007603224366903305
1783003376219816000,4.80081591796875,0.00005777692422270775,-0.0009255502372980118,0.0017622234299778938
1783003376229867000,4.810866943359375,-0.00028435559943318367,0.0014563747681677341,0.0010549817234277725
1783003376239918800,4.8209189453125,-0.00016291532665491104,0.0034806434996426105,-0.004177863243967295
1783003376249970000,4.830969970703125,-0.003473824355751276,0.0005767731927335262,-0.0016196942888200283
1783003376260022000,4.84102197265625,0.00014328095130622387,0.0013144686818122864,-0.0008915858343243599
1783003376270072800,4.85107275390625,0.0005901514086872339,-0.0016072513535618782,0.002601747401058674
1783003376280125000,4.861125,-0.002452776301652193,0.0006545712240040302,0.0009886706247925758
1783003376290176000,4.871176025390625,0.000036214012652635574,0.0006812196224927902,-0.0011645685881376266
1783003376300227800,4.881227783203125,-0.0013291887007653713,-0.0003273193724453449,-0.002882840111851692
1783003376310279000,4.89127880859375,0.0021206089295446873,-0.0006195490714162588,-0.0018403050489723682
1783003376320330800,4.901330810546875,0.0006084658671170473,-0.00003605056554079056,0.0015357844531536102
1783003376330381800,4.9113818359375,0.0014282192569226027,-0.0012663418892771006,0.00016711372882127762
1783003376340434200,4.92143408203125,-0.00145305460318923,0.0010652556084096432,-0.0002720416523516178
1783003376350484700,4.931484619140625,0.0017903735861182213,0.0018871068023145199,-0.0023207790218293667
1783003376360537000,4.941537109375,0.0021512319799512625,-0.00004475004971027374,-0.002438490279018879
1783003376370588200,4.951588134765625,-7.832422852516174e-7,0.00031926948577165604,-0.0010837693698704243
1783003376380640000,4.961639892578125,0.00028630555607378483,0.0002931705676019192,0.001057678833603859
1783003376390691000,4.971691162109375,0.0014368866104632616,0.00164473382756114,-0.00038507627323269844
1783003376400743000,4.981742919921875,0.0017314322758466005,0.0009911940433084965,0.002261573448777199
1783003376410794000,4.9917939453125,0.0017321824561804533,0.002547863870859146,-0.002038130536675453
1783003376420846000,5.00184619140625,-0.0011307154782116413,0.002609649207442999,-0.0005217264406383038
1783003376430897000,5.01189697265625,0.0006306720897555351,0.0016294652596116066,0.0010459348559379578
1783003376440949000,5.021948974609375,-0.000676141120493412,-0.0009974767453968525,-0.0006302590481936932
1783003376451000000,5.032,-0.0013227206654846668,-0.0007158000953495502,0.0011662142351269722
1783003376461052000,5.042052001953125,0.0006642634980380535,0.00014440109953284264,-0.0012585939839482307
1783003376471103000,5.05210302734375,-0.0004168963059782982,-0.0012346375733613968,0.0019991137087345123
1783003376481154800,5.06215478515625,0.0008968410547822714,-0.00021890783682465553,-0.004822040908038616
1783003376491206000,5.072205810546875,0.001143391476944089,-0.0031451352406293154,0.0008248519152402878
1783003376501258000,5.082258056640625,-0.0007035108283162117,-0.000226577278226614,0.0002999426797032356
1783003376511308800,5.092308837890625,0.0022323625162243843,0.0006511104293167591,0.002165086567401886
1783003376521361000,5.10236083984375,-0.0015474623069167137,0.0008101011626422405,0.0009458912536501884
1783003376531412000,5.112411865234375,0.0006584604270756245,0.0018702922388911247,-0.0007172646000981331
1783003376541462800,5.122462890625,0.00007815752178430557,0.001567757222801447,0.001605011522769928
1783003376551515000,5.132514892578125,-0.0017592133954167366,0.0034502879716455936,-0.0016838135197758675
1783003376561566000,5.14256591796875,-0.00010991794988512993,-0.0010541824158281088,-0.0001895138993859291
1783003376571618000,5.1526181640625,-0.002017450984567404,-0.002213700907304883,-0.0007402342744171619
1783003376581668900,5.1626689453125,-0.0004903944209218025,0.00023321155458688736,-0.0011713998392224312
1783003376591721000,5.172720947265625,-0.0006512836553156376,-0.00018411362543702126,0.0025215493515133858
1783003376601772000,5.18277197265625,0.0023373160511255264,-0.0004826539661735296,-0.002336589153856039
1783003376611824000,5.19282421875,0.0010910483542829752,0.0002740034833550453,-0.0007246392779052258
1783003376621875000,5.202875,0.001129664247855544,-0.0015667735133320093,0.0004958873614668846
1783003376631927000,5.212927001953125,-0.0021440135315060616,0.0027537825517356396,-0.0025367671623826027
1783003376641978000,5.22297802734375,0.0008547059260308743,-0.0015512173995375633,0.000974610447883606
1783003376652030000,5.233030029296875,0.001076043350622058,-0.0003826306201517582,0.0005724122747778893
1783003376662081000,5.2430810546875,0.0011727162636816502,0.001168128103017807,0.00002300180494785309
1783003376672132900,5.2531328125,-0.0016159024089574814,-0.0002910490147769451,0.003024062141776085
1783003376682184000,5.263183837890625,0.0009026487823575735,0.0006820703856647015,0.0009428020566701889
1783003376692236000,5.273236083984375,-0.0010938607156276703,-0.0017238096334040165,-0.0007807114161550999
1783003376702286800,5.283286865234375,0.0004379895981401205,-0.0008204653859138489,-0.002283533103764057
1783003376712339000,5.2933388671875,0.0020233611576259136,-0.0015431884676218033,0.0009742248803377151
1783003376722390000,5.30339013671875,0.0009663526434451342,-0.0006534263957291842,0.0010692998766899109
1783003376732441900,5.31344189453125,-0.0003781486302614212,0.00026202062144875526,0.00035254471004009247
1783003376742493000,5.323492919921875,-0.00041516683995723724,-0.0003118906170129776,0.0015701418742537498
1783003376752544800,5.333544677734375,-0.0015514916740357876,0.001067826058715582,0.00010100379586219788
1783003376762595800,5.343595947265625,0.0024299342185258865,0.0014364076778292656,0.0007873000577092171
1783003376772647000,5.35364697265625,0.00043649831786751747,-0.002504484262317419,-0.00033405935391783714
1783003376782698800,5.36369873046875,0.0012010917998850346,-0.0002109697088599205,-0.00012233853340148926
1783003376792749800,5.373749755859375,-0.0012798923999071121,-0.0000422624871134758,0.0012243259698152542
1783003376802802200,5.38380224609375,-0.0002369987778365612,-0.00006143702194094658,0.0006861006841063499
1783003376812852700,5.393852783203125,-0.0008790846914052963,-0.0019212090410292149,-0.0021402323618531227
1783003376822905000,5.403905029296875,-0.0017488733865320683,-0.002427742350846529,-0.0009079878218472004
1783003376832956200,5.4139560546875,-0.000620206817984581,-0.0018084286712110043,0.0021433504298329353
1783003376843008000,5.424008056640625,0.0015377523377537727,-0.0008395705372095108,-0.0006308644078671932
1783003376853059000,5.43405908203125,0.0009229551069438457,0.0012635975144803524,-0.0008903448469936848
1783003376863111000,5.44411083984375,0.0012292186729609966,0.0007924842648208141,-0.0015119267627596855
1783003376873162000,5.454161865234375,-0.00048793526366353035,0.0004818621091544628,-0.00184304965659976
1783003376883213300,5.46421337890625,0.003487098729237914,-0.0016361500602215528,-0.0008832463063299656
1783003376893264400,5.474264404296875,-0.0009779124520719051,0.00370999937877059,0.00004799291491508484
1783003376903316200,5.484316162109375,0.004547880496829748,-0.001349740196019411,-0.00024175876751542091
1783003376913367300,5.4943671875,-0.0014087306335568428,0.0019905627705156803,-0.0006304294802248478
1783003376923419100,5.504419189453125,0.0007793225813657045,0.00011622998863458633,0.0021885260939598083
1783003376933470200,5.51447021484375,-0.0011412892490625381,-0.0008733149152249098,0.0009499490261077881
1783003376943522600,5.5245224609375,-0.0007202434353530407,0.0019381842575967312,-0.0006404910236597061
1783003376953573000,5.534572998046875,-0.00009171292185783386,-0.0022683891002088785,-0.0033526350744068623
1783003376963625500,5.54462548828125,-0.00039797648787498474,-0.00236772489733994,-0.00037522101774811745
1783003376973676500,5.554676513671875,-0.0004143277183175087,0.0023645544424653053,-0.0007651303894817829
1783003376983728400,5.564728271484375,0.00032043829560279846,0.000861466396600008,0.0007145218551158905
1783003376993779500,5.574779541015625,0.0008696322329342365,0.0005127205513417721,0.0006001563742756844
1783003377003830500,5.58483056640625,-0.0006481031887233257,0.00021817488595843315,0.0009455680847167969
1783003377013882400,5.59488232421875,-0.0005141366273164749,0.0005430513992905617,0.002463938668370247
1783003377023933400,5.604933349609375,0.001654475461691618,0.00012813089415431023,-0.0016788747161626816
1783003377033985300,5.6149853515625,0.0012521904427558184,-0.0030046598985791206,0.0018891077488660812
1783003377044036400,5.625036376953125,0.0017555279191583395,0.00009845523163676262,0.002428397536277771
1783003377054088400,5.63508837890625,0.0008966643363237381,0.0019320296123623848,-0.00022208085283637047
1783003377064139300,5.64513916015625,-0.0026192408986389637,0.0006683594547212124,0.0014527812600135803
1783003377074191400,5.65519140625,0.000910433940589428,0.0020606699399650097,-0.0005617751739919186
1783003377084242400,5.665242431640625,0.0013541164807975292,-0.0006520259194076061,0.0000355718657374382
1783003377094294300,5.675294189453125,-0.0006449813954532146,-0.00035061081871390343,-0.0027491524815559387
1783003377104345300,5.685345458984375,-0.0004886537790298462,0.001122117042541504,0.0022163111716508865
1783003377114397200,5.695397216796875,0.0005176872946321964,0.002297799102962017,0.00040310900658369064
1783003377124448300,5.7054482421875,-0.001508978195488453,0.000037307851016521454,0.003031649626791477
1783003377134500400,5.715500244140625,-0.0006585707888007164,-0.00043622497469186783,-0.0010010665282607079
1783003377144551200,5.72555126953125,0.0010067038238048553,0.00006285123527050018,-0.001959538087248802
1783003377154603300,5.735603271484375,0.0005494900979101658,-0.00023105088621377945,-0.0011278032325208187
1783003377164654300,5.745654296875,-0.00162231782451272,0.0021804417483508587,-0.0009312620386481285
1783003377174706400,5.75570654296875,-0.001963865477591753,0.0010200277902185917,0.0021869735792279243
1783003377184757200,5.76575732421875,-0.0018072715029120445,-0.000544845825061202,0.000030346214771270752
1783003377194808300,5.775808349609375,-0.002415231429040432,-0.0021612809505313635,0.0012210700660943985
1783003377204860400,5.7858603515625,0.0006194408051669598,0.00005526794120669365,0.00014115776866674423
1783003377214911500,5.795911376953125,0.001175898825749755,-0.001053997315466404,0.0005067642778158188
1783003377224963300,5.80596337890625,0.00022222078405320644,0.001584662590175867,-0.00002480205148458481
1783003377235014400,5.816014404296875,0.001288415165618062,0.0005833720788359642,0.0022007282823324203
1783003377245066500,5.82606640625,-0.0006421105936169624,-0.0026084263809025288,0.0008885888382792473
1783003377255117300,5.836117431640625,-0.00047549884766340256,-0.001561042619869113,-0.00035869283601641655
1783003377265169400,5.84616943359375,-0.00044673681259155273,-0.0009202859364449978,0.0003300001844763756
1783003377275220500,5.856220458984375,-0.0011748913675546646,0.001485743559896946,0.00000680144876241684
1783003377285272300,5.866272216796875,0.0001830544788390398,0.0006657564081251621,-0.0012046699412167072
1783003377295323400,5.876323486328125,0.0008666776120662689,-0.0002204333432018757,0.0018241982907056808
1783003377305375200,5.886375244140625,-0.0012073921971023083,-0.0023403095547109842,-0.002462958451360464
1783003377315426300,5.89642626953125,-0.0007508830167353153,-0.003474361263215542,0.0000796150416135788
1783003377325478400,5.906478515625,0.00007815915159881115,-0.0007779106963425875,0.0017440905794501305
1783003377335529200,5.916529296875,0.0007277289405465126,-0.0008568300399929285,0.0018092440441250801
1783003377345581300,5.926581298828125,-0.00017162039875984192,-0.000441376818343997,0.001623355783522129
1783003377355632400,5.93663232421875,-0.00028752628713846207,0.0020303684286773205,0.0013410858809947968
1783003377365684200,5.946684326171875,-0.0009900680743157864,0.00009531574323773384,-0.0010762657038867474
1783003377375735300,5.9567353515625,0.001795311225578189,-0.002664199098944664,0.00178618635982275
1783003377385786400,5.966786376953125,0.00038543366827070713,0.0008588968776166439,0.0009209252893924713
1783003377395838200,5.976838134765625,-0.0013034725561738014,0.0010957182385027409,0.0017556371167302132
1783003377405889300,5.98688916015625,-0.020859064534306526,0.2956887483596802,0.13661225140094757
1783003377415941000,5.996941162109375,0.018905919045209885,-0.02328496426343918,0.009429218247532845
1783003377425992200,6.0069921875,0.0014305214863270521,0.026218140497803688,0.0036011552438139915
1783003377436044500,6.01704443359375,-0.0028846566565334797,-0.011385658755898476,-0.0007294793613255024
1783003377446095000,6.02709521484375,-0.006359548773616552,-0.022092631086707115,-0.011274797841906548
1783003377456147500,6.0371474609375,0.002774593187496066,0.01216384582221508,-0.0030787265859544277
1783003377466198500,6.047198486328125,0.01050947792828083,-0.030894674360752106,-0.017160989344120026
1783003377476250400,6.05725048828125,0.009712407365441322,-0.07254072278738022,-0.04163714125752449
1783003377486301400,6.067301513671875,-0.006714769173413515,-0.12254849821329117,-0.05449488013982773
1783003377496353300,6.077353271484375,0.001987199764698744,-0.05601132661104202,-0.023990832269191742
