time,seconds_elapsed,z,y,x
1783003378707722500,0.093722412109375,-0.22706103518009185,-0.07204875264465808,0.021721061749616636
1783003378717774300,0.1037744140625,-0.05892857430875301,-0.043135450436547394,0.009344943246664478
1783003378727825400,0.113825439453125,0.04625204808712005,-0.004157411940395832,-0.01317874012272805
1783003378737877200,0.123877197265625,0.016679332122206687,0.029900998071208596,0.003217683404870331
1783003378747928300,0.13392822265625,-0.10085106875896453,0.041172333670035005,0.052323413023212924
1783003378757980400,0.14398046875,-0.18821371039152143,0.024757278507202864,0.057698146597808225
1783003378768031200,0.15403125,-0.15147884771227835,0.008512136551178991,0.028000452546356244
1783003378778083300,0.164083251953125,-0.04938157828450203,-0.005557816790230572,-0.006014556714938953
1783003378788134400,0.174134521484375,-0.0030167174726724623,-0.01897310561519116,-0.03716455933339893
1783003378798185500,0.184185546875,-0.03838905962705612,-0.008585055656917393,-0.04467725478475913
1783003378808237300,0.1942373046875,-0.10829904667735099,-0.0015063129097223282,-0.018793008941086008
1783003378818288400,0.204288330078125,-0.15122165808081625,0.00997950569000095,-0.004372305933246389
1783003378828340500,0.214340576171875,-0.11347557253241539,0.020938122077845036,0.0035792832588776944
1783003378838391300,0.224391357421875,-0.045233226433396334,0.02232424267400056,0.0015175010240171104
1783003378848443400,0.234443359375,-0.031499884635210036,0.005930668690614402,0.006200069349678233
1783003378858494500,0.244494384765625,-0.07477262465059757,-0.02135853944700211,0.01806934344219044
1783003378868546600,0.254546630859375,-0.10814707098603248,-0.0380034213103354,0.024120359709998592
1783003378878601500,0.2646015625,-0.11979016250669955,-0.04143262857403606,0.018317025459790602
1783003378888653600,0.274653564453125,-0.07921206840276718,-0.02123330563213676,0.007195619725668802
1783003378898704600,0.28470458984375,-0.04419570007920265,-0.005703070479817688,0.0005927599950693547
1783003378908755500,0.29475537109375,-0.07174947743713855,0.011112455242685972,-0.011230419066548347
1783003378918807600,0.3048076171875,-0.10079261656999587,0.01821545564830303,-0.008291196410031988
1783003378928858600,0.314858642578125,-0.11155834073424338,0.018070201958715913,0.004879661800339817
1783003378938910500,0.324910400390625,-0.09268179082870483,0.012706263772770761,-0.0014977551439311354
1783003378948961500,0.33496142578125,-0.06918401086330414,0.006490859856642783,-0.018691439129598437
1783003378959013400,0.345013427734375,-0.05962006370425224,0.0018260098507627844,-0.009088255938701332
1783003378969064400,0.355064453125,-0.06936462812721729,-0.0026091230524703858,0.0037019141247030345
1783003378979116500,0.365116455078125,-0.09600479777157306,-0.0014457783615216611,0.003829650423908606
1783003378989167400,0.37516748046875,-0.09374854327738284,-0.0010785159517079591,-0.0033378300526645034
1783003378999219700,0.3852197265625,-0.07504033567607403,0.0008453647829592228,0.005175429876521229
1783003379009270500,0.3952705078125,-0.07608779890239238,-0.006820055278390646,-0.0036395438124425705
1783003379019322600,0.405322509765625,-0.07340484342873096,-0.008282346383295953,0.006157134390249848
1783003379029373700,0.415373779296875,-0.07894377285540104,-0.016200572161935267,0.013100761249382049
1783003379039424800,0.4254248046875,-0.09809212543964385,-0.014481310621276496,0.02013914458672516
1783003379049476600,0.4354765625,-0.08955752132833003,-0.004507138693518937,0.021661148255923763
1783003379059527700,0.445527587890625,-0.07968260852396487,0.0019756109219044448,0.013211774742649868
1783003379069579500,0.45557958984375,-0.07445113761126995,0.008820837174169718,0.002850530592910945
1783003379079630600,0.465630615234375,-0.0758037212640047,0.009350560136698187,-0.0034518209543079135
1783003379089682700,0.4756826171875,-0.07460252878069877,0.006996909682638943,-0.002995820815116167
1783003379099733500,0.4857333984375,-0.08746727105081081,-0.0014601722130551933,-0.015554739405913278
1783003379109785600,0.49578564453125,-0.08237900800108909,-0.004882584409788251,-0.014416730085620656
1783003379119836700,0.505836669921875,-0.07206219664812087,0.005171667016856372,-0.011706201618444174
1783003379129887500,0.515887451171875,-0.08029811007380486,0.0037636633824557064,-0.010907151062088087
1783003379139939600,0.525939697265625,-0.08523848908543587,-0.011599361976794897,-0.0067983183706179255
1783003379149990700,0.53599072265625,-0.07924597067236899,-0.004732654545083642,0.013167314546415582
1783003379160042500,0.54604248046875,-0.07654547954201697,0.0007892872141674161,0.015702924838103354
1783003379170093600,0.556093505859375,-0.07699439235329628,-0.008481631815060973,0.008360526186041533
1783003379180145400,0.5661455078125,-0.07998129920959472,0.0022719635199755428,0.009838708979822695
1783003379190196500,0.576196533203125,-0.07878127577006816,-0.004500270561315119,0.01627461464568041
1783003379200248600,0.58624853515625,-0.07473404620587826,0.0041638051485642785,0.0009533734683878719
1783003379210299400,0.59629931640625,-0.07159224104881286,0.0022715616611763832,-0.004478990311268717
1783003379220351500,0.6063515625,-0.07472995455265044,-0.0032387627255171534,-0.005338264888571575
1783003379230402600,0.616402587890625,-0.08474865974187851,0.0019508418068289756,-0.0064409654334653165
1783003379240454400,0.626454345703125,-0.08429448623359202,0.01257569619566202,-0.00827892145034857
1783003379250505500,0.63650537109375,-0.07786240735948086,0.017407938657701013,-0.008946207986352964
1783003379260556500,0.646556640625,-0.08175298505723476,0.004643003500252962,0.0008038819951005279
1783003379270608400,0.6566083984375,-0.08908756572902202,-0.011181319227814674,0.0027602128277998414
1783003379280659500,0.666659423828125,-0.07292085930407047,-0.0233715597698465,0.016184634807286782
1783003379290711600,0.676711669921875,-0.07531389192044735,-0.01908920627553016,0.013536750647006556
1783003379300762600,0.6867626953125,-0.08578443253040313,-0.008996851328201591,0.004202748919464648
1783003379310814700,0.696814697265625,-0.07769991027414798,0.006759447664953768,0.007514814343210309
1783003379320865500,0.706865478515625,-0.072300681579113,0.018629041417874394,0.004039375051297247
1783003379330917600,0.716917724609375,-0.07991992441117764,0.016517821417562664,-0.00034905089968815443
1783003379340968700,0.72696875,-0.07962415633499621,-0.0001591360844671726,-0.013577073524240403
1783003379351020500,0.7370205078125,-0.0760346074104309,-0.01251223903801292,-0.010215798663906752
1783003379361071600,0.747071533203125,-0.08800561571121215,-0.01999843007493764,-0.010077477038605138
1783003379371122700,0.757122802734375,-0.09100362848341464,-0.02151752940099686,-0.0034083197392988946
1783003379381174500,0.767174560546875,-0.07918693396151065,-0.0037490138025954366,0.001466528888605535
1783003379391225600,0.7772255859375,-0.07769114244580268,0.01421703366190195,0.011011661749333143
1783003379401277400,0.78727734375,-0.0880167216271162,0.010328392192907631,0.017742394776456057
1783003379411328500,0.79732861328125,-0.08726035030186176,0.016721929154917596,0.001085840741638094
1783003379421380600,0.807380615234375,-0.07708557776808739,0.006576200052537023,-0.0035336357525549826
1783003379431431400,0.817431396484375,-0.08950316079258919,-0.0033719971837475895,-0.004757907717349007
1783003379441483500,0.8274833984375,-0.07618190692663192,-0.014086210356466471,-0.018502802956011144
1783003379451534600,0.83753466796875,-0.07947977942824364,-0.014080657398514449,-0.01658163476823829
1783003379461586400,0.84758642578125,-0.08172200539708137,-0.014635624400153755,-0.0068312799253035334
1783003379471637500,0.857637451171875,-0.07812778029739856,-0.005123224765248596,0.002465787325333804
1783003379481688600,0.8676884765625,-0.08081658098995685,0.009289002675190568,-0.001633208958711475
1783003379491740400,0.877740478515625,-0.09010229572951793,0.016522278396971523,0.007002480906900018
1783003379501791500,0.88779150390625,-0.07094400627315044,0.008607230956107378,0.008481421752506867
1783003379511843300,0.89784326171875,-0.07139350360631942,-0.006476648668199777,-0.0003271769945975393
1783003379521894400,0.907894287109375,-0.0754378105610609,-0.01880425185430795,0.005429084977181628
1783003379531946800,0.91794677734375,-0.09070376875400543,-0.007782032178342342,0.010909260820783674
1783003379541997300,0.927997314453125,-0.07858896806836128,-0.009813136147148906,0.006492467291839421
1783003379552049700,0.938049560546875,-0.08382160802483558,0.00763005648702383,0.004160462414007634
1783003379562100700,0.948100830078125,-0.08591302734613418,0.017438114600256086,0.000991677918471396
1783003379572152600,0.958152587890625,-0.07872574619054794,0.008006926975399255,-0.002260053886473179
1783003379582203600,0.96820361328125,-0.07498714418411255,0.010406791191361843,-0.0029333591713104393
1783003379592254700,0.978254638671875,-0.08845862017571926,-0.007887282651104032,-0.015782675543427466
1783003379602306600,0.988306640625,-0.08247779220044613,-0.016428718362003564,0.0033731114285998043
1783003379612357600,0.998357666015625,-0.08008943575918674,-0.013140782732516527,0.01082811274281703
1783003379622409500,1.008409423828125,-0.08442951079010963,-0.008906213902682066,0.014666731924470513
1783003379632460500,1.01846044921875,-0.07784720979034901,0.0023194193908944723,0.0174993250018917
1783003379642512600,1.0285126953125,-0.08129121276438235,0.000552080924808979,0.010942542035877703
1783003379652563500,1.0385634765625,-0.08518237498402595,-0.00573339255284518,0.0200003571705427
1783003379662615600,1.048615478515625,-0.08024316501617432,0.00544708642475307,0.013520356634631752
1783003379672666600,1.05866650390625,-0.08487783907949924,0.007458024388365447,0.011806328391516581
1783003379682717400,1.068717529296875,-0.07380991709828376,0.010909662679582833,-0.0035130587554071096
1783003379692769500,1.07876953125,-0.07096680262684822,0.004780402676947414,-0.014264105940330772
1783003379702820600,1.088820556640625,-0.07470891176462173,-0.0008904460337013006,-0.01445205712732859
1783003379712872400,1.09887255859375,-0.08114742037951946,-0.008736483358964323,-0.02684484363729134
1783003379722923500,1.108923583984375,-0.08129647346138953,-0.010851539284177123,-0.01921007444253191
1783003379732975400,1.118975341796875,-0.0815986712783575,-0.006756853849068284,-0.008811859283270313
1783003379743026400,1.1290263671875,-0.08848317009508609,-0.004045658661611378,0.0021690146021544933
1783003379753078500,1.13907861328125,-0.08234569025337696,0.0002183554584160447,0.013972895308258012
1783003379763129600,1.149129638671875,-0.08863222317695617,-0.012293737449124455,0.02548799480139278
1783003379773180400,1.159180419921875,-0.08908113598823547,-0.0060184565719217055,0.03612823855560273
1783003379783232500,1.169232421875,-0.08653788124620913,-0.0014674422040581703,0.01770737826200202
1783003379793283600,1.17928369140625,-0.08174187914133071,0.0030014468383044004,0.00724846415775828
1783003379803335400,1.18933544921875,-0.08383096037507057,-0.0047624286288395525,0.004511486075073481
1783003379813386500,1.199386474609375,-0.0782961226016283,-0.00859550398569554,-0.012079290980845689
1783003379823438600,1.2094384765625,-0.07799626287221909,-0.00184825821518898,-0.01858410629760474
1783003379833489700,1.21948974609375,-0.08068681713044643,0.0032875703033059833,-0.022085173221118748
1783003379843541500,1.22954150390625,-0.0829366418838501,-0.001546973713673651,-0.012799769008811563
1783003379853592600,1.239592529296875,-0.08083703925609588,0.004739559209905564,-0.002443904287088662
1783003379863644700,1.249644775390625,-0.08607201730012894,0.0014963395049795508,0.00955544419218786
1783003379873695500,1.259695556640625,-0.09130757986605167,0.0022189181584864855,0.018192878490313886
1783003379883742500,1.269742431640625,-0.08772504520416259,0.0012502557894214987,0.010369527920894324
1783003379893794600,1.279794677734375,-0.08308218783438205,-0.0036453342324122783,0.0031671496608760208
1783003379903845600,1.289845703125,-0.07723930702507495,0.004416318604908883,-0.004827045697113499
1783003379913897500,1.2998974609375,-0.08771393928825855,0.002927212558314204,-0.006752314671268686
1783003379923948500,1.309948486328125,-0.07469605228304863,0.01176901945527643,-0.01539138380405493
1783003379934000400,1.32000048828125,-0.07709317655265331,0.007059818851016461,-0.0024158289700746535
1783003379944051500,1.330051513671875,-0.0782832631200552,0.0002306669507175684,-0.0012370035822037607
1783003379954103600,1.340103515625,-0.08831190518140793,-0.0027324206385761496,0.0034873397922609
1783003379964154400,1.350154296875,-0.07723989154696465,-0.0061895388225093485,0.013173643822502345
1783003379974205400,1.360205322265625,-0.07739128271639346,-0.007811148674972355,0.01430370729835704
1783003379984257500,1.370257568359375,-0.08292553596794605,-0.02027304576523602,0.013942573235230519
1783003379994308400,1.380308349609375,-0.07843406976759433,-0.014049129749089478,0.013655682585248723
1783003380004360400,1.3903603515625,-0.07514496509432793,-0.01663845212254673,0.020445589320547877
1783003380014411500,1.40041162109375,-0.07559212433993816,-0.008723258551210164,-0.0009470989912282675
1783003380024463400,1.41046337890625,-0.08052548908889293,-0.0010017974536865948,-0.0023581439660862085
1783003380034514400,1.420514404296875,-0.08186930491328238,0.013436587341316043,-0.012361578520946204
1783003380044566300,1.430566162109375,-0.07482990779578685,0.02085592368710786,-0.021018630834994837
1783003380054617300,1.440617431640625,-0.0709457598388195,0.014302045064233243,-0.0047173473780974745
1783003380064669700,1.450669677734375,-0.0740957483023405,0.00021912264339625834,-0.013048702268581836
1783003380074720300,1.46072021484375,-0.08292962762117385,-0.0023791867541149256,-0.008446496569598094
1783003380084771300,1.470771240234375,-0.07380991709828376,-0.020772337056882677,0.017377744448836892
1783003380094823700,1.48082373046875,-0.07875088063180447,-0.021752507200650868,0.011348821281827985
1783003380104874500,1.49087451171875,-0.08128887467682361,-0.019354140822030602,0.017829771665809676
1783003380114926600,1.500926513671875,-0.08068857069611549,-0.009320859118178487,0.024284455097373574
1783003380124977700,1.510977783203125,-0.07784545622467995,-0.002408412848599255,0.016807945204246787
1783003380135029500,1.521029541015625,-0.07829670712351798,0.0016049144459888338,0.004722297547850757
1783003380145080600,1.53108056640625,-0.07874561993479728,-0.0034490444753319024,-0.008757380016520619
1783003380155132400,1.54113232421875,-0.08936521362662316,0.007078194757923484,-0.023879299229430034
1783003380165183500,1.55118359375,-0.08981821809113025,0.012582345132157205,-0.022996333249285815
1783003380175234600,1.561234619140625,-0.08353285421133042,0.004574468308687209,-0.0282955082364846
1783003380185286400,1.571286376953125,-0.07859773589670657,0.0035065833488479256,-0.027947882108902557
1783003380195337500,1.58133740234375,-0.08488134621083736,-0.0016920082075521348,0.0055964043681044125
1783003380205389600,1.5913896484375,-0.08817688062489032,-0.007875957539491356,0.012785283825732767
1783003380215440400,1.6014404296875,-0.07890460988879203,-0.011612842512875794,0.019891937493160365
1783003380225492500,1.611492431640625,-0.08234744381904602,-0.005867101935110986,0.027447942363284527
1783003380235543600,1.62154345703125,-0.07980418907701968,-0.0022227540833875538,0.0315106160917785
1783003380245595400,1.631595458984375,-0.08055354613959789,-0.006782974671013653,0.008914552472764625
1783003380255646500,1.641646484375,-0.08205167574286461,-0.012220964473858474,-0.01108080886225216
1783003380265697500,1.651697509765625,-0.08504793494939804,-0.01211790595818311,-0.008957569630583747
1783003380275749400,1.661749267578125,-0.08355565056502819,-0.006039353229478002,-0.01397352549592033
1783003380285800400,1.671800537109375,-0.07817512657046317,0.0017771292077377438,-0.012141049371752886
1783003380295852500,1.6818525390625,-0.07907412123680115,0.019779526627250014,-0.005646673250617459
1783003380305903400,1.6919033203125,-0.08506371704041957,0.021948979620821773,0.004093077999912202
1783003380315955500,1.70195556640625,-0.07997486946880816,0.01890080756396055,0.018716856698645278
1783003380326006500,1.712006591796875,-0.0814724145501852,0.004376680714264512,0.015683087626472116
1783003380336058600,1.72205859375,-0.08311667462587356,-0.01989054925367236,0.00826990702683106
1783003380346109400,1.732109375,-0.0789279907643795,-0.022723544189892707,-0.003434029569290578
1783003380356160500,1.742160400390625,-0.07129588845074177,-0.01760733368732035,-0.0023710765128955244
1783003380366212600,1.752212646484375,-0.08072071940004825,-0.011494696025922894,0.0029918478928972034
1783003380376263400,1.762263427734375,-0.08894786499738692,-0.0022962577110156417,0.002380748523538932
1783003380386315500,1.7723154296875,-0.09133972856998443,0.006019114159047603,0.005838780022924765
1783003380396366600,1.78236669921875,-0.08894611143171786,0.019491539998725056,0.006258485006028786
1783003380406418700,1.792418701171875,-0.08655600142478942,0.013013978015072643,-0.008416841216851025
1783003380416469500,1.802469482421875,-0.08027823632955551,0.0010706614388152956,-0.0006765292883850634
1783003380426520600,1.8125205078125,-0.0807318253159523,0.0004306830348446965,-0.013055908327503129
1783003380436572700,1.82257275390625,-0.08551847507059573,-0.012041041329689323,-0.0063233121368568386
1783003380446623500,1.83262353515625,-0.07758534398376941,-0.012857435746490955,-0.006485425629699603
1783003380456675600,1.842675537109375,-0.07443769360780715,-0.016106500670313835,0.0031946221896912903
1783003380466726700,1.8527265625,-0.07697977930605411,-0.008814663161709905,-0.002873811003798619
1783003380476778500,1.862778564453125,-0.07668050409853458,-0.006288578750193119,0.009891169819422065
1783003380486829600,1.87282958984375,-0.08640344121158122,0.0008048501094803214,0.021309129081014542
1783003380496881400,1.88288134765625,-0.08460895901024341,0.0011523483728989958,0.01925207782019861
1783003380506932500,1.892932373046875,-0.07982172473371028,-0.0058325420783832665,0.011523830788861959
1783003380516983600,1.902983642578125,-0.08071662774682045,-0.0024590835899114608,0.0021900573901832104
1783003380527035400,1.913035400390625,-0.08026713041365147,-0.007106617134809493,-0.0052771184190176425
1783003380537086500,1.92308642578125,-0.07683014170229434,-0.0023352014819160104,-0.010223433981090784
1783003380547138600,1.933138671875,-0.0853629922479391,0.0013453501943498849,-0.008400310207158326
1783003380557189400,1.943189453125,-0.07235036593973636,0.0038712884753942488,-0.004162928365729749
1783003380567241500,1.953241455078125,-0.0828232446372509,-0.008761763930693268,0.008185845472570508
1783003380577292500,1.96329248046875,-0.08237433182597159,-0.005183101726323366,0.0021249197321012614
1783003380587344400,1.973344482421875,-0.08013269037902354,0.0020442922439426183,0.00813478200561367
1783003380597395500,1.9833955078125,-0.07234744333028793,-0.005223908660747111,0.002567074009031057
1783003380607446500,1.993446533203125,-0.07264847210347652,-0.013238726681657135,0.0009717037095222622
1783003380617498400,2.003498291015625,-0.07594576008319855,-0.010393310655280947,0.002791767876688391
1783003380627549400,2.013549560546875,-0.0795376470953226,-0.015207250275649129,0.0007080204051919281
1783003380637601500,2.0236015625,-0.07953238639831542,-0.010856178926676511,-0.004388352885749191
1783003380647652400,2.03365234375,-0.07623802102804184,0.0008832491079345345,-0.0020614899739157407
1783003380657704700,2.04370458984375,-0.083716394084692,0.01754628768246621,0.0009679591161664574
1783003380667755500,2.053755615234375,-0.08297171319723129,0.021212518572434783,0.006876936564780771
1783003380677807600,2.0638076171875,-0.08043079654276371,0.006167326990701258,0.011783888230845332
1783003380687858700,2.073858642578125,-0.07953706257343292,0.005374167319014668,0.009930460650194435
1783003380697909500,2.083909423828125,-0.08088146291971206,-0.0023320231441408394,-0.002651446090545505
1783003380707961600,2.093961669921875,-0.08177870402038097,-0.002605323660187423,-0.007036511040665209
1783003380718012700,2.1040126953125,-0.08042904297709465,-0.018683438486233352,-0.004389275334356352
1783003380728064500,2.114064453125,-0.08955635228455067,-0.012863609758950768,-0.006382467578724026
1783003380738115600,2.124115478515625,-0.0892582461208105,-0.01062226057294756,0.0011373060673940925
1783003380748167400,2.13416748046875,-0.07758475946187973,0.0019237346041947603,0.004982912112260237
1783003380758218500,2.144218505859375,-0.08730594300925731,0.006721563339978456,0.00768895620056428
1783003380768270600,2.1542705078125,-0.07473696881532668,0.005095679171197116,0.010066097128065303
1783003380778321400,2.1643212890625,-0.07219137598574162,-0.007649126513674854,0.007488446926092729
1783003380788372500,2.17437255859375,-0.08251637064516544,-0.0178290866792202,-0.0003495440900325775
1783003380798424600,2.184424560546875,-0.09014847295880317,-0.014400098611228167,0.004512618586234748
1783003380808475400,2.194475341796875,-0.08311784366965293,-0.0015916896382346748,0.0048726201381999994
1783003380818527500,2.204527587890625,-0.08281973750591277,0.006383965416066348,-0.006417182699078694
1783003380828578600,2.21457861328125,-0.07129647297263145,0.010883541857637465,-0.0043442214830778534
1783003380838630400,2.22463037109375,-0.08146949194073677,0.014569573426619171,-0.005043245731061324
1783003380848681500,2.234681396484375,-0.0959767407208681,0.015084171885251999,-0.017859801477892324
1783003380858732500,2.244732666015625,-0.09283025938868522,0.0036615181822329756,-0.025417084989650174
1783003380868784400,2.254784423828125,-0.0823521199941635,0.0062895651308819646,-0.018577292964328078
1783003380878836000,2.2648359375,-0.07786240735948086,-0.001091740759462118,-0.020059850539127365
1783003380888887800,2.2748876953125,-0.08220832760930061,-0.013843560707010328,-0.001988105077296495
1783003380898939000,2.28493896484375,-0.08535422441959381,-0.017088241716660558,0.011435969842318445
1783003380908991000,2.294990966796875,-0.07907470575869083,-0.004367255298793316,0.020582166513334957
1783003380919042000,2.3050419921875,-0.07891980745792389,-0.0016274550713598727,0.02820364696825854
1783003380929094100,2.31509423828125,-0.0789145467609167,-0.006194361128099263,0.024265951326303183
1783003380939145200,2.325145263671875,-0.07547755804955959,-0.010090528316423297,0.017168467346020042
1783003380949196000,2.335196044921875,-0.07382686823308468,-0.01570986603554338,0.0008768650329206138
1783003380959248100,2.345248046875,-0.08743453782498836,-0.02354384759683162,-0.0049385797801893205
1783003380969299200,2.35529931640625,-0.08548398827910422,-0.014225034305267035,-0.009446339528216049
1783003380979351000,2.36535107421875,-0.08188976317942143,-0.005611519738845527,-0.01689896622225642
1783003380989402000,2.375402099609375,-0.0815945796251297,0.006866378638148307,-0.009920724707469344
1783003380999454000,2.385453857421875,-0.07411854465603827,0.016110153932124376,0.0006921013168524951
1783003381009505000,2.395505126953125,-0.08624678934514522,0.023132271121256053,0.0024357575132511553
1783003381019556000,2.40555615234375,-0.08341185818016529,0.013449483355507254,0.0038257140343077476
1783003381029608000,2.41560791015625,-0.08805530007183551,0.006989749289490282,0.006512459767097607
1783003381039659000,2.425658935546875,-0.0853589005947113,0.0032000746829435227,0.0055905134834349154
1783003381049711000,2.435711181640625,-0.08041618349552154,-0.008712737157195807,0.002085902895964682
1783003381059762000,2.445761962890625,-0.08475684304833411,-0.01214862989000976,0.00471164828967303
1783003381069814000,2.45581396484375,-0.08430500762760638,-0.02223696624934673,0.0027926903252955527
1783003381079865000,2.465864990234375,-0.08070669087469577,-0.007410276256501674,-0.000308664090372622
1783003381089916000,2.475916015625,-0.08264262737333775,0.00641786768566817,-0.0015910685837268828
1783003381099968000,2.485968017578125,-0.0754553462177515,-0.010492679376527666,-0.005275794111611321
1783003381110019000,2.49601904296875,-0.08308627948760985,-0.003647635787352919,0.0014083324279636144
1783003381120071000,2.50607080078125,-0.08383739011585711,-0.003572853518091142,0.0019839129593688994
1783003381130122000,2.5161220703125,-0.08878069173693656,-0.0010519932709634303,0.006575378068629652
1783003381140173800,2.526173828125,-0.07785773118436336,0.010216602381505072,0.012492712353635579
1783003381150225000,2.536224853515625,-0.08788052802681923,0.008980119389109312,-0.0033554844403639434
1783003381160277000,2.546277099609375,-0.08668868789374828,0.0033930765043944117,-0.002446041445247829
1783003381170327800,2.556327880859375,-0.08624678934514522,0.0023643545111641288,-0.00961093723908998
1783003381180379000,2.56637890625,-0.08459960666000843,-0.006827873258665204,-0.0066920358513947575
1783003381190431200,2.57643115234375,-0.08146013959050179,-0.006875219531729817,0.00457544555622153
1783003381200481800,2.586481689453125,-0.08026245423853397,-0.004642820837162435,0.008769426647340879
1783003381210534100,2.5965341796875,-0.0835550660431385,0.0004554521499201655,0.011172350470069795
1783003381220585200,2.606585205078125,-0.08116027986109256,-0.00779828919339925,0.015937966569839045
1783003381230637000,2.616636962890625,-0.08146656933128833,-0.0022156667554751037,0.02032620985773392
1783003381240688000,2.626688232421875,-0.08011983089745044,-0.005636398451775312,0.005709637217922136
1783003381250739200,2.6367392578125,-0.08475625852644443,0.0009152882140129804,0.0019179715836886316
1783003381260791000,2.646791015625,-0.07682078935205935,-0.0008467895550653338,-0.0037224545892328023
1783003381270842000,2.656842041015625,-0.07398118201196194,0.006732230864465236,-0.0035775844921357926
1783003381280894000,2.66689404296875,-0.09103869979679584,0.010924677585624157,-0.0007542798328679055
1783003381290945000,2.676945068359375,-0.08281155419945717,0.010399996124394238,-0.006718394135357812
1783003381300997000,2.6869970703125,-0.08251695516705512,0.0037891631498932835,-0.006002564883045852
1783003381311048000,2.6970478515625,-0.08431962067484855,-0.003714453945867717,0.012177938182884826
1783003381321100000,2.70710009765625,-0.08431611354351043,-0.010825126201286912,0.008940965555654838
1783003381331151000,2.717151123046875,-0.08700432971417904,-0.007057298100367188,0.007056247787596657
1783003381341202000,2.727201904296875,-0.07832301060855389,-0.007130399869196117,0.00793023587684147
1783003381351254000,2.73725390625,-0.08236322591006755,-0.005152268196642398,-0.009873204904468729
1783003381361305000,2.74730517578125,-0.08295885371565818,-0.0036833281552419066,-0.006284505363274366
1783003381371357000,2.75735693359375,-0.08415829263329505,-0.013484079744853078,-0.0019898221103474495
1783003381381408000,2.767407958984375,-0.07682721909284591,-0.0038685850616544484,0.0033654852445703
1783003381391459800,2.7774599609375,-0.07892389911115169,0.00828355195969343,-0.000549003051733598
1783003381401511000,2.787510986328125,-0.07398410462141036,0.013909575147926807,-0.0007654405476991087
1783003381411562000,2.79756201171875,-0.07967559426128863,0.011817827033065258,0.0023057105259504168
1783003381421613800,2.80761376953125,-0.07293956400454044,0.003682670568116009,0.01040311966324225
1783003381431665000,2.817664794921875,-0.07593348512351512,0.0005739274304360151,0.004408865950815379
1783003381441717000,2.827717041015625,-0.08087094152569771,-0.008857187129184603,-0.005994116715108975
1783003381451767800,2.837767822265625,-0.08042436680197715,-0.015107114369422197,0.0042332810550462455
1783003381461820000,2.84781982421875,-0.07608195368349552,-0.005908602989278733,-0.002819523533293977
1783003381471871000,2.85787109375,-0.08266250111758708,-0.0007784004939720034,0.0001144201599061489
1783003381481921800,2.867921875,-0.08176584453880786,0.006288432619720697,0.014469063061056657
1783003381491974100,2.87797412109375,-0.08849719862043857,-0.004110175265185535,0.007738430498633533
1783003381502025000,2.88802490234375,-0.08550444654524327,0.0055948243323713535,-0.006266604380402714
1783003381512077000,2.8980771484375,-0.07995967189967632,-0.006620550650916993,0.0032045499286614356
1783003381522128100,2.908128173828125,-0.0821995597809553,-0.009705839847773312,0.005111488661682233
1783003381532180000,2.918179931640625,-0.0771107122093439,-0.006710713152401149,-0.006408095210324973
1783003381542231000,2.92823095703125,-0.08489303664863108,-0.0022031360674649478,-0.002580846806056797
1783003381552283100,2.938283203125,-0.08369652034044266,-0.0029744857661426066,0.020489492394356056
1783003381562334000,2.948333984375,-0.08533902685046195,0.015172032831795513,0.009781243171542883
1783003381572385000,2.958385009765625,-0.07890402536690234,0.008569894620403647,0.01488894157409668
1783003381582437000,2.96843701171875,-0.0750111095815897,0.008108670316822827,0.011587918134173378
1783003381592488000,2.978488037109375,-0.08532967450022697,-0.0029490955965593454,0.0024805008372757583
1783003381602540000,2.9885400390625,-0.0796428610354662,-0.008968721212260425,0.003938965150434523
1783003381612591000,2.998591064453125,-0.07829846068918704,-0.013251147771812974,-0.00002056786399334669
1783003381622642000,3.008641845703125,-0.08593114752471447,-0.009481785300932823,-0.004184427811484784
1783003381632694000,3.018694091796875,-0.08982815496325493,0.005810366779193282,0.002123230098513886
1783003381642745000,3.0287451171875,-0.08279635663032531,0.01170658521093428,-0.001532214535959065
1783003381652797000,3.038796875,-0.07427227391302585,0.020186134666763243,0.003879526580777019
1783003381662848000,3.048847900390625,-0.07188041034042834,0.016008191394992172,-0.0029408300917129963
1783003381672899800,3.05889990234375,-0.07636836940944194,0.0020216054880991575,-0.003827376268431544
1783003381682951000,3.068950927734375,-0.08445172262191772,-0.007329721833579242,0.005282205586088821
1783003381693003000,3.0790029296875,-0.07801789018213748,-0.015100209704600274,0.009154553507408127
1783003381703053800,3.0890537109375,-0.08475216687321663,-0.024369594363868236,0.014963669044431298
1783003381713105000,3.09910498046875,-0.09507190083563327,-0.019620354010164737,0.024983004421321675
1783003381723157000,3.109156982421875,-0.08040273949205876,-0.016109898203797636,0.02228086932315491
1783003381733208000,3.1192080078125,-0.08324117778837681,-0.0028991189749911425,0.007090049592498689
1783003381743260000,3.129260009765625,-0.08637479963898659,0.004075067419186234,0.0023008060219697653
1783003381753311000,3.13931103515625,-0.07948854725658894,0.010145619504526257,-0.009065066859358921
1783003381763362800,3.14936279296875,-0.08008943575918674,0.015289960123039781,-0.014741030136542394
1783003381773414000,3.159413818359375,-0.0794938079535961,0.009611293432116507,-0.015304801499145105
1783003381783465000,3.16946484375,-0.07740472671985625,0.007938757110014558,-0.021163026008056477
1783003381793517000,3.17951708984375,-0.08564064014554024,0.0053343467652797695,-0.008812462071469053
1783003381803567900,3.18956787109375,-0.07591594946682453,0.005371573503129184,-0.00918664741241373
1783003381813620000,3.199619873046875,-0.0825011730760336,0.006131232764013111,0.00738827448724769
1783003381823671000,3.209671142578125,-0.09147826025784016,0.003263276112265885,0.02099788944106549
1783003381833723100,3.21972314453125,-0.07950900552272797,-0.000436857047304511,0.012311446635751053
1783003381843774200,3.229774169921875,-0.07411971369981765,-0.005419212037138641,0.02031724109998904
1783003381853825000,3.239824951171875,-0.08922960454821587,-0.016415639684721827,0.01352892353357747
1783003381863877000,3.249877197265625,-0.08443886314034461,-0.01614314288627356,0.001964523272309452
1783003381873928200,3.25992822265625,-0.0860860458254814,-0.013147687397338449,-0.00742000306607224
1783003381883980000,3.26997998046875,-0.06797814220488071,-0.007474317936040461,-0.0011457177027128637
1783003381894031000,3.280031005859375,-0.08054945448637008,0.00481021329332143,0.0005312755987979471
1783003381904083000,3.2900830078125,-0.07904898679554462,0.012201200327463448,-0.01359808891280554
1783003381914134000,3.300134033203125,-0.0800999571532011,0.008254143202118576,0.0022384265765547752
1783003381924185000,3.31018505859375,-0.07995558024644851,0.008682670812495052,0.006204014872433617
1783003381934237000,3.32023681640625,-0.0744178198635578,-0.006632606414891779,0.006473643860360607
1783003381944288000,3.3302880859375,-0.08339549156725407,-0.004674056225642561,0.005509036611905321
1783003381954340000,3.340340087890625,-0.08354863630235194,-0.007085026357509195,0.0031089897328522055
1783003381964391000,3.350390869140625,-0.08654255742132663,-0.011223002945072948,-0.00609838080718182
1783003381974443000,3.360443115234375,-0.08175298505723476,-0.0006357040876522659,-0.002048146435152739
1783003381984494000,3.370494140625,-0.07262684479355812,0.0032942557724192738,-0.00793231823607348
1783003381994545000,3.380544921875,-0.07951017456650733,-0.004790485679544508,-0.007498018472036346
1783003382004597000,3.390596923828125,-0.0896814399689436,-0.016439130158163607,-0.009510554737690836
1783003382014648000,3.40064794921875,-0.0829448251903057,-0.010061813678592444,0.0009100092506967484
1783003382024700000,3.410699951171875,-0.08099836729764938,0.0013126169685274362,0.0115053726835642
1783003382034751000,3.4207509765625,-0.08024491858184338,0.004038571333698928,0.0027578747402410954
1783003382044802800,3.430802734375,-0.07066928098499775,0.003480900918319821,0.0005796630514785647
1783003382054854000,3.44085400390625,-0.07950082221627235,0.00327708544190973,0.006143799984641373
1783003382064905000,3.450905029296875,-0.08099544468820094,0.0019835019674152134,0.005234430054761469
1783003382074956800,3.460956787109375,-0.0757563749909401,0.007026574168540537,-0.008693639731081202
1783003382085008000,3.4710078125,-0.07455752059519291,-0.0022751053251326083,-0.017699277153937144
1783003382095060200,3.481060302734375,-0.08816694375276565,-0.0065104048073291775,-0.01098524866644293
1783003382105110800,3.49111083984375,-0.08457096508741378,-0.004731193240359425,-0.010494314211187884
1783003382115163100,3.5011630859375,-0.08053367239534855,-0.005258285854384303,-0.0041120749613270165
1783003382125214200,3.511214111328125,-0.0829319657087326,-0.00490026619695127,-0.011796190589992329
1783003382135265000,3.52126513671875,-0.08621990133821963,-0.007393142458610236,0.001401519094686955
1783003382145317000,3.531317138671875,-0.07275719317495823,-0.008763371365889906,0.003500199273834005
1783003382155368200,3.5413681640625,-0.08293371927440166,-0.010213972033001482,0.011688620295980945
1783003382165420000,3.551419921875,-0.0835375303864479,-0.007523344709537923,0.004487931669550017
1783003382175471000,3.56147119140625,-0.08114040611684321,0.004541990811191499,0.0056136660301592195
1783003382185523000,3.57152294921875,-0.09205693692862987,0.012182459094375372,0.009855952375568449
1783003382195574000,3.581573974609375,-0.08501987789869309,0.010158442453481256,-0.002610803552903235
1783003382205625000,3.591625,-0.07977905463576317,0.0033598318219184875,-0.00843959190477617
1783003382215677000,3.601677001953125,-0.07544073317050934,-0.0018324030589312314,-0.012025076575577259
1783003382225728000,3.61172802734375,-0.06900573168694972,-0.009635039633885026,-0.013200020372774452
1783003382235780000,3.621780029296875,-0.0833721106916666,-0.00993763930965215,-0.00425265247579664
1783003382245831000,3.631830810546875,-0.08097966259717941,-0.015458558155596255,-0.002994816168118268
1783003382255883000,3.641883056640625,-0.07903320470452309,-0.010984116155281663,0.01053331278101541
1783003382265934000,3.65193408203125,-0.08082534881830215,0.0069387862872332335,0.01568019241648726
1783003382275985000,3.66198486328125,-0.07872691523432732,0.018418869265913962,0.020375428427476434
1783003382286037000,3.672037109375,-0.08096388050615787,0.02271828349288553,0.009985259577352553
1783003382296088000,3.682088134765625,-0.09113689947426319,0.008635507202520966,-0.002292595316050574
1783003382306140000,3.692139892578125,-0.08335399051308631,-0.00652439680006355,-0.01406685720202513
1783003382316191000,3.70219091796875,-0.08649579567015171,-0.021793314135074616,-0.021824485591473056
1783003382326242000,3.712241943359375,-0.09173135823607444,-0.026178433884121475,-0.0122191013103351
1783003382336294000,3.7222939453125,-0.0848491975069046,-0.013427490719407796,-0.007161498260358348
1783003382346345000,3.732344970703125,-0.08006663940548896,0.005425276451744139,0.012276293123979121
1783003382356396800,3.742396728515625,-0.07946516638100147,0.011946933305449783,0.028315372847579418
1783003382366447900,3.75244775390625,-0.08050795343220234,0.017810783837549388,0.02115335399741307
1783003382376500000,3.7625,-0.07422609668374061,0.0014548749834299086,0.006011113515682518
1783003382386550800,3.77255078125,-0.08979191460609436,-0.003808196643926203,0.0009970756127964705
1783003382396603100,3.78260302734375,-0.08215922777056693,-0.022950082954764365,-0.002402869023801759
1783003382406654000,3.792654052734375,-0.08515081080198288,-0.03101918844617903,-0.01765657052337192
1783003382416704800,3.802704833984375,-0.08306114504635334,-0.006058752049691975,-0.010979019855055958
1783003382426757000,3.812757080078125,-0.07678104186356068,0.0031548838343471285,-0.00534035638095811
1783003382436808200,3.82280810546875,-0.07708382420241833,0.018306714128330348,-0.0031580713052768257
1783003382446860000,3.832860107421875,-0.08830489091873168,0.018806991800665855,0.005029710396053269
1783003382456911000,3.8429111328125,-0.08007482271194458,-0.002617306358925998,0.012589003201806916
1783003382466962200,3.852962158203125,-0.08530980075597762,-0.020175649805366992,0.017391891705198212
1783003382477014000,3.863013916015625,-0.08874678946733475,-0.019094832298718393,0.015977613593637943
1783003382487065000,3.873065185546875,-0.08665361658036708,-0.015435067682154475,0.0075350534136407075
1783003382497117000,3.883116943359375,-0.07632628383338451,-0.007232910395599901,-0.004059824184281751
1783003382507168000,3.89316796875,-0.09083645522296428,0.003392382384650409,0.002599578905990347
1783003382517220000,3.90322021484375,-0.08305179269611836,0.011340382247045635,-0.005296626837085932
1783003382527271000,3.91327099609375,-0.07542378203570842,0.006770443983003496,-0.005381656505726277
1783003382537322000,3.923322021484375,-0.07437631880939007,0.0016645356787368655,-0.014608571996446698
1783003382547374000,3.9333740234375,-0.07228022331297397,0.0011773366836830973,-0.010593052744772284
1783003382557425000,3.9434248046875,-0.07871580931842327,-0.0007282412093132733,-0.001147927926108241
1783003382567477000,3.95347705078125,-0.0715384650349617,-0.003016132950782776,0.014619924507522955
1783003382577528000,3.963528076171875,-0.08081307385861873,-0.009402217258699238,0.02256224354780279
1783003382587580000,3.973579833984375,-0.07752104657590389,-0.008865735761821269,0.013693009787797927
1783003382597631000,3.983630859375,-0.08469722181558609,-0.0024782997470349072,0.009567107230518013
1783003382607682000,3.99368212890625,-0.08065174581706523,-0.015440036118216812,-0.00026803981903940436
1783003382617734000,4.00373388671875,-0.08334463816285133,-0.014261201597191393,0.0034186310707591473
1783003382627785000,4.013784912109375,-0.07377075413167476,-0.013750512128695845,0.002159095996338874
1783003382637837000,4.023837158203125,-0.07422200503051281,-0.0015871961262077091,-0.006743994367495179
1783003382647888000,4.033887939453125,-0.07556757442057133,0.001373041918873787,-0.002821578493062407
1783003382657939000,4.04393896484375,-0.07885901718139648,0.003121529554016888,-0.00537208495978266
1783003382667991000,4.053990966796875,-0.0812543878853321,0.005213460331968963,0.0019720398584846407
1783003382678041900,4.064041748046875,-0.07616846292316913,-0.00416833519320935,0.009021099853469059
1783003382688094000,4.074093994140625,-0.08035948487222194,-0.003964008260145783,0.003847761469334364
1783003382698145000,4.08414501953125,-0.08544540983438491,0.00004446019623428583,-0.008963159121153875
1783003382708197000,4.094197021484375,-0.08873276094198226,0.0090900825696066,-0.014158362277224659
1783003382718248000,4.104248046875,-0.07331833418905735,0.017144246220216153,-0.019939950486505403
1783003382728299000,4.114299072265625,-0.06763268976807595,0.015649331487342714,-0.01667766988808289
1783003382738351000,4.12435107421875,-0.08364742050170898,-0.00642981385178864,-0.006740359371993691
1783003382748402000,4.13440185546875,-0.0863438199788332,-0.011756927158683537,0.002025158285209909
1783003382758454000,4.1444541015625,-0.07886077074706555,-0.014189159274287521,0.013205618996499106
1783003382768505000,4.154505126953125,-0.08783785792887211,-0.014992073155008256,0.01732506441352889
1783003382778557200,4.16455712890625,-0.07287175946533679,-0.008315225739590823,0.017306167916813865
1783003382788608000,4.17460791015625,-0.077054598107934,-0.0013160875672474503,0.025443342808913437
1783003382798659000,4.1846591796875,-0.08168342695236205,-0.0015694412738084791,0.021924155706819146
1783003382808711200,4.194711181640625,-0.0741962860673666,-0.006726166449859738,0.011107422874541953
1783003382818762000,4.204761962890625,-0.08736264163255691,-0.005865786760859191,-0.00979364599538967
1783003382828814000,4.21481396484375,-0.08451543550789356,-0.011027809166535734,-0.018529069908428935
1783003382838865200,4.224865234375,-0.08630933318734169,-0.008228972228243947,-0.018494035127665846
1783003382848916000,4.234916015625,-0.08227496310472487,-0.007798946780525147,-0.007214845015946775
1783003382858968000,4.244968017578125,-0.08138298270106314,0.011032120015472173,0.005664336771471426
1783003382869019100,4.25501904296875,-0.08422551265060901,0.013685776329413056,0.005889368565846234
1783003382879071000,4.265071044921875,-0.08422375908493995,0.015883578634634615,0.0073958093397319315
1783003382889121800,4.275121826171875,-0.0801870509147644,0.007442424960434436,0.013171935922605916
1783003382899174000,4.285173828125,-0.07973638453781605,-0.006999466965906321,0.015765952737489715
1783003382909225000,4.295224853515625,-0.08766250136196613,-0.019100640984997152,0.006629309346107766
1783003382919275800,4.30527587890625,-0.08451602002978324,-0.019205087740160522,0.006232007991056889
1783003382929327900,4.315327880859375,-0.0786754773080349,-0.01750138909481466,0.0010835026540793478
1783003382939379000,4.32537890625,-0.07688274867236614,-0.006395436658151447,-0.002043789920443669
1783003382949431000,4.33543115234375,-0.07449205414354801,0.00027253333106637,0.002561703714169562
1783003382959481900,4.34548193359375,-0.08197218076586722,-0.004705949201248586,0.0038965416476596146
1783003382969534000,4.355533935546875,-0.08391746961474418,-0.0020157968018203972,-0.009891297683585435
1783003382979585000,4.3655849609375,-0.08062544233202934,0.0038374227384105324,-0.006057920932630077
1783003382989635800,4.3756357421875,-0.0833200882434845,0.0019402473475784061,-0.008266756088519468
1783003382999688000,4.38568798828125,-0.08271569260954856,0.0008659691795706748,-0.004894009986100718
1783003383009739000,4.395739013671875,-0.08256956213712692,-0.00294372530169785,0.0055427105526439846
1783003383019790800,4.405790771484375,-0.08316928159594536,-0.005479308193922043,0.010545112816663458
1783003383029842000,4.415842041015625,-0.08406418460905551,-0.011531082513555883,0.0023442981038242577
1783003383039893000,4.42589306640625,-0.08107084801197051,-0.009468889286741614,-0.00036426673512905835
1783003383049944800,4.43594482421875,-0.08017302238941192,-0.0026005013545975088,-0.008816946450341492
1783003383059996000,4.445995849609375,-0.0866097774386406,-0.017489296798221764,0.0009256360780913383
1783003383070047700,4.4560478515625,-0.08256780857145786,-0.016193521366640925,0.009279294131929055
1783003383080098800,4.466098876953125,-0.08705109146535396,-0.01469363819770515,0.003673637878289446
1783003383090151000,4.47615087890625,-0.08031213859915733,-0.009582359598577022,0.0013072375405114144
1783003383100201700,4.48620166015625,-0.09362988533377647,0.007212817455641925,0.0002776296312920749
1783003383110252800,4.496252685546875,-0.0877946033090353,0.0032226518409326672,-0.004828634866001084
1783003383120305000,4.506304931640625,-0.08150748586356639,0.0004792348843067884,-0.005243060885788873
1783003383130355700,4.516355712890625,-0.08046645237803458,-0.010097177252918482,-0.0062197512976825235
1783003383140407800,4.52640771484375,-0.0747802234351635,-0.015185951759293674,-0.002883181620342657
1783003383150459000,4.536458984375,-0.08121814752817154,-0.006700812812894582,-0.000313194135017693
1783003383160510000,4.546510009765625,-0.08016834621429443,-0.00009461948089301586,0.007829460649797693
1783003383170561800,4.556561767578125,-0.08360767301321029,0.003857807939313352,0.008452844111993908
1783003383180612900,4.56661279296875,-0.07806582097709179,0.0032940365767106412,0.0020087186070624737
1783003383190664700,4.576664794921875,-0.0798562115252018,-0.0024787016058340668,0.008465922789275646
1783003383200715800,4.5867158203125,-0.07850830404758453,-0.0008841258907690643,0.007368729536561295
1783003383210768000,4.596767822265625,-0.08509586574435234,-0.007657565548457205,-0.001989292387384921
1783003383220818700,4.606818603515625,-0.07970949653089046,-0.004191533405706286,0.0005934815142769367
1783003383230869800,4.616869873046875,-0.08016074742972851,-0.009391403603740037,0.00229425755017437
1783003383240921900,4.626921875,-0.07492050868868827,-0.001268923957273364,-0.0037962778772693126
1783003383250973000,4.636972900390625,-0.08105506592094898,-0.005042816472798585,-0.005372176291327923
1783003383261025000,4.64702490234375,-0.07357143216729163,-0.0035833018468692896,0.00436549259996973
1783003383271075800,4.657075927734375,-0.07386778476536274,-0.0011589242441579699,0.011286697564739732
1783003383281127000,4.667126953125,-0.07685761423110961,0.002349120409414172,0.013322039317246525
1783003383291179000,4.677178955078125,-0.08613748375177382,-0.0054779199544340365,0.006897888021264225
1783003383301230000,4.68722998046875,-0.07850888856947422,-0.008399944880977273,-0.003413452572142705
1783003383311282000,4.697281982421875,-0.08000701817274093,-0.007157580137066542,-0.008555975692905485
1783003383321333000,4.7073330078125,-0.0852455033481121,-0.010599281556159258,-0.0053719844950828695
1783003383331384800,4.717384765625,-0.07776070055067538,-0.012157653446681797,-0.002881272791046649
1783003383341436000,4.727435791015625,-0.08434183250665664,-0.008798406146652995,0.000993230554740876
1783003383351487000,4.737487060546875,-0.07775836246311664,-0.0035656931249424813,0.0027058888246770945
1783003383361538800,4.747538818359375,-0.08539104929864406,0.004388444217294454,0.004179413709649816
1783003383371590000,4.75758984375,-0.08329787641167641,0.006069565704651177,0.006027416196512058
1783003383381642000,4.76764208984375,-0.07282441319227219,-0.0023164967814460397,0.007719716665009036
1783003383391692800,4.77769287109375,-0.08553834881484508,-0.0072416051587089894,-0.0036440464576240625
1783003383401744000,4.787743896484375,-0.08538403503596782,-0.008268683184124529,0.0010004548799712211
1783003383411796000,4.7977958984375,-0.08373626782894134,-0.011594393540732563,-0.004227855961257592
1783003383421846800,4.8078466796875,-0.09496084167659283,-0.010662994442135094,-0.0039496509412303565
1783003383431899000,4.81789892578125,-0.09226385767757891,-0.003724135089665651,0.00021439166935160756
1783003383441950000,4.827949951171875,-0.08223755370378494,-0.005224748910963535,-0.0022406824657227845
1783003383452001800,4.838001708984375,-0.08059329362809657,-0.0053268941111862655,0.0047714613186661155
1783003383462052900,4.848052978515625,-0.07266425419449805,-0.016343999220617116,-0.0021071192139293995
1783003383472104000,4.85810400390625,-0.0807405931442976,-0.013480572613514959,0.0032393563805613664
1783003383482155800,4.86815576171875,-0.08911737634539604,-0.008202084221318363,-0.0005959657323081046
1783003383492206800,4.878206787109375,-0.08088321648538112,-0.0015844561798498034,0.00731725507765077
1783003383502258700,4.8882587890625,-0.0754945091843605,-0.008069288154505192,0.009370397348329425
1783003383512309800,4.898309814453125,-0.07324702251851559,-0.01383574272673577,0.0034003830280154943
1783003383522360800,4.90836083984375,-0.08581541219055652,-0.006246127847954631,0.0020174316364806144
1783003383532412700,4.91841259765625,-0.08431845163106917,0.009020487932115793,-0.0070384107368066905
1783003383542463700,4.928463623046875,-0.07788578823506832,0.019436412278003988,-0.005663195127155632
1783003383552516000,4.93851611328125,-0.07983633778095245,0.0360133069390431,-0.005004055364988744
1783003383562566700,4.948566650390625,-0.07310615274310112,0.026356639995239673,-0.008109464901266619
1783003383572619000,4.958618896484375,-0.07266016254127025,0.0071407751327380534,-0.005229050626745447
1783003383582670000,4.968670166015625,-0.09376198728084564,-0.004150032351538538,-0.00031753238341771065
1783003383592721000,4.978720947265625,-0.07909750211238861,-0.00352740694116801,-0.005746937021007761
1783003383602773000,4.98877294921875,-0.07984276752173901,0.0030265082143247127,-0.0021298425023909655
1783003383612824000,4.998823974609375,-0.07580313674211502,-0.0013347557350993156,-0.0076582231355831025
1783003383622876000,5.0088759765625,-0.08268997364640235,-0.009361775650456547,-0.00556651155333966
1783003383632927000,5.018927001953125,-0.0843354027658701,-0.016291282652691006,-0.006435586005449295
1783003383642978000,5.02897802734375,-0.09032266048192977,-0.030717209824919697,0.002407052008574828
1783003383653030000,5.03902978515625,-0.08643734348118305,-0.028165406450256704,0.007548579615494236
1783003383663081000,5.0490810546875,-0.07985738056898116,-0.024034480657987294,0.014520665384130552
1783003383673132800,5.0591328125,-0.07537059054374694,-0.021097148564457893,0.019538219551509244
1783003383683183900,5.069183837890625,-0.08464753745496273,-0.01196757423467934,0.02275001207171008
1783003383693235000,5.07923486328125,-0.0876373669207096,-0.007656579167768358,0.010841675477288662
1783003383703286800,5.089286865234375,-0.08164777111709118,0.010046104652807116,-0.004989250521501526
1783003383713337900,5.099337890625,-0.0798474436968565,0.006616714726015925,-0.005619100257102399
1783003383723390000,5.109389892578125,-0.08269406529963017,0.011026238263957202,-0.014697528921533375
1783003383733440800,5.119440673828125,-0.07536416080296039,0.004079999322630465,-0.02850709602739662
1783003383743492900,5.129492919921875,-0.07611059525609017,-0.0017837050789967178,-0.01842961898879148
1783003383753544000,5.1395439453125,-0.07745558012425899,-0.005903744151070714,-0.020335105550242587
1783003383763594800,5.1495947265625,-0.07985328891575336,-0.0022345541190356014,-0.0141361961111892
1783003383773646800,5.159646728515625,-0.08180208489596844,-0.001411583830974996,0.0017823442389722913
1783003383783698000,5.169697998046875,-0.07522212198376656,-0.0035918870121240615,0.01048162825955078
1783003383793749800,5.179749755859375,-0.07985913413465022,-0.018891747474670408,0.019760337869590146
1783003383803800800,5.18980078125,-0.07566635861992836,-0.02315305818095803,0.02655333161111921
1783003383813852000,5.199851806640625,-0.07865501904189587,-0.010499985900148749,0.019049431387567893
1783003383823903700,5.20990380859375,-0.07461363469660282,-0.011229396153241396,0.01746108448388986
1783003383833954800,5.219954833984375,-0.07910393185317516,-0.019727029255032537,0.009108860335312783
1783003383844006700,5.230006591796875,-0.09077098877131938,-0.018209610429406164,0.003978813103633001
1783003383854057700,5.2400576171875,-0.08404255729913711,-0.005186389661952853,0.000432948057167232
1783003383864110000,5.250110107421875,-0.08718319341242313,-0.005658464153110981,-0.01726846625492908
1783003383874160600,5.26016064453125,-0.07431494401097297,-0.010148469048738479,-0.010899543144367635
1783003383884212200,5.270212158203125,-0.08030337077081202,-0.007401910286955535,0.008307855283888057
1783003383894264600,5.2802646484375,-0.08882979157567024,0.010967055422626435,0.009223901549726724
1783003383904315400,5.2903154296875,-0.07988660666346549,0.011961911678873002,0.0058843727303203195
1783003383914367500,5.300367431640625,0.6953478244930505,0.0626354660026729,0.05049981432524509
1783003383924418600,5.31041845703125,-1.0745593230366706,-0.028335173526592553,-0.23350191841516643
1783003383934469400,5.320469482421875,-0.14492109663188457,0.007944931122474371,0.36710411397945136
1783003383944521500,5.330521484375,0.17519173173308372,-0.01010601814649999,-0.2898492623253725
1783003383954572500,5.340572509765625,0.024387422281503677,0.015413038513436913,0.08414085744130424
1783003383964624400,5.350624267578125,-0.3719908996403217,-0.06240359347555786,0.038093492480274285
1783003383974675500,5.360675537109375,-0.376596932131052,0.0014451207743957637,0.03914912987989373
1783003383984726500,5.3707265625,0.013610592201352118,0.02767627122644335,0.104321795343142
