time,seconds_elapsed,z,y,x
1783003378688877300,0.074877197265625,-1.0133819580078125,-0.0393524169921875,0.0087890625
1783003378698929400,0.084929443359375,-1.025634765625,-0.0440826416015625,0.0112152099609375
1783003378708980200,0.094980224609375,-1.0184783935546875,-0.0438385009765625,0.0129547119140625
1783003378719031300,0.10503125,-1.0012664794921875,-0.04058837890625,0.0087432861328125
1783003378729083400,0.11508349609375,-0.9940032958984375,-0.0362396240234375,0.0089569091796875
1783003378739134200,0.12513427734375,-1.00030517578125,-0.033721923828125,0.0109100341796875
1783003378749186600,0.1351865234375,-1.012420654296875,-0.0334014892578125,0.0160064697265625
1783003378759237600,0.145237548828125,-1.0187225341796875,-0.035003662109375,0.0155029296875
1783003378769289500,0.15528955078125,-1.0124359130859375,-0.03668212890625,0.010986328125
1783003378779340500,0.165340576171875,-1.0023193359375,-0.0381927490234375,0.008209228515625
1783003378789392400,0.175392333984375,-0.9996795654296875,-0.038818359375,0.0052490234375
1783003378799443500,0.185443359375,-1.0049591064453125,-0.0382232666015625,0.00592041015625
1783003378809495600,0.19549560546875,-1.011932373046875,-0.0371246337890625,0.0084686279296875
1783003378819546400,0.20554638671875,-1.0145416259765625,-0.0359344482421875,0.009796142578125
1783003378829598500,0.215598388671875,-1.0088348388671875,-0.034759521484375,0.0101318359375
1783003378839649500,0.2256494140625,-1.002655029296875,-0.0354156494140625,0.0095672607421875
1783003378849700400,0.235700439453125,-1.0033111572265625,-0.0371246337890625,0.0108489990234375
1783003378859752400,0.24575244140625,-1.008056640625,-0.0400543212890625,0.011871337890625
1783003378869803500,0.255803466796875,-1.0107574462890625,-0.0411376953125,0.0124969482421875
1783003378879859500,0.265859375,-1.011322021484375,-0.041015625,0.0111846923828125
1783003378889910500,0.27591064453125,-1.0058746337890625,-0.0389251708984375,0.0104827880859375
1783003378899962400,0.28596240234375,-1.0041961669921875,-0.03704833984375,0.00927734375
1783003378910013400,0.296013427734375,-1.007293701171875,-0.036041259765625,0.0086669921875
1783003378920065500,0.3060654296875,-1.0101776123046875,-0.03515625,0.0094146728515625
1783003378930116600,0.31611669921875,-1.010284423828125,-0.035797119140625,0.010040283203125
1783003378940168700,0.326168701171875,-1.0081787109375,-0.0358428955078125,0.00946044921875
1783003378950219500,0.336219482421875,-1.0061187744140625,-0.036773681640625,0.007720947265625
1783003378960271600,0.346271728515625,-1.0051727294921875,-0.0369720458984375,0.009246826171875
1783003378970322700,0.35632275390625,-1.0072479248046875,-0.0377960205078125,0.0103912353515625
1783003378980373500,0.36637353515625,-1.0092010498046875,-0.037322998046875,0.0098114013671875
1783003378990425600,0.376425537109375,-1.0084381103515625,-0.0373077392578125,0.009735107421875
1783003379000476700,0.3864765625,-1.0068817138671875,-0.037261962890625,0.0100250244140625
1783003379010528500,0.396528564453125,-1.007171630859375,-0.037933349609375,0.0094146728515625
1783003379020579600,0.40657958984375,-1.00640869140625,-0.038299560546875,0.0106353759765625
1783003379030631400,0.41663134765625,-1.00811767578125,-0.039276123046875,0.011322021484375
1783003379040682500,0.4266826171875,-1.0093536376953125,-0.038421630859375,0.0119781494140625
1783003379050734600,0.436734619140625,-1.0080108642578125,-0.03753662109375,0.011871337890625
1783003379060785400,0.446785400390625,-1.007293701171875,-0.03668212890625,0.0106048583984375
1783003379070837500,0.45683740234375,-1.0066070556640625,-0.0362396240234375,0.0098724365234375
1783003379080888600,0.466888671875,-1.00714111328125,-0.036376953125,0.0094451904296875
1783003379090939600,0.476939697265625,-1.006927490234375,-0.0365753173828125,0.009124755859375
1783003379100991500,0.486991455078125,-1.00860595703125,-0.0374908447265625,0.008087158203125
1783003379111042600,0.49704248046875,-1.0070037841796875,-0.0373382568359375,0.0082855224609375
1783003379121094400,0.507094482421875,-1.0069427490234375,-0.0366668701171875,0.008636474609375
1783003379131145500,0.5171455078125,-1.007720947265625,-0.037200927734375,0.0086212158203125
1783003379141197600,0.527197509765625,-1.008026123046875,-0.03851318359375,0.0097503662109375
1783003379151248400,0.537248291015625,-1.0072784423828125,-0.037322998046875,0.011077880859375
1783003379161300700,0.54730078125,-1.0069427490234375,-0.037445068359375,0.0110321044921875
1783003379171351600,0.5573515625,-1.0073089599609375,-0.0377044677734375,0.0106658935546875
1783003379181403600,0.567403564453125,-1.00732421875,-0.0371246337890625,0.01080322265625
1783003379191454700,0.577454833984375,-1.007354736328125,-0.03753662109375,0.0113067626953125
1783003379201505500,0.587505615234375,-1.00665283203125,-0.03643798828125,0.0096588134765625
1783003379211557600,0.5975576171875,-1.006622314453125,-0.037322998046875,0.00933837890625
1783003379221608700,0.607608642578125,-1.007080078125,-0.037353515625,0.0093841552734375
1783003379231660500,0.61766064453125,-1.008026123046875,-0.0367889404296875,0.00897216796875
1783003379241711600,0.627711669921875,-1.007781982421875,-0.0355682373046875,0.0090179443359375
1783003379251763500,0.637763427734375,-1.006927490234375,-0.0356597900390625,0.009002685546875
1783003379261814500,0.647814453125,-1.0078125,-0.0370635986328125,0.009918212890625
1783003379271866600,0.65786669921875,-1.0082244873046875,-0.0388336181640625,0.0104522705078125
1783003379281917700,0.667917724609375,-1.0062713623046875,-0.0394744873046875,0.0112152099609375
1783003379291969500,0.677969482421875,-1.0074462890625,-0.0391845703125,0.01123046875
1783003379302020600,0.6880205078125,-1.0076141357421875,-0.037353515625,0.010284423828125
1783003379312071700,0.69807177734375,-1.00701904296875,-0.036041259765625,0.0106048583984375
1783003379322123500,0.70812353515625,-1.006378173828125,-0.03515625,0.0098724365234375
1783003379332174600,0.718174560546875,-1.0079345703125,-0.0355682373046875,0.0092315673828125
1783003379342226400,0.728226318359375,-1.0071258544921875,-0.0376129150390625,0.0082855224609375
1783003379352277500,0.738277587890625,-1.0073394775390625,-0.038604736328125,0.008880615234375
1783003379362329600,0.74832958984375,-1.008697509765625,-0.0391998291015625,0.00885009765625
1783003379372380400,0.75838037109375,-1.0084075927734375,-0.03912353515625,0.009674072265625
1783003379382432500,0.7684326171875,-1.0070953369140625,-0.0366973876953125,0.0103302001953125
1783003379392483600,0.778483642578125,-1.0075531005859375,-0.0357208251953125,0.0110931396484375
1783003379402535400,0.788535400390625,-1.008392333984375,-0.03582763671875,0.01123046875
1783003379412586500,0.79858642578125,-1.0079498291015625,-0.0354461669921875,0.00958251953125
1783003379422637600,0.808637451171875,-1.00732421875,-0.036865234375,0.0096893310546875
1783003379432689400,0.818689453125,-1.00811767578125,-0.0377197265625,0.009063720703125
1783003379442740500,0.828740478515625,-1.0072174072265625,-0.0384979248046875,0.0077056884765625
1783003379452792600,0.83879248046875,-1.007232666015625,-0.0385894775390625,0.008270263671875
1783003379462843600,0.84884375,-1.007598876953125,-0.038299560546875,0.00958251953125
1783003379472895700,0.858895751953125,-1.00701904296875,-0.0371551513671875,0.009918212890625
1783003379482946600,0.868946533203125,-1.0080718994140625,-0.0358428955078125,0.009613037109375
1783003379492998700,0.87899853515625,-1.0081939697265625,-0.0353240966796875,0.0106658935546875
1783003379503049700,0.8890498046875,-1.0063018798828125,-0.036529541015625,0.0105133056640625
1783003379513101600,0.8991015625,-1.00640869140625,-0.03814697265625,0.00982666015625
1783003379523152600,0.909152587890625,-1.007171630859375,-0.0389404296875,0.010589599609375
1783003379533203700,0.91920361328125,-1.00848388671875,-0.03778076171875,0.0109100341796875
1783003379543255600,0.929255615234375,-1.006805419921875,-0.037811279296875,0.0103302001953125
1783003379553306600,0.939306640625,-1.008331298828125,-0.0360870361328125,0.0101470947265625
1783003379563358500,0.9493583984375,-1.0078277587890625,-0.0353546142578125,0.0097198486328125
1783003379573409500,0.959409423828125,-1.0070037841796875,-0.0361328125,0.0095672607421875
1783003379583461600,0.969461669921875,-1.0070343017578125,-0.0362701416015625,0.00909423828125
1783003379593512400,0.979512451171875,-1.0086669921875,-0.038055419921875,0.0082244873046875
1783003379603564500,0.989564453125,-1.007171630859375,-0.038726806640625,0.0102691650390625
1783003379613615600,0.99961572265625,-1.0077056884765625,-0.03839111328125,0.0110931396484375
1783003379623667500,1.00966748046875,-1.00775146484375,-0.037628173828125,0.01116943359375
1783003379633718500,1.019718505859375,-1.0071868896484375,-0.03662109375,0.01123046875
1783003379643769600,1.02976953125,-1.0076141357421875,-0.0373992919921875,0.0110321044921875
1783003379653821400,1.039821533203125,-1.0078887939453125,-0.0374908447265625,0.0117950439453125
1783003379663872500,1.04987255859375,-1.0074615478515625,-0.036376953125,0.0109405517578125
1783003379673924400,1.05992431640625,-1.007781982421875,-0.03631591796875,0.010833740234375
1783003379683975400,1.069975341796875,-1.006622314453125,-0.0361175537109375,0.0090789794921875
1783003379694027500,1.080027587890625,-1.0065460205078125,-0.0368804931640625,0.0082550048828125
1783003379704078300,1.090078369140625,-1.0070037841796875,-0.03753662109375,0.0081939697265625
1783003379714130700,1.100130615234375,-1.007781982421875,-0.0380706787109375,0.0066375732421875
1783003379724181800,1.110181640625,-1.0074615478515625,-0.0383148193359375,0.00811767578125
1783003379734232300,1.120232421875,-1.0078277587890625,-0.037628173828125,0.0092926025390625
1783003379744284700,1.13028466796875,-1.0079193115234375,-0.037445068359375,0.0103759765625
1783003379754335700,1.140335693359375,-1.0077972412109375,-0.037384033203125,0.011566162109375
1783003379764387600,1.1503876953125,-1.008087158203125,-0.038543701171875,0.012725830078125
1783003379774438700,1.160438720703125,-1.0084228515625,-0.0374755859375,0.0135345458984375
1783003379784490500,1.170490478515625,-1.0078582763671875,-0.037353515625,0.0109710693359375
1783003379794541600,1.18054150390625,-1.0077362060546875,-0.037200927734375,0.0109100341796875
1783003379804593700,1.19059375,-1.00775146484375,-0.03765869140625,0.0098876953125
1783003379814644500,1.20064453125,-1.007110595703125,-0.037872314453125,0.0082855224609375
1783003379824695600,1.210695556640625,-1.0074005126953125,-0.0371246337890625,0.007659912109375
1783003379834747600,1.22074755859375,-1.0076904296875,-0.0369110107421875,0.007537841796875
1783003379844798500,1.230798583984375,-1.0077056884765625,-0.0372161865234375,0.0088348388671875
1783003379854850600,1.2408505859375,-1.0076904296875,-0.036468505859375,0.0097808837890625
1783003379864901600,1.250901611328125,-1.0081939697265625,-0.0369873046875,0.011260986328125
1783003379874949400,1.260949462890625,-1.0086212158203125,-0.036895751953125,0.01141357421875
1783003379885000400,1.27100048828125,-1.008148193359375,-0.0370025634765625,0.010467529296875
1783003379895052500,1.281052490234375,-1.007110595703125,-0.037384033203125,0.009857177734375
1783003379905103400,1.291103271484375,-1.00775146484375,-0.0366058349609375,0.0092926025390625
1783003379915155500,1.301155517578125,-1.0080108642578125,-0.0366973876953125,0.00872802734375
1783003379925206500,1.31120654296875,-1.0068817138671875,-0.035980224609375,0.0082855224609375
1783003379935257300,1.32125732421875,-1.0069122314453125,-0.036834716796875,0.0097808837890625
1783003379945309400,1.331309326171875,-1.0076446533203125,-0.03680419921875,0.0097198486328125
1783003379955360500,1.341360595703125,-1.0081329345703125,-0.0376129150390625,0.0102386474609375
1783003379965412600,1.35141259765625,-1.0069427490234375,-0.0375823974609375,0.0111083984375
1783003379975463400,1.36146337890625,-1.007659912109375,-0.03826904296875,0.011260986328125
1783003379985515500,1.371515625,-1.0072174072265625,-0.0390167236328125,0.0111846923828125
1783003379995566600,1.381566650390625,-1.007659912109375,-0.03863525390625,0.0113372802734375
1783003380005618700,1.39161865234375,-1.0067901611328125,-0.0386505126953125,0.0115814208984375
1783003380015669500,1.40166943359375,-1.0074615478515625,-0.03759765625,0.0093231201171875
1783003380025720600,1.411720458984375,-1.0075225830078125,-0.0367279052734375,0.009521484375
1783003380035772700,1.421772705078125,-1.0074462890625,-0.0354156494140625,0.0080413818359375
1783003380045823500,1.431823486328125,-1.0068511962890625,-0.0347442626953125,0.0081024169921875
1783003380055875600,1.44187548828125,-1.00634765625,-0.0359039306640625,0.0095367431640625
1783003380065926700,1.4519267578125,-1.0071258544921875,-0.036895751953125,0.0081329345703125
1783003380075978500,1.461978515625,-1.0076751708984375,-0.0377197265625,0.0099639892578125
1783003380086029600,1.472029541015625,-1.00677490234375,-0.039398193359375,0.0116119384765625
1783003380096081400,1.482081298828125,-1.0073089599609375,-0.03912353515625,0.011260986328125
1783003380106132500,1.492132568359375,-1.0076904296875,-0.0386810302734375,0.011749267578125
1783003380116183600,1.50218359375,-1.007354736328125,-0.0379486083984375,0.0125732421875
1783003380126235400,1.5122353515625,-1.007232666015625,-0.03729248046875,0.0111541748046875
1783003380136286500,1.522286376953125,-1.0071563720703125,-0.037200927734375,0.010009765625
1783003380146338600,1.532338623046875,-1.0074462890625,-0.037322998046875,0.0084991455078125
1783003380156389400,1.542389404296875,-1.008514404296875,-0.03594970703125,0.0071563720703125
1783003380166441500,1.55244140625,-1.0081939697265625,-0.0360107421875,0.007354736328125
1783003380176492500,1.562492431640625,-1.007720947265625,-0.036834716796875,0.0065765380859375
1783003380186544400,1.57254443359375,-1.00738525390625,-0.0366363525390625,0.0079193115234375
1783003380196595500,1.582595458984375,-1.00836181640625,-0.0374603271484375,0.01092529296875
1783003380206646500,1.592646484375,-1.0077972412109375,-0.0382080078125,0.011260986328125
1783003380216698400,1.602698486328125,-1.007415771484375,-0.038360595703125,0.012237548828125
1783003380226749400,1.61274951171875,-1.007537841796875,-0.037261962890625,0.0128326416015625
1783003380236801300,1.62280126953125,-1.0073394775390625,-0.0374908447265625,0.0128173828125
1783003380246852400,1.632852294921875,-1.007537841796875,-0.037841796875,0.0100860595703125
1783003380256904700,1.64290478515625,-1.007598876953125,-0.0387115478515625,0.0086822509765625
1783003380266955500,1.65295556640625,-1.0079498291015625,-0.038299560546875,0.008544921875
1783003380277007600,1.663007568359375,-1.0078277587890625,-0.0376129150390625,0.008514404296875
1783003380287058700,1.67305859375,-1.007110595703125,-0.03668212890625,0.00885009765625
1783003380297109500,1.683109619140625,-1.007171630859375,-0.0347900390625,0.0092926025390625
1783003380307161600,1.69316162109375,-1.007904052734375,-0.035125732421875,0.0105133056640625
1783003380317212700,1.703212646484375,-1.007568359375,-0.035430908203125,0.0118408203125
1783003380327264500,1.713264404296875,-1.0079193115234375,-0.03741455078125,0.0111541748046875
1783003380337315600,1.723315673828125,-1.007720947265625,-0.0394287109375,0.010101318359375
1783003380347367400,1.733367431640625,-1.00701904296875,-0.039459228515625,0.0098724365234375
1783003380357418500,1.74341845703125,-1.0066375732421875,-0.0387725830078125,0.009613037109375
1783003380367470600,1.753470703125,-1.0076446533203125,-0.0381622314453125,0.0099945068359375
1783003380377521400,1.763521484375,-1.0085906982421875,-0.0372314453125,0.0101776123046875
1783003380387572500,1.773572509765625,-1.008270263671875,-0.035980224609375,0.01025390625
1783003380397624600,1.78362451171875,-1.0085296630859375,-0.035400390625,0.0102691650390625
1783003380407675400,1.79367529296875,-1.0080413818359375,-0.0361480712890625,0.009002685546875
1783003380417727500,1.8037275390625,-1.0074920654296875,-0.0370941162109375,0.00946044921875
1783003380427778600,1.813778564453125,-1.007720947265625,-0.037445068359375,0.0085601806640625
1783003380437830400,1.823830322265625,-1.0078125,-0.038726806640625,0.00933837890625
1783003380447881500,1.833881591796875,-1.006927490234375,-0.0384521484375,0.009613037109375
1783003380457933300,1.843933349609375,-1.0070953369140625,-0.03887939453125,0.010009765625
1783003380467984400,1.853984375,-1.0071563720703125,-0.037872314453125,0.0094451904296875
1783003380478035500,1.864035400390625,-1.007415771484375,-0.037811279296875,0.011383056640625
1783003380488087300,1.87408740234375,-1.00787353515625,-0.0367584228515625,0.0121002197265625
1783003380498138400,1.884138427734375,-1.0080413818359375,-0.037353515625,0.0113372802734375
1783003380508190500,1.8941904296875,-1.0072784423828125,-0.0378570556640625,0.010833740234375
1783003380518241300,1.9042412109375,-1.007598876953125,-0.0374298095703125,0.00946044921875
1783003380528293600,1.914293701171875,-1.0071258544921875,-0.0378570556640625,0.0090789794921875
1783003380538344400,1.924344482421875,-1.007354736328125,-0.0373382568359375,0.0087127685546875
1783003380548396500,1.934396484375,-1.007415771484375,-0.0369110107421875,0.0088348388671875
1783003380558447600,1.944447509765625,-1.0069122314453125,-0.0371856689453125,0.009796142578125
1783003380568498700,1.954498779296875,-1.00799560546875,-0.037994384765625,0.010467529296875
1783003380578550500,1.964550537109375,-1.0074615478515625,-0.0374603271484375,0.010223388671875
1783003380588601600,1.9746015625,-1.0073394775390625,-0.0369110107421875,0.010498046875
1783003380598653400,1.9846533203125,-1.00640869140625,-0.0381011962890625,0.0096588134765625
1783003380608704500,1.99470458984375,-1.0067291259765625,-0.0384979248046875,0.0100860595703125
1783003380618756600,2.004756591796875,-1.0070037841796875,-0.038360595703125,0.0101776123046875
1783003380628807400,2.014807373046875,-1.007415771484375,-0.0388031005859375,0.009796142578125
1783003380638858500,2.0248583984375,-1.007110595703125,-0.0380096435546875,0.009185791015625
1783003380648910600,2.03491064453125,-1.0070953369140625,-0.0369110107421875,0.0097198486328125
1783003380658961400,2.04496142578125,-1.008026123046875,-0.034912109375,0.009918212890625
1783003380669013500,2.055013427734375,-1.0077056884765625,-0.03558349609375,0.0105133056640625
1783003380679064600,2.065064697265625,-1.00750732421875,-0.036346435546875,0.011322021484375
1783003380689116400,2.075116455078125,-1.00726318359375,-0.03704833984375,0.0103759765625
1783003380699167500,2.08516748046875,-1.007659912109375,-0.037261962890625,0.009429931640625
1783003380709219300,2.09521923828125,-1.007293701171875,-0.0377044677734375,0.0090179443359375
1783003380719270400,2.1052705078125,-1.007659912109375,-0.039154052734375,0.009307861328125
1783003380729321500,2.115321533203125,-1.0084686279296875,-0.03826904296875,0.00921630859375
1783003380739373600,2.12537353515625,-1.008270263671875,-0.0380859375,0.0103912353515625
1783003380749424400,2.13542431640625,-1.0070953369140625,-0.03656005859375,0.010284423828125
1783003380759476500,2.1454765625,-1.0081939697265625,-0.03643798828125,0.010894775390625
1783003380769527600,2.155527587890625,-1.0064697265625,-0.03692626953125,0.0107269287109375
1783003380779579400,2.165579345703125,-1.0067901611328125,-0.038330078125,0.0104217529296875
1783003380789630500,2.17563037109375,-1.0077972412109375,-0.0391693115234375,0.0097503662109375
1783003380799682600,2.1856826171875,-1.0084686279296875,-0.0381927490234375,0.0107879638671875
1783003380809733400,2.1957333984375,-1.0078277587890625,-0.037506103515625,0.0097503662109375
1783003380819784400,2.205784423828125,-1.0074310302734375,-0.0363616943359375,0.009307861328125
1783003380829836500,2.21583642578125,-1.0062408447265625,-0.0361785888671875,0.0092926025390625
1783003380839887400,2.225887451171875,-1.008148193359375,-0.03546142578125,0.0091400146484375
1783003380849939700,2.235939697265625,-1.009307861328125,-0.0360565185546875,0.00750732421875
1783003380859990500,2.245990478515625,-1.0081329345703125,-0.0367584228515625,0.007293701171875
1783003380870042600,2.256042724609375,-1.0078125,-0.0367584228515625,0.00799560546875
1783003380880094000,2.266093994140625,-1.00726318359375,-0.0374755859375,0.0078887939453125
1783003380890145000,2.27614501953125,-1.0080718994140625,-0.0388031005859375,0.0101470947265625
1783003380900197000,2.286197021484375,-1.00787353515625,-0.03875732421875,0.0111541748046875
1783003380910248000,2.296248046875,-1.007080078125,-0.0374298095703125,0.0123291015625
1783003380920300000,2.306300048828125,-1.0071563720703125,-0.0372772216796875,0.012603759765625
1783003380930351000,2.31635107421875,-1.007232666015625,-0.037933349609375,0.0122833251953125
1783003380940403000,2.32640283203125,-1.006622314453125,-0.038299560546875,0.0110931396484375
1783003380950454000,2.3364541015625,-1.0072021484375,-0.0391998291015625,0.0098419189453125
1783003380960505900,2.346505859375,-1.0082244873046875,-0.0392608642578125,0.008880615234375
1783003380970557000,2.356556884765625,-1.007965087890625,-0.0386505126953125,0.0084686279296875
1783003380980608000,2.36660791015625,-1.0075836181640625,-0.037200927734375,0.008026123046875
1783003380990659800,2.376659912109375,-1.0074615478515625,-0.0361328125,0.0088653564453125
1783003381000711000,2.3867109375,-1.007171630859375,-0.035491943359375,0.0098419189453125
1783003381010763000,2.396762939453125,-1.007965087890625,-0.0350494384765625,0.0103607177734375
1783003381020813800,2.406813720703125,-1.00799560546875,-0.0361785888671875,0.009979248046875
1783003381030866000,2.416865966796875,-1.0084686279296875,-0.0363922119140625,0.0106201171875
1783003381040917000,2.4269169921875,-1.0074462890625,-0.03741455078125,0.0101776123046875
1783003381050967800,2.4369677734375,-1.00775146484375,-0.0381011962890625,0.0101165771484375
1783003381061020000,2.44702001953125,-1.0078277587890625,-0.03875732421875,0.010223388671875
1783003381071071000,2.457071044921875,-1.00775146484375,-0.0391845703125,0.010101318359375
1783003381081123000,2.467123046875,-1.0077972412109375,-0.0373382568359375,0.0096588134765625
1783003381091174000,2.477173828125,-1.00738525390625,-0.03680419921875,0.0095367431640625
1783003381101226000,2.48722607421875,-1.0071563720703125,-0.038360595703125,0.0092620849609375
1783003381111277000,2.497277099609375,-1.00775146484375,-0.03729248046875,0.01019287109375
1783003381121329200,2.5073291015625,-1.00799560546875,-0.0376129150390625,0.0098724365234375
1783003381131380000,2.5173798828125,-1.00787353515625,-0.0370635986328125,0.0107574462890625
1783003381141431000,2.52743115234375,-1.0072021484375,-0.0360565185546875,0.0108184814453125
1783003381151483100,2.537483154296875,-1.008453369140625,-0.0365447998046875,0.0090179443359375
1783003381161534000,2.547533935546875,-1.0078887939453125,-0.0368194580078125,0.00970458984375
1783003381171586000,2.5575859375,-1.0078125,-0.0372772216796875,0.0084686279296875
1783003381181637000,2.56763720703125,-1.0077667236328125,-0.037750244140625,0.009185791015625
1783003381191689000,2.57768896484375,-1.00714111328125,-0.0378570556640625,0.01043701171875
1783003381201740000,2.587739990234375,-1.007568359375,-0.0374603271484375,0.010650634765625
1783003381211791000,2.597791015625,-1.007720947265625,-0.037384033203125,0.0108642578125
1783003381221843000,2.607843017578125,-1.007415771484375,-0.037872314453125,0.0118408203125
1783003381231894000,2.61789404296875,-1.0076141357421875,-0.03729248046875,0.01153564453125
1783003381241945900,2.62794580078125,-1.00762939453125,-0.03778076171875,0.0099334716796875
1783003381251997000,2.637996826171875,-1.0079498291015625,-0.0369720458984375,0.0098419189453125
1783003381262049000,2.648049072265625,-1.00653076171875,-0.0369720458984375,0.0092926025390625
1783003381272100000,2.65810009765625,-1.0076904296875,-0.0362701416015625,0.009552001953125
1783003381282151000,2.66815087890625,-1.0084075927734375,-0.03607177734375,0.009490966796875
1783003381292203000,2.678203125,-1.0077667236328125,-0.0362396240234375,0.00909423828125
1783003381302254000,2.688254150390625,-1.0077972412109375,-0.0369873046875,0.00927734375
1783003381312306000,2.698305908203125,-1.0078125,-0.03790283203125,0.01129150390625
1783003381322357000,2.70835693359375,-1.007965087890625,-0.0383758544921875,0.0101776123046875
1783003381332408800,2.718408935546875,-1.0079498291015625,-0.0379638671875,0.0107574462890625
1783003381342460000,2.7284599609375,-1.0075531005859375,-0.0379638671875,0.0100250244140625
1783003381352512000,2.738511962890625,-1.0074615478515625,-0.03741455078125,0.0085296630859375
1783003381362562800,2.748562744140625,-1.008087158203125,-0.038116455078125,0.009307861328125
1783003381372614000,2.75861376953125,-1.0077362060546875,-0.0384063720703125,0.00958251953125
1783003381382666000,2.768666015625,-1.007049560546875,-0.0373077392578125,0.0100555419921875
1783003381392716800,2.778716796875,-1.0069732666015625,-0.0360870361328125,0.0094146728515625
1783003381402769200,2.78876904296875,-1.0070037841796875,-0.0359344482421875,0.009765625
1783003381412820200,2.7988203125,-1.0071868896484375,-0.03607177734375,0.01019287109375
1783003381422872000,2.8088720703125,-1.0065765380859375,-0.0369415283203125,0.0109405517578125
1783003381432923100,2.818923095703125,-1.0072174072265625,-0.037353515625,0.0096893310546875
1783003381442974200,2.82897412109375,-1.007415771484375,-0.0382232666015625,0.009246826171875
1783003381453026000,2.839026123046875,-1.007232666015625,-0.038665771484375,0.01025390625
1783003381463077000,2.8490771484375,-1.0073089599609375,-0.0375823974609375,0.0090789794921875
1783003381473129000,2.85912890625,-1.007354736328125,-0.0370025634765625,0.010040283203125
1783003381483180000,2.869179931640625,-1.0079193115234375,-0.0368804931640625,0.011383056640625
1783003381493232000,2.879232177734375,-1.0083770751953125,-0.0373382568359375,0.0101776123046875
1783003381503283000,2.889282958984375,-1.0075225830078125,-0.0367279052734375,0.009307861328125
1783003381513334000,2.899333984375,-1.0076446533203125,-0.037933349609375,0.0103607177734375
1783003381523386000,2.90938623046875,-1.007537841796875,-0.0384368896484375,0.0099945068359375
1783003381533437000,2.91943701171875,-1.00714111328125,-0.03741455078125,0.0089263916015625
1783003381543489000,2.929489013671875,-1.0082244873046875,-0.0375213623046875,0.0099029541015625
1783003381553540000,2.9395400390625,-1.0076751708984375,-0.036895751953125,0.011688232421875
1783003381563592000,2.949592041015625,-1.007568359375,-0.0356903076171875,0.0107879638671875
1783003381573643000,2.95964306640625,-1.0073089599609375,-0.0362091064453125,0.011383056640625
1783003381583694800,2.96969482421875,-1.0071563720703125,-0.0362701416015625,0.010498046875
1783003381593746000,2.979745849609375,-1.007965087890625,-0.03778076171875,0.0101318359375
1783003381603797000,2.989796875,-1.00701904296875,-0.03814697265625,0.01007080078125
1783003381613848800,2.999848876953125,-1.007568359375,-0.0384368896484375,0.0095062255859375
1783003381623900000,3.00989990234375,-1.0081634521484375,-0.0377655029296875,0.0095672607421875
1783003381633952000,3.019951904296875,-1.008453369140625,-0.0363616943359375,0.0100555419921875
1783003381644002800,3.0300029296875,-1.0074462890625,-0.0358123779296875,0.0096282958984375
1783003381654055000,3.040054931640625,-1.006561279296875,-0.0350341796875,0.00994873046875
1783003381664106000,3.05010595703125,-1.006500244140625,-0.0358428955078125,0.009429931640625
1783003381674156800,3.06015673828125,-1.0074615478515625,-0.0373687744140625,0.009490966796875
1783003381684209200,3.070209228515625,-1.0076751708984375,-0.0379180908203125,0.010498046875
1783003381694260000,3.080260009765625,-1.0073394775390625,-0.0391998291015625,0.0107269287109375
1783003381704312000,3.09031201171875,-1.008270263671875,-0.0397796630859375,0.0120086669921875
1783003381714363100,3.100363037109375,-1.0088958740234375,-0.0392608642578125,0.012237548828125
1783003381724415000,3.1104150390625,-1.0071258544921875,-0.0386962890625,0.011932373046875
1783003381734466000,3.120466064453125,-1.00799560546875,-0.0371246337890625,0.0101470947265625
1783003381744517000,3.13051708984375,-1.0078125,-0.036590576171875,0.009796142578125
1783003381754569000,3.14056884765625,-1.0075836181640625,-0.03570556640625,0.008758544921875
1783003381764620000,3.1506201171875,-1.00732421875,-0.03570556640625,0.008209228515625
1783003381774672100,3.160672119140625,-1.0074310302734375,-0.0361328125,0.0082855224609375
1783003381784723000,3.170722900390625,-1.00750732421875,-0.036285400390625,0.0079193115234375
1783003381794775000,3.180775146484375,-1.0077362060546875,-0.03656005859375,0.0089263916015625
1783003381804826000,3.190826171875,-1.0070648193359375,-0.036285400390625,0.009063720703125
1783003381814877000,3.200876953125,-1.0081024169921875,-0.0367431640625,0.0113067626953125
1783003381824929000,3.210928955078125,-1.008270263671875,-0.036712646484375,0.0119781494140625
1783003381834980000,3.22097998046875,-1.007049560546875,-0.037353515625,0.0109710693359375
1783003381845032000,3.231031982421875,-1.0072021484375,-0.0379180908203125,0.0120391845703125
1783003381855083000,3.2410830078125,-1.0079803466796875,-0.0388031005859375,0.010986328125
1783003381865134800,3.251134765625,-1.00830078125,-0.038665771484375,0.009735107421875
1783003381875186000,3.26118603515625,-1.0074615478515625,-0.0383148193359375,0.009063720703125
1783003381885237000,3.271237060546875,-1.006256103515625,-0.0376739501953125,0.0100555419921875
1783003381895288800,3.281288818359375,-1.0076446533203125,-0.0363311767578125,0.00933837890625
1783003381905340000,3.29133984375,-1.0070648193359375,-0.036041259765625,0.008544921875
1783003381915392000,3.30139208984375,-1.0075531005859375,-0.0362091064453125,0.0103302001953125
1783003381925442800,3.31144287109375,-1.0072784423828125,-0.036651611328125,0.0102996826171875
1783003381935495000,3.321494873046875,-1.00714111328125,-0.03778076171875,0.010528564453125
1783003381945546000,3.3315458984375,-1.007720947265625,-0.03778076171875,0.010162353515625
1783003381955596800,3.3415966796875,-1.0078887939453125,-0.037994384765625,0.009979248046875
1783003381965649000,3.35164892578125,-1.0081329345703125,-0.0381317138671875,0.00927734375
1783003381975700000,3.361699951171875,-1.007598876953125,-0.0368804931640625,0.0094451904296875
1783003381985752000,3.371751953125,-1.006561279296875,-0.0372467041015625,0.00872802734375
1783003381995803100,3.38180322265625,-1.007598876953125,-0.0378265380859375,0.009124755859375
1783003382005855000,3.39185498046875,-1.0081787109375,-0.0386505126953125,0.008941650390625
1783003382015906000,3.401906005859375,-1.007568359375,-0.03790283203125,0.010345458984375
1783003382025957000,3.41195703125,-1.0074462890625,-0.0368804931640625,0.010772705078125
1783003382036009000,3.422009033203125,-1.0072021484375,-0.03704833984375,0.0099945068359375
1783003382046060000,3.43206005859375,-1.006744384765625,-0.0364532470703125,0.010009765625
1783003382056112000,3.442112060546875,-1.007232666015625,-0.0369720458984375,0.0107879638671875
1783003382066163000,3.452162841796875,-1.007781982421875,-0.036773681640625,0.010040283203125
1783003382076215000,3.462215087890625,-1.006439208984375,-0.0363616943359375,0.0084686279296875
1783003382086266000,3.47226611328125,-1.00762939453125,-0.0375823974609375,0.00811767578125
1783003382096317000,3.48231689453125,-1.0081939697265625,-0.03778076171875,0.0084381103515625
1783003382106369000,3.492369140625,-1.0080108642578125,-0.037445068359375,0.009033203125
1783003382116420000,3.502420166015625,-1.007354736328125,-0.0377197265625,0.009246826171875
1783003382126472000,3.512471923828125,-1.0079498291015625,-0.0377349853515625,0.008819580078125
1783003382136523000,3.52252294921875,-1.0077667236328125,-0.0380401611328125,0.0101470947265625
1783003382146574800,3.532574951171875,-1.0068359375,-0.03790283203125,0.010162353515625
1783003382156626000,3.5426259765625,-1.0076904296875,-0.038177490234375,0.0111541748046875
1783003382166677000,3.552677001953125,-1.007781982421875,-0.0377655029296875,0.010009765625
1783003382176729000,3.56272900390625,-1.0073699951171875,-0.036407470703125,0.0107421875
1783003382186780000,3.57277978515625,-1.0086822509765625,-0.0356597900390625,0.01043701171875
1783003382196832000,3.58283203125,-1.0076446533203125,-0.036224365234375,0.0092315673828125
1783003382206883000,3.592883056640625,-1.007232666015625,-0.0368804931640625,0.0087432861328125
1783003382216935000,3.602934814453125,-1.006744384765625,-0.037506103515625,0.008331298828125
1783003382226986000,3.612986083984375,-1.00653076171875,-0.037994384765625,0.0085601806640625
1783003382237037000,3.623037109375,-1.0078582763671875,-0.0381622314453125,0.009521484375
1783003382247089000,3.6330888671875,-1.007415771484375,-0.038787841796875,0.0094451904296875
1783003382257140000,3.643139892578125,-1.0075531005859375,-0.03778076171875,0.011138916015625
1783003382267191800,3.65319189453125,-1.006988525390625,-0.0360870361328125,0.0115203857421875
1783003382277243000,3.663242919921875,-1.0074310302734375,-0.035186767578125,0.011444091796875
1783003382287295000,3.673294921875,-1.0078582763671875,-0.0349578857421875,0.010467529296875
1783003382297346000,3.683345947265625,-1.008636474609375,-0.03662109375,0.008819580078125
1783003382307396900,3.69339697265625,-1.0074615478515625,-0.03826904296875,0.00823974609375
1783003382317449200,3.70344921875,-1.0085906982421875,-0.03955078125,0.007568359375
1783003382327500000,3.7135,-1.0083770751953125,-0.03955078125,0.0087432861328125
1783003382337552100,3.72355224609375,-1.00762939453125,-0.0377044677734375,0.009185791015625
1783003382347603200,3.733603271484375,-1.007354736328125,-0.036346435546875,0.011505126953125
1783003382357655000,3.743655029296875,-1.0076141357421875,-0.0354461669921875,0.012451171875
1783003382367706000,3.7537060546875,-1.007049560546875,-0.0355224609375,0.0116119384765625
1783003382377757200,3.763757080078125,-1.007171630859375,-0.0373077392578125,0.0098419189453125
1783003382387809000,3.77380908203125,-1.0084381103515625,-0.0377197265625,0.0096435546875
1783003382397860000,3.783860107421875,-1.007720947265625,-0.0400848388671875,0.008941650390625
1783003382407912000,3.793911865234375,-1.0082244873046875,-0.039703369140625,0.00750732421875
1783003382417963000,3.803962890625,-1.0071868896484375,-0.0373992919921875,0.008941650390625
1783003382428014000,3.81401416015625,-1.0073394775390625,-0.036163330078125,0.0091400146484375
1783003382438066000,3.82406591796875,-1.0072174072265625,-0.0350799560546875,0.009368896484375
1783003382448117000,3.834116943359375,-1.00823974609375,-0.03546142578125,0.010498046875
1783003382458169000,3.844169189453125,-1.0076904296875,-0.037994384765625,0.0110931396484375
1783003382468220000,3.854219970703125,-1.0079803466796875,-0.039337158203125,0.0114898681640625
1783003382478272000,3.86427197265625,-1.00836181640625,-0.0387725830078125,0.01116943359375
1783003382488323000,3.874322998046875,-1.0075225830078125,-0.03826904296875,0.0101318359375
1783003382498374000,3.884373779296875,-1.0075225830078125,-0.0375823974609375,0.009429931640625
1783003382508426000,3.894426025390625,-1.0085906982421875,-0.0360870361328125,0.00958251953125
1783003382518477000,3.90447705078125,-1.0076751708984375,-0.035919189453125,0.009063720703125
1783003382528529000,3.91452880859375,-1.0067901611328125,-0.0367279052734375,0.0091705322265625
1783003382538580000,3.924580078125,-1.006744384765625,-0.0366973876953125,0.0079345703125
1783003382548631800,3.9346318359375,-1.0068359375,-0.036865234375,0.00885009765625
1783003382558683000,3.944682861328125,-1.0071868896484375,-0.03717041015625,0.009613037109375
1783003382568734000,3.95473388671875,-1.0067901611328125,-0.03729248046875,0.0115509033203125
1783003382578785800,3.964785888671875,-1.0073699951171875,-0.0379638671875,0.0118560791015625
1783003382588836900,3.9748369140625,-1.0071563720703125,-0.037628173828125,0.011016845703125
1783003382598889200,3.98488916015625,-1.008087158203125,-0.037689208984375,0.0102691650390625
1783003382608939800,3.994939697265625,-1.0075225830078125,-0.03875732421875,0.0098724365234375
1783003382618990800,4.004990966796875,-1.0074920654296875,-0.038360595703125,0.01019287109375
1783003382629043200,4.015043212890625,-1.0069580078125,-0.0382080078125,0.0097198486328125
1783003382639094000,4.025093994140625,-1.0069122314453125,-0.0372161865234375,0.0091094970703125
1783003382649146000,4.03514599609375,-1.0069732666015625,-0.0366668701171875,0.009368896484375
1783003382659197200,4.045197265625,-1.00738525390625,-0.0364837646484375,0.0092926025390625
1783003382669249000,4.0552490234375,-1.0076446533203125,-0.0369110107421875,0.0102996826171875
1783003382679300000,4.065300048828125,-1.0070343017578125,-0.037445068359375,0.0106353759765625
1783003382689351200,4.07535107421875,-1.00762939453125,-0.037506103515625,0.00994873046875
1783003382699403000,4.085403076171875,-1.008026123046875,-0.0369415283203125,0.00860595703125
1783003382709454000,4.0954541015625,-1.008026123046875,-0.03558349609375,0.00836181640625
1783003382719506000,4.105505859375,-1.0064697265625,-0.03509521484375,0.007598876953125
1783003382729557000,4.115556884765625,-1.00640869140625,-0.035797119140625,0.0081787109375
1783003382739609000,4.125609130859375,-1.0083160400390625,-0.0380859375,0.0092620849609375
1783003382749660000,4.135659912109375,-1.00775146484375,-0.037994384765625,0.01019287109375
1783003382759711000,4.1457109375,-1.0074310302734375,-0.0386505126953125,0.011474609375
1783003382769763000,4.15576318359375,-1.008026123046875,-0.038360595703125,0.01153564453125
1783003382779814000,4.16581396484375,-1.0063323974609375,-0.037750244140625,0.0114593505859375
1783003382789866000,4.175865966796875,-1.0076751708984375,-0.0367584228515625,0.012451171875
1783003382799917000,4.1859169921875,-1.0072174072265625,-0.037506103515625,0.0118408203125
1783003382809967900,4.1959677734375,-1.007049560546875,-0.0374603271484375,0.01019287109375
1783003382820020000,4.20602001953125,-1.0084381103515625,-0.0377349853515625,0.00830078125
1783003382830071000,4.216071044921875,-1.0078125,-0.0379638671875,0.0076446533203125
1783003382840123000,4.226122802734375,-1.00787353515625,-0.037994384765625,0.0080718994140625
1783003382850174000,4.236174072265625,-1.007659912109375,-0.03717041015625,0.00946044921875
1783003382860225800,4.246225830078125,-1.0075531005859375,-0.0357513427734375,0.01055908203125
1783003382870276900,4.25627685546875,-1.0079345703125,-0.035247802734375,0.0104522705078125
1783003382880328000,4.266327880859375,-1.007781982421875,-0.03570556640625,0.010650634765625
1783003382890380000,4.276380126953125,-1.0074005126953125,-0.0362091064453125,0.011138916015625
1783003382900430800,4.286430908203125,-1.007598876953125,-0.038177490234375,0.011138916015625
1783003382910483000,4.29648291015625,-1.0081329345703125,-0.038909912109375,0.0101470947265625
1783003382920534000,4.306533935546875,-1.00750732421875,-0.0388641357421875,0.0103302001953125
1783003382930585900,4.3165859375,-1.007415771484375,-0.038482666015625,0.009490966796875
1783003382940637000,4.326636962890625,-1.006866455078125,-0.03717041015625,0.0097503662109375
1783003382950688000,4.33668798828125,-1.007171630859375,-0.037109375,0.0101470947265625
1783003382960739800,4.34673974609375,-1.0078582763671875,-0.037567138671875,0.0099334716796875
1783003382970791000,4.356791015625,-1.0078277587890625,-0.0369110107421875,0.0084991455078125
1783003382980842800,4.3668427734375,-1.0076141357421875,-0.03662109375,0.0093231201171875
1783003382990893800,4.376893798828125,-1.0078887939453125,-0.0365753173828125,0.0087738037109375
1783003383000945000,4.38694482421875,-1.0078125,-0.03692626953125,0.0096282958984375
1783003383010996700,4.396996826171875,-1.007476806640625,-0.037078857421875,0.0107269287109375
1783003383021047800,4.4070478515625,-1.007568359375,-0.0376739501953125,0.010833740234375
1783003383031100000,4.417099853515625,-1.00799560546875,-0.0381317138671875,0.0098114013671875
1783003383041150700,4.427150634765625,-1.0074615478515625,-0.0376434326171875,0.0093994140625
1783003383051202800,4.437202880859375,-1.007904052734375,-0.0375518798828125,0.0091552734375
1783003383061254000,4.44725390625,-1.0077362060546875,-0.0389404296875,0.0100860595703125
1783003383071304700,4.4573046875,-1.0081024169921875,-0.038360595703125,0.010528564453125
1783003383081356800,4.467356689453125,-1.007904052734375,-0.0385894775390625,0.0103759765625
1783003383091408000,4.477407958984375,-1.007476806640625,-0.0372314453125,0.0096435546875
1783003383101460000,4.4874599609375,-1.009002685546875,-0.0359649658203125,0.00994873046875
1783003383111511000,4.497510986328125,-1.0079803466796875,-0.0366668701171875,0.0091552734375
1783003383121561900,4.507561767578125,-1.007598876953125,-0.0370941162109375,0.0093841552734375
1783003383131614000,4.517614013671875,-1.00714111328125,-0.0379486083984375,0.0090484619140625
1783003383141665000,4.5276650390625,-1.0069732666015625,-0.0383453369140625,0.009735107421875
1783003383151716900,4.537716796875,-1.007537841796875,-0.0373687744140625,0.0095672607421875
1783003383161768000,4.547767822265625,-1.0074462890625,-0.0368194580078125,0.0110321044921875
1783003383171820000,4.557820068359375,-1.007965087890625,-0.0365142822265625,0.0101776123046875
1783003383181870800,4.567870849609375,-1.007171630859375,-0.036651611328125,0.010040283203125
1783003383191922000,4.577921875,-1.007415771484375,-0.0369110107421875,0.010772705078125
1783003383201974000,4.58797412109375,-1.007293701171875,-0.037200927734375,0.01031494140625
1783003383212024800,4.59802490234375,-1.007904052734375,-0.0376129150390625,0.0097503662109375
1783003383222077000,4.608076904296875,-1.0072479248046875,-0.03741455078125,0.0097198486328125
1783003383232128000,4.6181279296875,-1.007354736328125,-0.0377197265625,0.009857177734375
1783003383242179800,4.628179931640625,-1.006927490234375,-0.037017822265625,0.00933837890625
1783003383252231000,4.63823095703125,-1.0075531005859375,-0.0372467041015625,0.0093841552734375
1783003383262282000,4.648281982421875,-1.006500244140625,-0.0369415283203125,0.0105438232421875
1783003383272333800,4.658333740234375,-1.006744384765625,-0.0368499755859375,0.0108184814453125
1783003383282385000,4.668385009765625,-1.007476806640625,-0.036590576171875,0.0112457275390625
1783003383292436700,4.678436767578125,-1.0078125,-0.0376129150390625,0.0100860595703125
1783003383302487800,4.68848779296875,-1.0073394775390625,-0.037567138671875,0.009063720703125
1783003383312539000,4.698538818359375,-1.0075836181640625,-0.0375823974609375,0.00897216796875
1783003383322590700,4.7085908203125,-1.0077667236328125,-0.03802490234375,0.0092926025390625
1783003383332641800,4.718641845703125,-1.007354736328125,-0.0381622314453125,0.009490966796875
1783003383342694000,4.72869384765625,-1.0075836181640625,-0.03741455078125,0.00982666015625
1783003383352744700,4.73874462890625,-1.00726318359375,-0.0371551513671875,0.0100250244140625
1783003383362795800,4.748795654296875,-1.008148193359375,-0.03631591796875,0.0099945068359375
1783003383372847900,4.758847900390625,-1.0075225830078125,-0.036407470703125,0.0106201171875
1783003383382898700,4.768898681640625,-1.00665283203125,-0.037200927734375,0.0104217529296875
1783003383392950800,4.77895068359375,-1.0082244873046875,-0.037445068359375,0.0094757080078125
1783003383403001900,4.789001953125,-1.0078887939453125,-0.0378265380859375,0.0095062255859375
1783003383413054000,4.799053955078125,-1.0080718994140625,-0.0379791259765625,0.009368896484375
1783003383423104800,4.809104736328125,-1.009033203125,-0.0377655029296875,0.0093994140625
1783003383433155800,4.81915576171875,-1.0080108642578125,-0.037109375,0.009765625
1783003383443208000,4.8292080078125,-1.0078582763671875,-0.0371246337890625,0.009490966796875
1783003383453259000,4.839259033203125,-1.007171630859375,-0.0379638671875,0.0102081298828125
1783003383463310800,4.849310791015625,-1.0066680908203125,-0.038177490234375,0.00927734375
1783003383473362000,4.85936181640625,-1.0079803466796875,-0.0380706787109375,0.0101470947265625
1783003383483413000,4.8694130859375,-1.0081787109375,-0.0376129150390625,0.0097198486328125
1783003383493464800,4.87946484375,-1.0073394775390625,-0.037261962890625,0.01092529296875
1783003383503516000,4.889515869140625,-1.0068206787109375,-0.0378265380859375,0.0103759765625
1783003383513568000,4.899568115234375,-1.0068359375,-0.03814697265625,0.01019287109375
1783003383523618800,4.909618896484375,-1.0081329345703125,-0.037078857421875,0.0097808837890625
1783003383533671000,4.9196708984375,-1.0076904296875,-0.0359039306640625,0.0090179443359375
1783003383543722000,4.929721923828125,-1.0070953369140625,-0.0341644287109375,0.0094451904296875
1783003383553772800,4.939772705078125,-1.0074310302734375,-0.033477783203125,0.009002685546875
1783003383563825000,4.949824951171875,-1.00634765625,-0.034454345703125,0.0091705322265625
1783003383573876000,4.9598759765625,-1.0074005126953125,-0.03668212890625,0.0095672607421875
1783003383583927800,4.969927734375,-1.0089263916015625,-0.0373992919921875,0.00982666015625
1783003383593979000,4.979978759765625,-1.007110595703125,-0.0368804931640625,0.0093231201171875
1783003383604030000,4.990030029296875,-1.0072784423828125,-0.0365753173828125,0.0094146728515625
1783003383614081800,5.000081787109375,-1.0068817138671875,-0.0371856689453125,0.0090789794921875
1783003383624132900,5.0101328125,-1.0079193115234375,-0.037994384765625,0.00897216796875
1783003383634185000,5.02018505859375,-1.0079498291015625,-0.03863525390625,0.009613037109375
1783003383644235800,5.03023583984375,-1.008453369140625,-0.0402374267578125,0.010162353515625
1783003383654288000,5.040287841796875,-1.0079193115234375,-0.0395965576171875,0.0106201171875
1783003383664339000,5.0503388671875,-1.007293701171875,-0.039398193359375,0.01141357421875
1783003383674389800,5.0603896484375,-1.0071258544921875,-0.0389404296875,0.0118865966796875
1783003383684441900,5.07044189453125,-1.0079803466796875,-0.037994384765625,0.01190185546875
1783003383694493000,5.080492919921875,-1.0081787109375,-0.0370635986328125,0.0105743408203125
1783003383704544800,5.090544677734375,-1.00732421875,-0.0357208251953125,0.0089111328125
1783003383714595800,5.100595947265625,-1.0078125,-0.0361328125,0.009185791015625
1783003383724647000,5.11064697265625,-1.00750732421875,-0.03570556640625,0.0078887939453125
1783003383734698800,5.12069873046875,-1.0071258544921875,-0.036651611328125,0.00714111328125
1783003383744749800,5.130749755859375,-1.0070037841796875,-0.037200927734375,0.0078887939453125
1783003383754802000,5.140802001953125,-1.0070953369140625,-0.0374603271484375,0.00775146484375
1783003383764852700,5.150852783203125,-1.007354736328125,-0.036895751953125,0.0086669921875
1783003383774903800,5.16090380859375,-1.0076141357421875,-0.0369720458984375,0.01031494140625
1783003383784956000,5.170955810546875,-1.006622314453125,-0.03759765625,0.011016845703125
1783003383795007000,5.181007080078125,-1.007415771484375,-0.039154052734375,0.0122833251953125
1783003383805059000,5.19105908203125,-1.0070343017578125,-0.03887939453125,0.0123443603515625
1783003383815110000,5.20110986328125,-1.0071868896484375,-0.037872314453125,0.011993408203125
1783003383825162000,5.211161865234375,-1.0069122314453125,-0.0379180908203125,0.011138916015625
1783003383835213000,5.221213134765625,-1.007720947265625,-0.03924560546875,0.0104827880859375
1783003383845264000,5.231263916015625,-1.00836181640625,-0.038299560546875,0.0101776123046875
1783003383855316000,5.24131591796875,-1.007781982421875,-0.0373687744140625,0.0092926025390625
1783003383865367000,5.251366943359375,-1.0079803466796875,-0.0374755859375,0.0076751708984375
1783003383875419000,5.2614189453125,-1.00689697265625,-0.0378570556640625,0.0092926025390625
1783003383885470500,5.271470458984375,-1.0076446533203125,-0.0373687744140625,0.0107879638671875
1783003383895521300,5.281521240234375,-1.0084381103515625,-0.035552978515625,0.01068115234375
1783003383905573400,5.291573486328125,-1.004913330078125,-0.0356292724609375,0.0105743408203125
1783003383915624400,5.30162451171875,-0.9217071533203125,-0.031463623046875,0.0106964111328125
1783003383925676300,5.31167626953125,-1.09637451171875,-0.0440673828125,0.006622314453125
1783003383935727400,5.321727294921875,-1.022186279296875,-0.040283203125,0.0318603515625
1783003383945778400,5.3317783203125,-0.9593505859375,-0.0295257568359375,-0.013671875
1783003383955830300,5.341830322265625,-1.018646240234375,-0.043914794921875,0.0206146240234375
1783003383965881300,5.35188134765625,-1.0338134765625,-0.040771484375,0.016998291015625
1783003383975933400,5.361933349609375,-1.02838134765625,-0.0372467041015625,0.0149383544921875
