time,seconds_elapsed,z,y,x
1783003378688877300,0.074877197265625,-0.005891711451113224,0.02473197877407074,0.015186143107712269
1783003378698929400,0.084929443359375,-0.002573146251961589,-0.0362730510532856,-0.009093630127608776
1783003378708980200,0.094980224609375,-0.002909503411501646,-0.04518638551235199,-0.010853713378310204
1783003378719031300,0.10503125,-0.004831773228943348,-0.0068033114075660706,0.0037918086163699627
1783003378729083400,0.11508349609375,-0.005269863177090883,0.03809305652976036,0.019454125314950943
1783003378739134200,0.12513427734375,-0.006638728082180023,0.03990533947944641,0.02412557601928711
1783003378749186600,0.1351865234375,-0.005498894955962896,0.008524778299033642,0.008893893100321293
1783003378759237600,0.145237548828125,-0.0046424223110079765,-0.026883812621235847,-0.003552124137058854
1783003378769289500,0.15528955078125,-0.001600293442606926,-0.022434735670685768,-0.003635481232777238
1783003378779340500,0.165340576171875,-0.004621649626642466,0.004344947170466185,0.006544984877109528
1783003378789392400,0.175392333984375,-0.003460245206952095,0.028077706694602966,0.017952902242541313
1783003378799443500,0.185443359375,-0.004202734678983688,0.022128205746412277,0.01561411377042532
1783003378809495600,0.19549560546875,-0.0017062872648239136,-0.0002234392159152776,0.004156661685556173
1783003378819546400,0.20554638671875,-0.004126301966607571,-0.013371732085943222,-0.0007408913807012141
1783003378829598500,0.215598388671875,-0.004780906718224287,-0.006766825914382935,0.006149771623313427
1783003378839649500,0.2256494140625,-0.006522081326693296,0.012770922854542732,0.011465441435575485
1783003378849700400,0.235700439453125,-0.005588909611105919,0.021193701773881912,0.013583719730377197
1783003378859752400,0.24575244140625,-0.0037433390971273184,0.010849984362721443,0.010746654123067856
1783003378869803500,0.255803466796875,-0.003775563556700945,-0.003305515507236123,0.005888515617698431
1783003378879859500,0.265859375,-0.006057359743863344,-0.007267500273883343,-0.0008303736103698611
1783003378889910500,0.27591064453125,-0.005604356061667204,0.00004340952364145778,0.006569485645741224
1783003378899962400,0.28596240234375,-0.007262174040079117,0.013688115403056145,0.009832124225795269
1783003378910013400,0.296013427734375,-0.00401578051969409,0.012941897846758366,0.011089668609201908
1783003378920065500,0.3060654296875,-0.006609699688851833,0.004544417839497328,0.005345763172954321
1783003378930116600,0.31611669921875,-0.0037382792215794325,-0.0034946000669151545,0.004048803821206093
1783003378940168700,0.326168701171875,-0.004763862583786249,0.00041278995922766626,0.007389739155769348
1783003378950219500,0.336219482421875,-0.00436119269579649,0.004851480480283499,0.010123740881681442
1783003378960271600,0.346271728515625,-0.004945756401866674,0.01167183555662632,0.010699782520532608
1783003378970322700,0.35632275390625,-0.004263454582542181,0.009710418060421944,0.008473912253975868
1783003378980373500,0.36637353515625,-0.0033475933596491814,-0.0015584818320348859,0.008066448383033276
1783003378990425600,0.376425537109375,-0.004895955324172974,-0.0011563445441424847,0.006717557553201914
1783003379000476700,0.3864765625,-0.004632036201655865,0.005762547720223665,0.00634977500885725
1783003379010528500,0.396528564453125,-0.0054754591546952724,0.009486446157097816,0.008489358238875866
1783003379020579600,0.40657958984375,-0.004749215207993984,0.008469917811453342,0.010010289959609509
1783003379030631400,0.41663134765625,-0.005392102058976889,0.0028474517166614532,0.008658203296363354
1783003379040682500,0.4266826171875,-0.004320712294429541,0.0010269149206578732,0.005154814571142197
1783003379050734600,0.436734619140625,-0.00293373828753829,0.0021289309952408075,0.006057093385607004
1783003379060785400,0.446785400390625,-0.0016218650853261352,0.004063451196998358,0.007789480034261942
1783003379070837500,0.45683740234375,-0.0034530546981841326,0.006500243674963713,0.009949036873877048
1783003379080888600,0.466888671875,-0.004662395920604467,0.005184642039239407,0.007663512136787176
1783003379090939600,0.476939697265625,-0.004522047471255064,0.003406715579330921,0.006674148142337799
1783003379100991500,0.486991455078125,-0.0033907366450875998,0.002067412016913295,0.006551642436534166
1783003379111042600,0.49704248046875,-0.0035065840929746628,0.00586747657507658,0.010121077299118042
1783003379121094400,0.507094482421875,-0.005537777207791805,0.00842597521841526,0.010262757539749146
1783003379131145500,0.5171455078125,-0.0038453382439911366,0.0057345847599208355,0.009259277954697609
1783003379141197600,0.527197509765625,-0.004251470323652029,0.0006032059900462627,0.008477373979985714
1783003379151248400,0.537248291015625,-0.003073021536692977,0.0038187066093087196,0.006344981025904417
1783003379161300700,0.54730078125,-0.0028991170693188906,0.005857090000063181,0.005392634775489569
1783003379171351600,0.5573515625,-0.003178216516971588,0.003960653208196163,0.0049372343346476555
1783003379181403600,0.567403564453125,-0.005191832315176725,0.005798234138637781,0.006411560345441103
1783003379191454700,0.577454833984375,-0.0024588967207819223,0.0017496967921033502,0.006076002027839422
1783003379201505500,0.587505615234375,-0.005052815657109022,0.0038000645581632853,0.007671501953154802
1783003379211557600,0.5975576171875,-0.004965996369719505,0.0032234902027994394,0.006177468225359917
1783003379221608700,0.607608642578125,-0.004848018288612366,0.004801945760846138,0.008113852702081203
1783003379231660500,0.61766064453125,-0.003718838095664978,0.005449626594781876,0.006733004003763199
1783003379241711600,0.627711669921875,-0.00455746753141284,0.00561128044500947,0.007654191460460424
1783003379251763500,0.637763427734375,-0.003177950158715248,0.006515157409012318,0.008289621211588383
1783003379261814500,0.647814453125,-0.003227484878152609,0.005329251755028963,0.009384979493916035
1783003379271866600,0.65786669921875,-0.004035487771034241,0.0037089844699949026,0.008594021201133728
1783003379281917700,0.667917724609375,-0.004673581570386887,0.006433930713683367,0.006012352649122477
1783003379291969500,0.677969482421875,-0.00358807691372931,0.004474909510463476,0.00872291810810566
1783003379302020600,0.6880205078125,-0.0057287258096039295,0.0054754591546952724,0.005018194206058979
1783003379312071700,0.69807177734375,-0.005125519819557667,0.0037148434203118086,0.006166815757751465
1783003379322123500,0.70812353515625,-0.006468551699072123,0.004310326185077429,0.006879211403429508
1783003379332174600,0.718174560546875,-0.0037204360123723745,0.004254932515323162,0.006043511442840099
1783003379342226400,0.728226318359375,-0.005394765175879002,0.0038919434882700443,0.010036921128630638
1783003379352277500,0.738277587890625,-0.005650961305946112,0.005018194206058979,0.008862733840942383
1783003379362329600,0.74832958984375,-0.0054664043709635735,0.003746002446860075,0.007632086984813213
1783003379372380400,0.75838037109375,-0.0033076461404561996,0.005032309330999851,0.009851032868027687
1783003379382432500,0.7684326171875,-0.004839229863137007,0.005392634775489569,0.008471781387925148
1783003379392483600,0.778483642578125,-0.004734301473945379,0.0037952708080410957,0.008716526441276073
1783003379402535400,0.788535400390625,-0.0028272117488086224,0.0030543794855475426,0.009069927968084812
1783003379412586500,0.79858642578125,-0.0034405377227813005,0.0024772724136710167,0.008681372739374638
1783003379422637600,0.808637451171875,-0.004367051646113396,0.0036914076190441847,0.0070493873208761215
1783003379432689400,0.818689453125,-0.0026495789643377066,0.005447229836136103,0.007190534844994545
1783003379442740500,0.828740478515625,-0.002910568844527006,0.005300755612552166,0.007277354132384062
1783003379452792600,0.83879248046875,-0.0031425300985574722,0.006970025133341551,0.008230232633650303
1783003379462843600,0.84884375,-0.003988616168498993,0.0033907366450875998,0.006649114191532135
1783003379472895700,0.858895751953125,-0.00478383619338274,0.003035204717889428,0.007256048731505871
1783003379482946600,0.868946533203125,-0.005720736458897591,0.003300189273431897,0.010786601342260838
1783003379492998700,0.87899853515625,-0.003525226376950741,0.003912449814379215,0.007601993158459663
1783003379503049700,0.8890498046875,-0.0018439727136865258,0.006020075641572475,0.007652859669178724
1783003379513101600,0.8991015625,-0.005029646214097738,0.006196909584105015,0.008672850206494331
1783003379523152600,0.909152587890625,-0.004340686369687319,0.004312456585466862,0.008465123362839222
1783003379533203700,0.91920361328125,-0.0043923514895141125,0.0018341189716011286,0.008156197145581245
1783003379543255600,0.929255615234375,-0.004619519226253033,0.000728907180018723,0.0064863949082791805
1783003379553306600,0.939306640625,-0.004442685283720493,0.0024714134633541107,0.006455768831074238
1783003379563358500,0.9493583984375,-0.0070366039872169495,0.0035140409599989653,0.007195328362286091
1783003379573409500,0.959409423828125,-0.003733751829713583,0.004256796557456255,0.006514624692499638
1783003379583461600,0.969461669921875,-0.002799248555675149,0.004430967383086681,0.007778294384479523
1783003379593512400,0.979512451171875,-0.005438175052404404,0.004741225857287645,0.008146876469254494
1783003379603564500,0.989564453125,-0.0035028557758778334,0.007789213676005602,0.00806245394051075
1783003379613615600,0.99961572265625,-0.0040855552069842815,0.0049460227601230145,0.006972688250243664
1783003379623667500,1.00966748046875,-0.005658152047544718,0.0037473340053111315,0.0065439194440841675
1783003379633718500,1.019718505859375,-0.003981958609074354,0.005224056541919708,0.007284544408321381
1783003379643769600,1.02976953125,-0.002829076023772359,0.005650961305946112,0.008683502674102783
1783003379653821400,1.039821533203125,-0.003944674041122198,0.004448544234037399,0.007793208118528128
1783003379663872500,1.04987255859375,-0.005262406077235937,0.00239231763407588,0.005287706386297941
1783003379673924400,1.05992431640625,-0.004306863993406296,0.004186755511909723,0.009980728849768639
1783003379683975400,1.069975341796875,-0.002371278591454029,0.005851763766258955,0.007601993158459663
1783003379694027500,1.080027587890625,-0.004348143003880978,0.004622715059667826,0.007735417690128088
1783003379704078300,1.090078369140625,-0.0038091193418949842,0.006042446009814739,0.0067966533824801445
1783003379714130700,1.100130615234375,-0.004683701321482658,0.0018871158827096224,0.006423810962587595
1783003379724181800,1.110181640625,-0.0035185683518648148,0.005787848029285669,0.009819074533879757
1783003379734232300,1.120232421875,-0.003955060616135597,0.004457066301256418,0.006988401059061289
1783003379744284700,1.13028466796875,-0.0025305356830358505,0.0046325684525072575,0.007891478948295116
1783003379754335700,1.140335693359375,-0.0034495925065129995,0.005948702804744244,0.009453688748180866
1783003379764387600,1.1503876953125,-0.004513525404036045,0.004664793144911528,0.008130097761750221
1783003379774438700,1.160438720703125,-0.0024674187880009413,0.003605121048167348,0.01008166279643774
1783003379784490500,1.170490478515625,-0.0030897995457053185,0.0026027073618024588,0.006376406643539667
1783003379794541600,1.18054150390625,-0.004307929426431656,0.0019430422689765692,0.005031510256230831
1783003379804593700,1.19059375,-0.005281581077724695,0.0020181434229016304,0.010571418330073357
1783003379814644500,1.20064453125,-0.002686330582946539,0.005050418432801962,0.008798818103969097
1783003379824695600,1.210695556640625,-0.00344533147290349,0.004229366313666105,0.006981743033975363
1783003379834747600,1.22074755859375,-0.004721251782029867,0.00697987899184227,0.008153799921274185
1783003379844798500,1.230798583984375,-0.00526799913495779,0.004853078629821539,0.007385211996734142
1783003379854850600,1.2408505859375,-0.0034357442054897547,0.005922870244830847,0.008132761344313622
1783003379864901600,1.250901611328125,-0.004246676806360483,0.005630721338093281,0.00999191403388977
1783003379874949400,1.260949462890625,-0.004036553204059601,0.002409361768513918,0.008095743134617805
1783003379885000400,1.27100048828125,-0.001121457084082067,0.003216033335775137,0.0070794811472296715
1783003379895052500,1.281052490234375,-0.004543885588645935,0.0035111114848405123,0.007890413515269756
1783003379905103400,1.291103271484375,-0.00364746549166739,0.003531617810949683,0.00862970668822527
1783003379915155500,1.301155517578125,-0.004039216320961714,0.003344131400808692,0.009475527331233025
1783003379925206500,1.31120654296875,-0.004887699615210295,0.0031944618094712496,0.007211573887616396
1783003379935257300,1.32125732421875,-0.00430286955088377,0.006679740734398365,0.006016879808157682
1783003379945309400,1.331309326171875,-0.0027561055030673742,0.005319397896528244,0.008051801472902298
1783003379955360500,1.341360595703125,-0.005469067487865686,0.005526059307157993,0.009259810671210289
1783003379965412600,1.35141259765625,-0.0008013451588340104,0.005167864263057709,0.00936127733439207
1783003379975463400,1.36146337890625,-0.005543103441596031,0.00561154680326581,0.007719172164797783
1783003379985515500,1.371515625,-0.005894374568015337,0.006205698009580374,0.008202802389860153
1783003379995566600,1.381566650390625,-0.00413509039208293,0.002520149340853095,0.008945558220148087
1783003380005618700,1.39161865234375,-0.0044077979400753975,0.0036826191935688257,0.008924785070121288
1783003380015669500,1.40166943359375,-0.005539641249924898,0.0021763353142887354,0.00830746442079544
1783003380025720600,1.411720458984375,-0.0016207997687160969,0.0018511632224544883,0.007922371849417686
1783003380035772700,1.421772705078125,-0.00458836043253541,0.0034296188969165087,0.006352704484015703
1783003380045823500,1.431823486328125,-0.0041188448667526245,0.00561181316152215,0.0062616243958473206
1783003380055875600,1.44187548828125,-0.002103098202496767,0.004834702704101801,0.008252870291471481
1783003380065926700,1.4519267578125,-0.006370814051479101,0.0037705034483224154,0.007830758579075336
1783003380075978500,1.461978515625,-0.0038842204958200455,0.00615243474021554,0.006938599981367588
1783003380086029600,1.472029541015625,-0.004708468914031982,0.006743390113115311,0.009671268984675407
1783003380096081400,1.482081298828125,-0.005116198677569628,0.005827528890222311,0.007548197638243437
1783003380106132500,1.492132568359375,-0.0036916739773005247,0.00404640706256032,0.006162022240459919
1783003380116183600,1.50218359375,-0.004577441141009331,0.00580862071365118,0.007032076828181744
1783003380126235400,1.5122353515625,-0.00250470289029181,0.00261841993778944,0.007232346571981907
1783003380136286500,1.522286376953125,-0.003739610780030489,0.0021281319204717875,0.00899882148951292
1783003380146338600,1.532338623046875,-0.005529255140572786,0.0021758025977760553,0.008587629534304142
1783003380156389400,1.542389404296875,-0.004576376173645258,0.004032292403280735,0.007962585426867008
1783003380166441500,1.55244140625,-0.003605920122936368,0.00501180300489068,0.006173740141093731
1783003380176492500,1.562492431640625,-0.004584898240864277,0.006870156619697809,0.01011095754802227
1783003380186544400,1.57254443359375,-0.005794239696115255,0.005203816574066877,0.007229150738567114
1783003380196595500,1.582595458984375,-0.0034503915812820196,0.00663606496527791,0.007626760751008987
1783003380206646500,1.592646484375,-0.0035808864049613476,0.0024285365361720324,0.010233196429908276
1783003380216698400,1.602698486328125,-0.006225671619176865,0.004030694253742695,0.0092936335131526
1783003380226749400,1.61274951171875,-0.0038330876268446445,0.0008809737046249211,0.011259312741458416
1783003380236801300,1.62280126953125,-0.004664260428398848,0.004715126473456621,0.006810235325247049
1783003380246852400,1.632852294921875,-0.0029760824982076883,0.0031459920573979616,0.008501076139509678
1783003380256904700,1.64290478515625,-0.0036362800747156143,0.0037561224307864904,0.006822485942393541
1783003380266955500,1.65295556640625,-0.0046173888258636,0.005548696033656597,0.008576976135373116
1783003380277007600,1.663007568359375,-0.005244030617177486,0.00287434970960021,0.007042197044938803
1783003380287058700,1.67305859375,-0.001671932521276176,0.004831506870687008,0.009018794633448124
1783003380297109500,1.683109619140625,-0.00239231763407588,0.0054213968105614185,0.006071208510547876
1783003380307161600,1.69316162109375,-0.0026013758033514023,0.005392368417233229,0.010130664333701134
1783003380317212700,1.703212646484375,-0.003704190719872713,0.004180363845080137,0.009156480431556702
1783003380327264500,1.713264404296875,-0.0049217878840863705,0.005918342620134354,0.007788947317749262
1783003380337315600,1.723315673828125,-0.0011848403373733163,0.0029984530992805958,0.008384696207940578
1783003380347367400,1.733367431640625,-0.004801146686077118,0.00398755120113492,0.006231796927750111
1783003380357418500,1.74341845703125,-0.003937483765184879,0.004080761689692736,0.008508266881108284
1783003380367470600,1.753470703125,-0.005412076134234667,0.0034107104875147343,0.008481102995574474
1783003380377521400,1.763521484375,-0.004270378965884447,0.005216067191213369,0.008731439709663391
1783003380387572500,1.773572509765625,-0.003312173532322049,0.00529542937874794,0.006569752003997564
1783003380397624600,1.78362451171875,-0.004549744538962841,0.005732720717787743,0.0073407371528446674
1783003380407675400,1.79367529296875,-0.004003263544291258,0.004851746838539839,0.009182047098875046
1783003380417727500,1.8037275390625,-0.004971322603523731,0.005732454359531403,0.011263573542237282
1783003380427778600,1.813778564453125,-0.0049316417425870895,0.005058141890913248,0.006872020661830902
1783003380437830400,1.823830322265625,-0.003621100215241313,0.005036836490035057,0.007730357814580202
1783003380447881500,1.833881591796875,-0.005273059010505676,0.0026996464002877474,0.005510080140084028
1783003380457933300,1.843933349609375,-0.0015936355339363217,0.0038772961124777794,0.0048826392740011215
1783003380467984400,1.853984375,-0.00307675008662045,0.005907423794269562,0.0076155755668878555
1783003380478035500,1.864035400390625,-0.003358778776600957,0.00458756135776639,0.007127151824533939
1783003380488087300,1.87408740234375,-0.007151652593165636,0.004553472623229027,0.009857158176600933
1783003380498138400,1.884138427734375,-0.0031044469214975834,0.0067844027653336525,0.008350607939064503
1783003380508190500,1.8941904296875,-0.005518868565559387,0.003960653208196163,0.009945308789610863
1783003380518241300,1.9042412109375,-0.0024442493449896574,0.0016437029698863626,0.010175406001508236
1783003380528293600,1.914293701171875,-0.004546282347291708,0.003611512714996934,0.007202785462141037
1783003380538344400,1.924344482421875,-0.0034075146540999413,0.003029079409316182,0.008638495579361916
1783003380548396500,1.934396484375,-0.0018727348651736975,0.0038274950347840786,0.009665942750871181
1783003380558447600,1.944447509765625,-0.005346828605979681,0.004493019077926874,0.009208145551383495
1783003380568498700,1.954498779296875,-0.0027023095171898603,0.005754292011260986,0.008086688816547394
1783003380578550500,1.964550537109375,-0.0059870523400604725,0.005827795248478651,0.009938650764524937
1783003380588601600,1.9746015625,-0.004486893769353628,0.002641589380800724,0.006432599388062954
1783003380598653400,1.9846533203125,-0.006024869158864021,0.0034261567052453756,0.0109474565833807
1783003380608704500,1.99470458984375,-0.004316185135394335,0.003552656853571534,0.007881891913712025
1783003380618756600,2.004756591796875,-0.0019225359428673983,0.003974767867475748,0.007321828510612249
1783003380628807400,2.014807373046875,-0.003674097126349807,0.0049406965263187885,0.008617988787591457
1783003380638858500,2.0248583984375,-0.0037795582320541143,0.005560413934290409,0.004449343308806419
1783003380648910600,2.03491064453125,-0.0027087011840194464,0.004486361052840948,0.0072989254258573055
1783003380658961400,2.04496142578125,-0.007901598699390888,0.0028993834275752306,0.009502957575023174
1783003380669013500,2.055013427734375,-0.0032344090286642313,0.003933222498744726,0.00848802737891674
1783003380679064600,2.065064697265625,-0.005663478281348944,0.004425374791026115,0.0084262415766716
1783003380689116400,2.075116455078125,-0.004817658569663763,0.006953513715416193,0.007789480034261942
1783003380699167500,2.08516748046875,-0.004677576012909412,0.0018154769204556942,0.009461145848035812
1783003380709219300,2.09521923828125,-0.0018969696247950196,0.003460511565208435,0.008196943439543247
1783003380719270400,2.1052705078125,-0.003665042342618108,0.0065713501535356045,0.006423278246074915
1783003380729321500,2.115321533203125,-0.0019417107105255127,0.006864031311124563,0.010185525752604008
1783003380739373600,2.12537353515625,-0.004542021080851555,0.0011137339752167463,0.010412427596747875
1783003380749424400,2.13542431640625,-0.003367034485563636,0.0033036512322723866,0.009134110063314438
1783003380759476500,2.1454765625,-0.0033185649663209915,0.00449887802824378,0.006374808494001627
1783003380769527600,2.155527587890625,-0.004855741746723652,0.0039145806804299355,0.006695985794067383
1783003380779579400,2.165579345703125,-0.0027387947775423527,0.004568652715533972,0.013261210173368454
1783003380789630500,2.17563037109375,-0.004836566746234894,0.005184908397495747,0.00845393817871809
1783003380799682600,2.1856826171875,-0.0065441858023405075,0.00660410663112998,0.008039550855755806
1783003380809733400,2.1957333984375,-0.003979827743023634,0.005215002223849297,0.008347145281732082
1783003380819784400,2.205784423828125,-0.004520449787378311,0.0010010822443291545,0.006613161414861679
1783003380829836500,2.21583642578125,-0.003769171889871359,0.0035401401109993458,0.006387591827660799
1783003380839887400,2.225887451171875,-0.004592621233314276,0.005696767941117287,0.006755640730261803
1783003380849939700,2.235939697265625,-0.004028031136840582,0.0022596921771764755,0.006317018065601587
1783003380859990500,2.245990478515625,-0.004476773552596569,0.0035515916533768177,0.005578257143497467
1783003380870042600,2.256042724609375,-0.00518837058916688,0.005680788774043322,0.010223343037068844
1783003380880094000,2.266093994140625,-0.002728142309933901,0.004704207647591829,0.012684635818004608
1783003380890145000,2.27614501953125,-0.003471696749329567,0.007722101639956236,0.007894940674304962
1783003380900197000,2.286197021484375,-0.0041161817498505116,0.007454720325767994,0.00857271533459425
1783003380910248000,2.296248046875,-0.0017204020405188203,0.003552923211827874,0.00820946041494608
1783003380920300000,2.306300048828125,-0.004334028344601393,0.0020897823851555586,0.008869125507771969
1783003380930351000,2.31635107421875,-0.0029640982393175364,0.005792907904833555,0.007673099637031555
1783003380940403000,2.32640283203125,-0.004255731590092182,0.003269562730565667,0.007437409833073616
1783003380950454000,2.3364541015625,-0.005004878621548414,0.00321869645267725,0.005795038305222988
1783003380960505900,2.346505859375,-0.003555319970473647,0.0016157397767528892,0.00624085171148181
1783003380970557000,2.356556884765625,-0.004576376173645258,0.0005763080553151667,0.00774660287424922
1783003380980608000,2.36660791015625,-0.003438939806073904,0.004111920483410358,0.008829976432025433
1783003380990659800,2.376659912109375,-0.004023769870400429,0.004809668753296137,0.007758320774883032
1783003381000711000,2.3867109375,-0.0034639735240489244,0.005930593237280846,0.0073133064433932304
1783003381010763000,2.396762939453125,-0.0035329493694007397,0.0039036613889038563,0.011863317340612411
1783003381020813800,2.406813720703125,-0.004472512751817703,0.004855475388467312,0.007446198258548975
1783003381030866000,2.416865966796875,-0.0035542547702789307,0.0028871328104287386,0.005739910993725061
1783003381040917000,2.4269169921875,-0.003067428944632411,0.0037824877072125673,0.009051019325852394
1783003381050967800,2.4369677734375,-0.004512193612754345,0.00443869037553668,0.009692042134702206
1783003381061020000,2.44702001953125,-0.00437956815585494,0.005751895252615213,0.008760201744735241
1783003381071071000,2.457071044921875,-0.004576642066240311,0.0016389093361794949,0.008685100823640823
1783003381081123000,2.467123046875,-0.004228034522384405,0.003943875432014465,0.00782676413655281
1783003381091174000,2.477173828125,-0.003662112867459655,0.004132693167775869,0.005280515644699335
1783003381101226000,2.48722607421875,-0.0025502429343760014,0.005075718741863966,0.00905581284314394
1783003381111277000,2.497277099609375,-0.004720719531178474,0.004150270018726587,0.007251254748553038
1783003381121329200,2.5073291015625,-0.004519384354352951,0.0035947347059845924,0.011062771081924438
1783003381131380000,2.5173798828125,-0.005032042972743511,0.0034495925065129995,0.008253135718405247
1783003381141431000,2.52743115234375,-0.001722532557323575,0.004726844374090433,0.007786816451698542
1783003381151483100,2.537483154296875,-0.00398701848462224,0.004775047767907381,0.008982841856777668
1783003381161534000,2.547533935546875,-0.0036301547661423683,0.007540740538388491,0.012270514853298664
1783003381171586000,2.5575859375,-0.00526640098541975,0.006304501090198755,0.011094995774328709
1783003381181637000,2.56763720703125,-0.00436145905405283,0.006449909880757332,0.00911520142108202
1783003381191689000,2.57768896484375,-0.002175003755837679,0.004246676806360483,0.006699447985738516
1783003381201740000,2.587739990234375,-0.0034756914246827364,0.004315918777137995,0.010998855344951153
1783003381211791000,2.597791015625,-0.00464721629396081,0.003649862250313163,0.007203584536910057
1783003381221843000,2.607843017578125,-0.0019742012955248356,0.004005128052085638,0.007075752597302198
1783003381231894000,2.61789404296875,-0.006325007416307926,0.003370763035491109,0.010432134382426739
1783003381241945900,2.62794580078125,-0.0024557008873671293,0.0051987566985189915,0.008902947418391705
1783003381251997000,2.637996826171875,-0.004978246986865997,0.005073854699730873,0.007337008602917194
1783003381262049000,2.648049072265625,-0.004048271104693413,0.004007524810731411,0.00833702553063631
1783003381272100000,2.65810009765625,-0.005306348204612732,0.004051200579851866,0.006844057701528072
1783003381282151000,2.66815087890625,-0.0051659997552633286,0.005840578582137823,0.006412093061953783
1783003381292203000,2.678203125,-0.005766542628407478,0.003976631909608841,0.009249158203601837
1783003381302254000,2.688254150390625,-0.003231213428080082,0.006657103542238474,0.00932266190648079
1783003381312306000,2.698305908203125,-0.0041529336012899876,0.005087170284241438,0.009340505115687847
1783003381322357000,2.70835693359375,-0.0017899106023833156,0.004825381562113762,0.007333280518651009
1783003381332408800,2.718408935546875,-0.0032623722217977047,0.005638178437948227,0.007299458142369986
1783003381342460000,2.7284599609375,-0.005533782299607992,0.004865062423050404,0.00845633540302515
1783003381352512000,2.738511962890625,-0.0034200313966721296,0.00452684098854661,0.008114651776850224
1783003381362562800,2.748562744140625,-0.00503923324868083,0.004159058444201946,0.006163886282593012
1783003381372614000,2.75861376953125,-0.005744970869272947,0.003941211849451065,0.008832906372845173
1783003381382666000,2.768666015625,-0.004098604898899794,0.0028461201582103968,0.009006012231111526
1783003381392716800,2.778716796875,-0.004523379262536764,0.004515655804425478,0.006470416206866503
1783003381402769200,2.78876904296875,-0.0026794064324349165,0.004294879734516144,0.007099454756826162
1783003381412820200,2.7988203125,-0.0049191247671842575,0.0026841999497264624,0.005509813781827688
1783003381422872000,2.8088720703125,-0.0024554345291107893,0.006658968050032854,0.006855242885649204
1783003381432923100,2.818923095703125,-0.0032631712965667248,0.0019430422689765692,0.006076002027839422
1783003381442974200,2.82897412109375,-0.00680144689977169,0.0070283482782542706,0.008142881095409393
1783003381453026000,2.839026123046875,-0.005196892656385899,0.005642705596983433,0.008869658224284649
1783003381463077000,2.8490771484375,-0.007671235594898462,0.004475442226976156,0.006638728082180023
1783003381473129000,2.85912890625,-0.004366252571344376,0.005029379855841398,0.007535147946327925
1783003381483180000,2.869179931640625,-0.004474909510463476,0.0028458540327847004,0.009486978873610497
1783003381493232000,2.879232177734375,-0.00478410255163908,0.004032824654132128,0.007893077097833157
1783003381503283000,2.889282958984375,-0.0023635553661733866,0.004929777234792709,0.004393416922539473
1783003381513334000,2.899333984375,-0.004567055031657219,0.002281796419993043,0.009897371754050255
1783003381523386000,2.90938623046875,-0.002141447737812996,0.0034943337086588144,0.00752023421227932
1783003381533437000,2.91943701171875,-0.004491953644901514,0.005504221189767122,0.0101991081610322
1783003381543489000,2.929489013671875,-0.0029350698459893465,0.0052051483653485775,0.0075194351375103
1783003381553540000,2.9395400390625,-0.006452306639403105,0.00436039362102747,0.006003297865390778
1783003381563592000,2.949592041015625,-0.001677791471593082,0.004007791168987751,0.007440605666488409
1783003381573643000,2.95964306640625,-0.0068062408827245235,0.003893541404977441,0.006176136899739504
1783003381583694800,2.96969482421875,-0.004676776938140392,0.0039278962649405,0.00812237523496151
1783003381593746000,2.979745849609375,-0.0031827439088374376,0.0041068606078624725,0.006302104331552982
1783003381603797000,2.989796875,-0.00458756135776639,0.00424135010689497,0.009333048015832901
1783003381613848800,2.999848876953125,-0.0055803875438869,0.0037886130157858133,0.007089867256581783
1783003381623900000,3.00989990234375,-0.003709783311933279,0.004962534178048372,0.010392187163233757
1783003381633952000,3.019951904296875,-0.0017299894243478775,0.0037505298387259245,0.010211092419922352
1783003381644002800,3.0300029296875,-0.0018381137633696198,0.006046174559742212,0.008129565045237541
1783003381654055000,3.040054931640625,-0.004339088220149279,0.003216033335775137,0.009289371781051159
1783003381664106000,3.05010595703125,-0.004717257339507341,0.004236556589603424,0.007785485126078129
1783003381674156800,3.06015673828125,-0.003582750679925084,0.0049319081008434296,0.009890980087220669
1783003381684209200,3.070209228515625,-0.0049026133492589,0.003920705523341894,0.00914556160569191
1783003381694260000,3.080260009765625,-0.0030892668291926384,0.0044080642983317375,0.011057977564632893
1783003381704312000,3.09031201171875,-0.004456267226487398,0.006595051847398281,0.006191849708557129
1783003381714363100,3.100363037109375,-0.003400324145331979,0.004480768460780382,0.009270197711884975
1783003381724415000,3.1104150390625,-0.005529787857085466,0.002773415995761752,0.008688030764460564
1783003381734466000,3.120466064453125,-0.005663744639605284,0.0034352114889770746,0.0073505910113453865
1783003381744517000,3.13051708984375,-0.005397961009293795,0.001984587637707591,0.006371080409735441
1783003381754569000,3.14056884765625,-0.004174504894763231,0.004314587451517582,0.007224090863019228
1783003381764620000,3.1506201171875,-0.003912982530891895,0.004941761493682861,0.010455570183694363
1783003381774672100,3.160672119140625,-0.0026549051981419325,0.005770004820078611,0.005991047248244286
1783003381784723000,3.170722900390625,-0.0015816513914614916,0.006884537637233734,0.007839014753699303
1783003381794775000,3.180775146484375,-0.0054845139384269714,0.006145243998616934,0.0094507597386837
1783003381804826000,3.190826171875,-0.004286091309040785,0.004308462142944336,0.007272027432918549
1783003381814877000,3.200876953125,-0.005447229836136103,0.005711681675165892,0.011544004082679749
1783003381824929000,3.210928955078125,-0.003025883575901389,0.0032828785479068756,0.009159942157566547
1783003381834980000,3.22097998046875,-0.0023696806747466326,0.00444055488333106,0.00634897593408823
1783003381845032000,3.231031982421875,-0.002326004905626178,0.003960120491683483,0.008883239701390266
1783003381855083000,3.2410830078125,-0.004878911189734936,0.003187004942446947,0.005115665961056948
1783003381865134800,3.251134765625,-0.005003813188523054,0.0035537220537662506,0.00809094961732626
1783003381875186000,3.26118603515625,-0.004332962911576033,0.004542553797364235,0.005103415343910456
1783003381885237000,3.271237060546875,-0.0011049455497413874,0.004013383761048317,0.009913883171975613
1783003381895288800,3.281288818359375,-0.007762049324810505,0.0037878139410167933,0.009924801997840405
1783003381905340000,3.29133984375,-0.0046445527113974094,0.0009843043517321348,0.0064986455254256725
1783003381915392000,3.30139208984375,-0.0041398839093744755,0.0039084553718566895,0.007178550586104393
1783003381925442800,3.31144287109375,-0.0051905009895563126,0.003571032779291272,0.00839721318334341
1783003381935495000,3.321494873046875,-0.005018726922571659,0.0016825852217152715,0.004977447912096977
1783003381945546000,3.3315458984375,-0.005349758081138134,0.0038192393258213997,0.009668339975178242
1783003381955596800,3.3415966796875,-0.001371794263832271,0.0030927290208637714,0.010002566501498222
1783003381965649000,3.35164892578125,-0.007558583747595549,0.005746036302298307,0.005843508057296276
1783003381975700000,3.361699951171875,-0.0027779433876276016,0.002478337613865733,0.008856874890625477
1783003381985752000,3.371751953125,-0.003689276985824108,0.006608634255826473,0.012171711772680283
1783003381995803100,3.38180322265625,-0.003739877138286829,0.005598230753093958,0.006786266807466745
1783003382005855000,3.39185498046875,-0.003567570587620139,0.0054182009771466255,0.007214503362774849
1783003382015906000,3.401906005859375,-0.006178800016641617,0.004904477391391993,0.007160973735153675
1783003382025957000,3.41195703125,-0.005275455769151449,0.0027595674619078636,0.006046440917998552
1783003382036009000,3.422009033203125,-0.0067873322404921055,0.004707403481006622,0.007103449665009975
1783003382046060000,3.43206005859375,-0.005636047571897507,0.0027025758754462004,0.007412376347929239
1783003382056112000,3.442112060546875,-0.003964914008975029,0.006050968077033758,0.008773784153163433
1783003382066163000,3.452162841796875,-0.0035899411886930466,0.006786266807466745,0.008350075222551823
1783003382076215000,3.462215087890625,-0.003656253917142749,0.003087935270741582,0.007705590222030878
1783003382086266000,3.47226611328125,-0.003783819265663624,0.004719121381640434,0.00821079220622778
1783003382096317000,3.48231689453125,-0.0028154938481748104,0.002526274649426341,0.006500510033220053
1783003382106369000,3.492369140625,-0.005535912699997425,0.004840828012675047,0.007103183306753635
1783003382116420000,3.502420166015625,-0.0036429380998015404,0.007893343456089497,0.005711415316909552
1783003382126472000,3.512471923828125,-0.004588892683386803,0.0030775489285588264,0.008299209177494049
1783003382136523000,3.52252294921875,-0.0018871158827096224,0.0046876962296664715,0.004998753312975168
1783003382146574800,3.532574951171875,-0.006269347388297319,0.0038772961124777794,0.008319182321429253
1783003382156626000,3.5426259765625,-0.0031491878908127546,0.004369448404759169,0.007154582068324089
1783003382166677000,3.552677001953125,-0.004788896068930626,0.0016221314435824752,0.006997988559305668
1783003382176729000,3.56272900390625,-0.003328951308503747,0.0029119004029780626,0.006886934395879507
1783003382186780000,3.57277978515625,-0.003856257302686572,0.0014716627774760127,0.007644071243703365
1783003382196832000,3.58283203125,-0.003153448924422264,0.003644269658252597,0.007224357221275568
1783003382206883000,3.592883056640625,-0.0026762105990201235,0.003240001853555441,0.007184409536421299
1783003382216935000,3.602934814453125,-0.005270395893603563,0.003373692510649562,0.00803449098020792
1783003382226986000,3.612986083984375,-0.00424188282340765,0.0037766287568956614,0.007476824801415205
1783003382237037000,3.623037109375,-0.003296727081760764,0.003674629610031843,0.006175337824970484
1783003382247089000,3.6330888671875,-0.004172640852630138,0.005762547720223665,0.008340221829712391
1783003382257140000,3.643139892578125,-0.0005217132274992764,0.004821653012186289,0.008637163788080215
1783003382267191800,3.65319189453125,-0.0025012409314513206,0.0035396073944866657,0.007417702581733465
1783003382277243000,3.663242919921875,-0.003525226376950741,0.002478337613865733,0.006025401875376701
1783003382287295000,3.673294921875,-0.004801679402589798,0.003849332919344306,0.007399593014270067
1783003382297346000,3.683345947265625,-0.0028477180749177933,0.0032631712965667248,0.008538094349205494
1783003382307396900,3.69339697265625,-0.002764627570286393,0.0023904533591121435,0.010246512480080128
1783003382317449200,3.70344921875,-0.0052179316990077496,0.005374525208026171,0.00911520142108202
1783003382327500000,3.7135,-0.004479170776903629,0.004939631093293428,0.007551925722509623
1783003382337552100,3.72355224609375,-0.0046546729281544685,0.0034117756877094507,0.005569468718022108
1783003382347603200,3.733603271484375,-0.005242432467639446,0.00387356779538095,0.008153000846505165
1783003382357655000,3.743655029296875,-0.003933488857001066,0.0057284594513475895,0.008185758255422115
1783003382367706000,3.7537060546875,-0.0041036647744476795,0.0016471651615574956,0.009169263765215874
1783003382377757200,3.763757080078125,-0.0043561323545873165,0.005612878128886223,0.005982525181025267
1783003382387809000,3.77380908203125,-0.004356665071099997,0.0038658445701003075,0.009077384136617184
1783003382397860000,3.783860107421875,-0.003951065707951784,0.004591023549437523,0.007947404868900776
1783003382407912000,3.793911865234375,-0.004258661065250635,0.0035606464371085167,0.009471000172197819
1783003382417963000,3.803962890625,-0.006517820525914431,0.00387276872061193,0.011257714591920376
1783003382428014000,3.81401416015625,-0.004314321093261242,0.007554056588560343,0.00774820102378726
1783003382438066000,3.82406591796875,-0.004997155629098415,0.006476807873696089,0.007768174633383751
1783003382448117000,3.834116943359375,-0.005031776614487171,0.006595318205654621,0.010041449218988419
1783003382458169000,3.844169189453125,-0.003853061469271779,0.005620601586997509,0.0070251524448394775
1783003382468220000,3.854219970703125,-0.00430233683437109,0.0024080302100628614,0.008796953596174717
1783003382478272000,3.86427197265625,-0.003867708845064044,0.00213532242923975,0.00836658664047718
1783003382488323000,3.874322998046875,-0.0038195056840777397,0.004238953348249197,0.0059843892231583595
1783003382498374000,3.884373779296875,-0.004447478801012039,0.005799299571663141,0.009007343091070652
1783003382508426000,3.894426025390625,-0.004011785611510277,0.0054392400197684765,0.009824933484196663
1783003382518477000,3.90447705078125,-0.004037085920572281,0.005665076430886984,0.007749265991151333
1783003382528529000,3.91452880859375,-0.005027248989790678,0.0028037759475409985,0.00800439715385437
1783003382538580000,3.924580078125,-0.006587595213204622,0.004159591160714626,0.005339371506124735
1783003382548631800,3.9346318359375,-0.004491420928388834,0.005566539242863655,0.010579939931631088
1783003382558683000,3.944682861328125,-0.004768389742821455,0.002011485630646348,0.010497914627194405
1783003382568734000,3.95473388671875,-0.004501807503402233,0.004519117996096611,0.008622516877949238
1783003382578785800,3.964785888671875,-0.004686630796641111,0.007268032990396023,0.006686931010335684
1783003382588836900,3.9748369140625,-0.0034120420459657907,0.005626460537314415,0.007291735149919987
1783003382598889200,3.98488916015625,-0.0027827369049191475,0.003040530951693654,0.009122658520936966
1783003382608939800,3.994939697265625,-0.003808586625382304,0.002507898723706603,0.007542870938777924
1783003382618990800,4.004990966796875,-0.0031334753148257732,0.0059601543471217155,0.007254184223711491
1783003382629043200,4.015043212890625,-0.005650961305946112,0.00452737370505929,0.007601194549351931
1783003382639094000,4.025093994140625,-0.005750563926994801,0.003912982530891895,0.00803342554718256
1783003382649146000,4.03514599609375,-0.004151601810008287,0.0029414615128189325,0.008733037859201431
1783003382659197200,4.045197265625,-0.00433189794421196,0.006253102328628302,0.0073111760430037975
1783003382669249000,4.0552490234375,-0.003921504598110914,0.0033630398102104664,0.006428604479879141
1783003382679300000,4.065300048828125,-0.005245628301054239,0.003870904678478837,0.007285609841346741
1783003382689351200,4.07535107421875,-0.003712979145348072,0.006442186422646046,0.009941314347088337
1783003382699403000,4.085403076171875,-0.004338289611041546,0.002416019793599844,0.007760451175272465
1783003382709454000,4.0954541015625,-0.001966744428500533,0.005346562247723341,0.007542072329670191
1783003382719506000,4.105505859375,-0.00424294825643301,0.0052147358655929565,0.0073258234187960625
1783003382729557000,4.115556884765625,-0.002807770622894168,0.0059633501805365086,0.008556203916668892
1783003382739609000,4.125609130859375,-0.004052532371133566,0.006371346767991781,0.00878949649631977
1783003382749660000,4.135659912109375,-0.004132160916924477,0.00430180411785841,0.007466704584658146
1783003382759711000,4.1457109375,-0.0023787354584783316,0.005587311927229166,0.009050752967596054
1783003382769763000,4.15576318359375,-0.0037406759802252054,0.004912200383841991,0.008670985698699951
1783003382779814000,4.16581396484375,-0.0038980687968432903,0.004177700728178024,0.007891478948295116
1783003382789866000,4.175865966796875,-0.0051622712053358555,0.003760383464396,0.006905843038111925
1783003382799917000,4.1859169921875,-0.003936684690415859,0.005510080140084028,0.008313856087625027
1783003382809967900,4.1959677734375,-0.003120425855740905,0.0028447885997593403,0.005434446502476931
1783003382820020000,4.20602001953125,-0.004686897154897451,0.004749481566250324,0.007650995627045631
1783003382830071000,4.216071044921875,-0.0022530341520905495,0.0051809134893119335,0.008377505466341972
1783003382840123000,4.226122802734375,-0.0049249837175011635,0.006657902617007494,0.005967611446976662
1783003382850174000,4.236174072265625,-0.003010703483596444,0.004690092988312244,0.008952748961746693
1783003382860225800,4.246225830078125,-0.004483964294195175,0.004794488660991192,0.008822786621749401
1783003382870276900,4.25627685546875,-0.0031414648983627558,0.00692049041390419,0.007248325273394585
1783003382880328000,4.266327880859375,-0.0076177059672772884,0.003457049373537302,0.007832889445126057
1783003382890380000,4.276380126953125,-0.005242698825895786,0.004206196404993534,0.006986270658671856
1783003382900430800,4.286430908203125,-0.003754524514079094,0.0029971215408295393,0.008982576429843903
1783003382910483000,4.29648291015625,-0.005675196181982756,0.005691708065569401,0.00509782275184989
1783003382920534000,4.306533935546875,-0.0041763694025576115,0.0019387812353670597,0.008372711949050426
1783003382930585900,4.3165859375,-0.004762264434248209,0.0068448567762970924,0.00782516598701477
1783003382940637000,4.326636962890625,-0.004718055948615074,0.005366535857319832,0.008334362879395485
1783003382950688000,4.33668798828125,-0.005461610853672028,0.003772634081542492,0.00788535363972187
1783003382960739800,4.34673974609375,-0.0050099384970963,0.0049646650440990925,0.008174306713044643
1783003382970791000,4.356791015625,-0.0017600831342861056,0.0034818167332559824,0.0073013221845030785
1783003382980842800,4.3668427734375,-0.0015598133904859424,0.005629390012472868,0.00842677429318428
1783003382990893800,4.376893798828125,-0.0027569043450057507,0.003965446725487709,0.00637800432741642
1783003383000945000,4.38694482421875,-0.004483697935938835,0.004163053352385759,0.008261391893029213
1783003383010996700,4.396996826171875,-0.005091963801532984,0.004461860284209251,0.008331965655088425
1783003383021047800,4.4070478515625,-0.00501073757186532,0.003623230615630746,0.006531136110424995
1783003383031100000,4.417099853515625,-0.003358512418344617,0.005768406670540571,0.007877097465097904
1783003383041150700,4.427150634765625,-0.003905792022123933,0.006356698926538229,0.009088569320738316
1783003383051202800,4.437202880859375,-0.0036453348584473133,0.003870105603709817,0.010182064026594162
1783003383061254000,4.44725390625,-0.0037180392537266016,0.00609437795355916,0.005935120861977339
1783003383071304700,4.4573046875,-0.004643221385776997,0.002924949862062931,0.0072986590676009655
1783003383081356800,4.467356689453125,-0.0032352081034332514,0.004445082042366266,0.006494651082903147
1783003383091408000,4.477407958984375,-0.003602457931265235,0.003916444722563028,0.006688795518130064
1783003383101460000,4.4874599609375,-0.0032202943693846464,0.0006143912323750556,0.011226555332541466
1783003383111511000,4.497510986328125,-0.0034615767654031515,0.0037382792215794325,0.008128234185278416
1783003383121561900,4.507561767578125,-0.005795038305222988,0.00376011710613966,0.0065316688269376755
1783003383131614000,4.517614013671875,-0.004050135146826506,0.006142314523458481,0.010637464001774788
1783003383141665000,4.5276650390625,-0.006864830385893583,0.002507898723706603,0.00749014038592577
1783003383151716900,4.537716796875,-0.004751345608383417,0.006432333029806614,0.009755425155162811
1783003383161768000,4.547767822265625,-0.0031960594933480024,0.004580903332680464,0.006732471287250519
1783003383171820000,4.557820068359375,-0.0046392264775931835,0.00600383011624217,0.007184143178164959
1783003383181870800,4.567870849609375,-0.0020743361674249172,0.001998702296987176,0.004658401478081942
1783003383191922000,4.577921875,-0.0062829297967255116,0.003343598684296012,0.009881393052637577
1783003383201974000,4.58797412109375,-0.006646184716373682,0.005633650813251734,0.010316819883883
1783003383212024800,4.59802490234375,-0.0036421390250325203,0.0021291973534971476,0.008569253608584404
1783003383222077000,4.608076904296875,-0.0030397321097552776,0.002892459277063608,0.007987086661159992
1783003383232128000,4.6181279296875,-0.003421895671635866,0.005883188918232918,0.009241701103746891
1783003383242179800,4.628179931640625,-0.005756955128163099,0.006413957104086876,0.00785525981336832
1783003383252231000,4.63823095703125,-0.003260241821408272,0.00586641114205122,0.010787400417029858
1783003383262282000,4.648281982421875,-0.002859169617295265,0.0035393410362303257,0.007239270955324173
1783003383272333800,4.658333740234375,-0.005133242812007666,0.003799265483394265,0.006931142881512642
1783003383282385000,4.668385009765625,-0.00401657959446311,0.004287955816835165,0.009121326729655266
1783003383292436700,4.678436767578125,-0.004594751633703709,0.004129497334361076,0.00854421965777874
1783003383302487800,4.68848779296875,-0.0014333132421597838,0.0032751555554568768,0.006343116983771324
1783003383312539000,4.698538818359375,-0.0047116647474467754,0.0057497648522257805,0.008616125211119652
1783003383322590700,4.7085908203125,-0.0031763522420078516,0.006096241995692253,0.0072776200249791145
1783003383332641800,4.718641845703125,-0.0030093719251453876,0.0032202943693846464,0.005941512528806925
1783003383342694000,4.72869384765625,-0.0065231467597186565,0.004493019077926874,0.006595850922167301
1783003383352744700,4.73874462890625,-0.005258145276457071,0.004172374494373798,0.009428922086954117
1783003383362795800,4.748795654296875,-0.003363838652148843,0.006268016062676907,0.009045160375535488
1783003383372847900,4.758847900390625,-0.0009709885343909264,0.0067758806981146336,0.008446748368442059
1783003383382898700,4.768898681640625,-0.003162503708153963,0.0024857944808900356,0.009811352007091045
1783003383392950800,4.77895068359375,-0.005526592023670673,0.0036506610922515392,0.006886135786771774
1783003383403001900,4.789001953125,-0.00538571085780859,0.0035689021460711956,0.006244047544896603
1783003383413054000,4.799053955078125,-0.005793174263089895,0.004758802708238363,0.006423011887818575
1783003383423104800,4.809104736328125,-0.0031374699901789427,0.005803028121590614,0.008444883860647678
1783003383433155800,4.81915576171875,-0.0057249972596764565,0.00472444761544466,0.00851652305573225
1783003383443208000,4.8292080078125,-0.003388606244698167,0.0054730623960494995,0.008643821813166142
1783003383453259000,4.839259033203125,-0.006470682565122843,0.005221926141530275,0.006618488114327192
1783003383463310800,4.849310791015625,-0.003802461316809058,0.006066680885851383,0.00885021686553955
1783003383473362000,4.85936181640625,-0.003713511861860752,0.006601177155971527,0.008598814718425274
1783003383483413000,4.8694130859375,-0.003751062322407961,0.0065441858023405075,0.005357214715331793
1783003383493464800,4.87946484375,-0.004540689755231142,0.004546282347291708,0.0075902752578258514
1783003383503516000,4.889515869140625,-0.006853378843516111,0.005311941262334585,0.006403836887329817
1783003383513568000,4.899568115234375,-0.0037087181117385626,0.005103948060423136,0.008143946528434753
1783003383523618800,4.909618896484375,-0.0032866070978343487,0.001749164192005992,0.007928230799734592
1783003383533671000,4.9196708984375,-0.006469350773841143,0.0025454494170844555,0.004058657679706812
1783003383543722000,4.929721923828125,-0.0028700886759907007,0.003174754325300455,0.008113319985568523
1783003383553772800,4.939772705078125,-0.002737463219091296,0.005460012704133987,0.008865396492183208
1783003383563825000,4.949824951171875,-0.002570483135059476,0.00558251840993762,0.007894141599535942
1783003383573876000,4.9598759765625,-0.004138552118092775,0.005086104851216078,0.011503524146974087
1783003383583927800,4.969927734375,-0.005375590641051531,0.003743072971701622,0.007848069071769714
1783003383593979000,4.979978759765625,-0.00444055488333106,0.004027764778584242,0.009031311608850956
1783003383604030000,4.990030029296875,-0.0026229473296552896,0.001942243310622871,0.009485380724072456
1783003383614081800,5.000081787109375,-0.0023901870008558035,0.0064834654331207275,0.008775382302701473
1783003383624132900,5.0101328125,-0.005787848029285669,0.005878395400941372,0.011145329102873802
1783003383634185000,5.02018505859375,-0.003459712490439415,0.003085272153839469,0.006367351859807968
1783003383644235800,5.03023583984375,-0.003960653208196163,0.0022564963437616825,0.008465389721095562
1783003383654288000,5.040287841796875,-0.0026373283471912146,0.004164917394518852,0.007695470005273819
1783003383664339000,5.0503388671875,-0.004263720940798521,0.004111654590815306,0.009034774266183376
1783003383674389800,5.0603896484375,-0.004957474302500486,0.0033041839487850666,0.006726878695189953
1783003383684441900,5.07044189453125,-0.003614175831899047,0.0032650355715304613,0.008473912253975868
1783003383694493000,5.080492919921875,-0.004442685283720493,0.001749164192005992,0.0051958272233605385
1783003383704544800,5.090544677734375,-0.003710316028445959,0.003272492438554764,0.008989233523607254
1783003383714595800,5.100595947265625,-0.006691724993288517,0.005288505461066961,0.006167614832520485
1783003383724647000,5.11064697265625,-0.005450691562145948,0.0029606360476464033,0.008786301128566265
1783003383734698800,5.12069873046875,-0.0035569178871810436,0.0030341395176947117,0.005031243897974491
1783003383744749800,5.130749755859375,-0.002813629573211074,0.005199822131544352,0.007727428339421749
1783003383754802000,5.140802001953125,-0.006016879808157682,0.004257595632225275,0.008795888163149357
1783003383764852700,5.150852783203125,-0.004412857815623283,0.004178499802947044,0.006695186719298363
1783003383774903800,5.16090380859375,-0.006161489523947239,0.006628874223679304,0.007246727589517832
1783003383784956000,5.170955810546875,-0.003500991500914097,0.005352953914552927,0.008887501433491707
1783003383795007000,5.181007080078125,-0.0026937874499708414,0.004551874939352274,0.0073021212592720985
1783003383805059000,5.19105908203125,-0.0009600695921108127,0.0016391756944358349,0.008950618095695972
1783003383815110000,5.20110986328125,-0.0025627599097788334,0.003187004942446947,0.0059657469391822815
1783003383825162000,5.211161865234375,-0.00589703768491745,0.004484763368964195,0.007395598106086254
1783003383835213000,5.221213134765625,-0.005936718545854092,0.0028011128306388855,0.007345797028392553
1783003383845264000,5.231263916015625,-0.0031641016248613596,0.003257578704506159,0.007072823122143745
1783003383855316000,5.24131591796875,-0.006131395697593689,0.002498843939974904,0.008430768735706806
1783003383865367000,5.251366943359375,-0.004287423100322485,0.004445881117135286,0.004662662278860807
1783003383875419000,5.2614189453125,-0.00433003343641758,0.004546548705548048,0.008377771824598312
1783003383885470500,5.271470458984375,-0.003710316028445959,0.0038045919500291348,0.007983890362083912
1783003383895521300,5.281521240234375,-0.003304982790723443,0.004474376793950796,0.00848456472158432
1783003383905573400,5.291573486328125,-0.01624741218984127,0.08859511464834213,0.0707724392414093
1783003383915624400,5.30162451171875,-0.0017473000334575772,0.10436955094337463,-0.012280368246138096
1783003383925676300,5.31167626953125,-0.024177774786949158,-0.17485809326171875,-0.033311083912849426
1783003383935727400,5.321727294921875,0.006077333353459835,0.023004118353128433,-0.0002109223569277674
1783003383945778400,5.3317783203125,-0.0019949739798903465,0.08687098324298859,0.035707395523786545
1783003383955830300,5.341830322265625,0.00007403588097076863,-0.029470540583133698,-0.008446482010185719
1783003383965881300,5.35188134765625,-0.002775546396151185,-0.10591258108615875,-0.04639120027422905
1783003383975933400,5.361933349609375,-0.004249606281518936,-0.13814136385917664,-0.036793965846300125
