time,seconds_elapsed,z,y,x
1783003378707722500,0.093722412109375,-0.0007494636811316013,-0.0516836941242218,-0.021435685455799103
1783003378717774300,0.1037744140625,-0.0017886292189359665,-0.017353149130940437,-0.006377640180289745
1783003378727825400,0.113825439453125,-0.0014077709056437016,0.031012799590826035,0.010577723383903503
1783003378737877200,0.123877197265625,-0.003750287462025881,0.03641502186655998,0.018106479197740555
1783003378747928300,0.13392822265625,-0.0016690511256456375,0.008111445233225822,0.002558387815952301
1783003378757980400,0.14398046875,-0.0006850133650004864,-0.027257729321718216,-0.010227714665234089
1783003378768031200,0.15403125,0.0013998390641063452,-0.02904667891561985,-0.011839278973639011
1783003378778083300,0.164083251953125,-0.0009583900682628155,-0.0024622068740427494,-0.004885233007371426
1783003378788134400,0.174134521484375,-0.00038690585643053055,0.02236885204911232,0.01247205026447773
1783003378798185500,0.184185546875,-0.0007490958087146282,0.021506253629922867,0.0087974201887846
1783003378808237300,0.1942373046875,0.0007102447561919689,-0.001455951016396284,-0.0006565009243786335
1783003378818288400,0.204288330078125,0.0005999899003654718,-0.019206184893846512,-0.006692289374768734
1783003378828340500,0.214340576171875,0.0002144991885870695,-0.014192396774888039,-0.0019228062592446804
1783003378838391300,0.224391357421875,-0.0020731561817228794,0.007583471946418285,0.0024434467777609825
1783003378848443400,0.234443359375,-0.001589559018611908,0.015694692730903625,0.005908292718231678
1783003378858494500,0.244494384765625,-0.00026277219876646996,0.006985623389482498,0.006300842389464378
1783003378868546600,0.254546630859375,-0.0017803073860704899,-0.004072824493050575,-0.0038669584318995476
1783003378878601500,0.2646015625,-0.003097506705671549,-0.013995762914419174,-0.007157826330512762
1783003378888653600,0.274653564453125,-0.0031602620147168636,-0.004483288619667292,-0.0017532180063426495
1783003378898704600,0.28470458984375,-0.00029390212148427963,0.008485507220029831,0.0014170091599225998
1783003378908755500,0.29475537109375,-0.0001460597850382328,0.007366394158452749,0.004474034532904625
1783003378918807600,0.3048076171875,0.00028324173763394356,-0.000018817372620105743,-0.0009020892903208733
1783003378928858600,0.314858642578125,0.00010737404227256775,-0.008030845783650875,-0.0038625053130090237
1783003378938910500,0.324910400390625,0.0002605058252811432,-0.0034233108162879944,-0.003036392852663994
1783003378948961500,0.33496142578125,-0.00016866112127900124,0.0004503796808421612,0.0012670382857322693
1783003378959013400,0.345013427734375,-0.0015103616751730442,0.004894396290183067,0.00364870298653841
1783003378969064400,0.355064453125,0.0005869437009096146,0.004663972184062004,0.0027215080335736275
1783003378979116500,0.365116455078125,0.00011077034287154675,-0.0011001741513609886,0.00026926957070827484
1783003378989167400,0.37516748046875,0.00020567444153130054,-0.004271802958101034,0.0005779210478067398
1783003378999219700,0.3852197265625,0.0007984940893948078,-0.0011005108244717121,-0.0024109450168907642
1783003379009270500,0.3952705078125,0.00014925538562238216,0.006318697705864906,0.0015412820503115654
1783003379019322600,0.405322509765625,0.0018614016007632017,0.0036544715985655785,0.0017865588888525963
1783003379029373700,0.415373779296875,-0.0006825504824519157,-0.00037611136212944984,0.001519075594842434
1783003379039424800,0.4254248046875,-0.0017795064486563206,-0.004445687867701054,-0.0018668673001229763
1783003379049476600,0.4354765625,0.0013625517021864653,-0.0027910852804780006,-0.0003507235087454319
1783003379059527700,0.445527587890625,-0.0004100482910871506,-0.0020288885571062565,0.0005723284557461739
1783003379069579500,0.45557958984375,0.00023267441429197788,0.0032445890828967094,0.004191132262349129
1783003379079630600,0.465630615234375,-0.00020221993327140808,0.0021492312662303448,-0.0006283908151090145
1783003379089682700,0.4756826171875,-0.00018834788352251053,-0.0014694572892040014,-0.0022184797562658787
1783003379099733500,0.4857333984375,0.0008340394124388695,-0.0012393600773066282,-0.001059738453477621
1783003379109785600,0.49578564453125,0.0015732476022094488,0.0007090154103934765,0.0006214259192347527
1783003379119836700,0.505836669921875,-0.0013106893748044968,0.001927678007632494,0.0036417171359062195
1783003379129887500,0.515887451171875,-0.0015767761506140232,0.0018875342793762684,0.0006871651858091354
1783003379139939600,0.525939697265625,0.00009915139526128769,-0.001737560611218214,-0.0007107281126081944
1783003379149990700,0.53599072265625,-0.0006790882907807827,-0.0008706601802259684,-0.0018346430733799934
1783003379160042500,0.54604248046875,0.0030336244963109493,-0.0011271226685494184,-0.00020478852093219757
1783003379170093600,0.556093505859375,0.0014218795113265514,0.0010995464399456978,-0.0007717758417129517
1783003379180145400,0.5661455078125,-0.002137701492756605,-0.00028955843299627304,-0.0010793707333505154
1783003379190196500,0.576196533203125,0.0004717959091067314,-0.0013405652716755867,-0.0016048415564000607
1783003379200248600,0.58624853515625,-0.002075517550110817,-0.00042869895696640015,-0.0004639429971575737
1783003379210299400,0.59629931640625,-0.0003541484475135803,0.0003016134724020958,-0.0014434405602514744
1783003379220351500,0.6063515625,-0.0014761383645236492,0.0012467694468796253,-0.0003960193134844303
1783003379230402600,0.616402587890625,0.00009500794112682343,0.00017264299094676971,-0.002796872053295374
1783003379240454400,0.626454345703125,-0.0022890539839863777,-0.0001482679508626461,0.0010998649522662163
1783003379250505500,0.63650537109375,0.0011983898002654314,-0.0005633111577481031,-0.0017393589951097965
1783003379260556500,0.646556640625,0.0018085199408233166,0.0004718597047030926,0.001829543150961399
1783003379270608400,0.6566083984375,-0.0011876490898430347,0.0016081915237009525,-0.00014747213572263718
1783003379280659500,0.666659423828125,0.0006201046053320169,0.001500067301094532,-0.0026489789597690105
1783003379290711600,0.676711669921875,-0.0038717733696103096,-0.00027670059353113174,-0.0008705649524927139
1783003379300762600,0.6867626953125,-0.0006357664242386818,-0.0012543471530079842,-0.0014972067438066006
1783003379310814700,0.696814697265625,-0.0014728717505931854,-0.0014167819172143936,-0.001281017903238535
1783003379320865500,0.706865478515625,-0.0017027026042342186,-0.0013161145616322756,-0.0021302998065948486
1783003379330917600,0.716917724609375,0.0006449513603001833,0.0004312479868531227,-0.0021956656128168106
1783003379340968700,0.72696875,-0.001023252960294485,0.0004006214439868927,0.0014944104477763176
1783003379351020500,0.7370205078125,0.00036649429239332676,-0.0015344624407589436,0.0001840619370341301
1783003379361071600,0.747071533203125,-0.001445787027478218,0.00027409009635448456,-0.0018122438341379166
1783003379371122700,0.757122802734375,0.001170154195278883,0.0024748644791543484,-0.000008898787200450897
1783003379381174500,0.767174560546875,-0.003336180467158556,-0.00006419327110052109,0.0004126792773604393
1783003379391225600,0.7772255859375,-0.0015865862369537354,0.00038197916001081467,-0.0015704059042036533
1783003379401277400,0.78727734375,0.00038841390050947666,-0.0008651791140437126,0.001190226525068283
1783003379411328500,0.79732861328125,0.00044575752690434456,-0.000443493714556098,-0.0016213981434702873
1783003379421380600,0.807380615234375,0.000620461069047451,-0.0001121964305639267,0.0008359001949429512
1783003379431431400,0.817431396484375,0.0002035684883594513,0.00024466682225465775,-0.0018605501390993595
1783003379441483500,0.8274833984375,0.000432334141805768,0.00038421666249632835,-0.002316483296453953
1783003379451534600,0.83753466796875,-0.00025213323533535004,0.0019749710336327553,0.0021621687337756157
1783003379461586400,0.84758642578125,-0.000528569333255291,0.0019909502007067204,-0.0006149760447442532
1783003379471637500,0.857637451171875,-0.0012315758503973484,-0.0003671678714454174,-0.0013298718258738518
1783003379481688600,0.8676884765625,0.002039585029706359,-0.001421513268724084,0.001640085130929947
1783003379491740400,0.877740478515625,0.0020153794903308153,0.0003632446750998497,0.0037015173584222794
1783003379501791500,0.88779150390625,0.002424973761662841,0.0009981421753764153,-0.00010946579277515411
1783003379511843300,0.89784326171875,0.00047935545444488525,0.001226736232638359,0.00010868534445762634
1783003379521894400,0.907894287109375,-0.0016477112658321857,0.00022485526278614998,-0.0006210203282535076
1783003379531946800,0.91794677734375,-0.0012763449922204018,-0.0018174739088863134,-0.00003091152757406235
1783003379541997300,0.927997314453125,-0.0018742242828011513,-0.0022752713412046432,-0.000593104399740696
1783003379552049700,0.938049560546875,-0.00142213748767972,-0.0028089163824915886,-0.0012814593501389027
1783003379562100700,0.948100830078125,0.0009592610877007246,-0.0010490997228771448,-0.0026436662301421165
1783003379572152600,0.958152587890625,0.00015921448357403278,0.0032248073257505894,0.0012090830132365227
1783003379582203600,0.96820361328125,0.0010766733903437853,0.0009019980207085609,-0.0013475515879690647
1783003379592254700,0.978254638671875,0.0014067369047552347,-0.0010839933529496193,0.0030117658898234367
1783003379602306600,0.988306640625,-0.00010167760774493217,0.0005349423736333847,-0.00010999199002981186
1783003379612357600,0.998357666015625,0.0012089998926967382,-0.0011677974835038185,0.001683526672422886
1783003379622409500,1.008409423828125,-0.0010400395840406418,-0.0005928210448473692,0.0011847158893942833
1783003379632460500,1.01846044921875,-0.00000779842957854271,0.0036216317676007748,0.0016369214281439781
1783003379642512600,1.0285126953125,-0.0013481671921908855,0.00109455781057477,-0.0008025346323847771
1783003379652563500,1.0385634765625,-0.001034280750900507,0.0006664320826530457,0.0006152279675006866
1783003379662615600,1.048615478515625,-0.0007972591556608677,-0.0006773988716304302,-0.0005368553102016449
1783003379672666600,1.05866650390625,-0.0008944980800151825,0.00012955302372574806,0.0008712923154234886
1783003379682717400,1.068717529296875,0.0023947719018906355,0.0004717693664133549,0.00007820315659046173
1783003379692769500,1.07876953125,-0.00078181317076087,0.0005146320909261703,-0.00048226071521639824
1783003379702820600,1.088820556640625,0.0012781419791281223,0.001149795949459076,-0.000787458848208189
1783003379712872400,1.09887255859375,-0.002626085188239813,-0.0021375787910073996,0.001170838251709938
1783003379722923500,1.108923583984375,-0.001010878011584282,0.0007202592678368092,0.0004861392080783844
1783003379732975400,1.118975341796875,0.0009156859014183283,0.0012733666226267815,-0.0014950605109333992
1783003379743026400,1.1290263671875,0.00146775902248919,-0.0013743480667471886,0.00018938910216093063
1783003379753078500,1.13907861328125,0.0035367358941584826,0.0005953572690486908,-0.0009011011570692062
1783003379763129600,1.149129638671875,-0.0004779794253408909,0.00038629909977316856,-0.0011780699715018272
1783003379773180400,1.159180419921875,0.0012792053166776896,-0.0010191157925873995,0.0006712749600410461
1783003379783232500,1.169232421875,-0.00023453542962670326,-0.00020338967442512512,-0.0016360878944396973
1783003379793283600,1.17928369140625,-0.0015779007226228714,-0.00019766297191381454,-0.0033427304588258266
1783003379803335400,1.18933544921875,0.00014010444283485413,-0.0009617239702492952,0.0004099300131201744
1783003379813386500,1.199386474609375,-0.0011551887728273869,-0.0000827321782708168,0.0021253004670143127
1783003379823438600,1.2094384765625,0.0027530002407729626,-0.00005024159327149391,-0.0034473645500838757
1783003379833489700,1.21948974609375,-0.0023364736698567867,0.0015685539692640305,0.002541249617934227
1783003379843541500,1.22954150390625,-0.000059470999985933304,0.0016417908482253551,-0.0016803932376205921
1783003379853592600,1.239592529296875,0.001224013278260827,0.0016137808561325073,-0.0017508422024548054
1783003379863644700,1.249644775390625,0.0009142877534031868,0.0005130968056619167,0.000516040250658989
1783003379873695500,1.259695556640625,-0.0011390787549316883,-0.0008623967878520489,-0.0011340505443513393
1783003379883742500,1.269742431640625,0.00246044946834445,-0.00032976455986499786,-0.000646958127617836
1783003379893794600,1.279794677734375,-0.0009513911791145802,0.0001017991453409195,-0.0001011015847325325
1783003379903845600,1.289845703125,-0.00010503875091671944,-0.0007900933269411325,0.0011021140962839127
1783003379913897500,1.2998974609375,-0.0003920593298971653,-0.0002349233254790306,-0.00030406517907977104
1783003379923948500,1.309948486328125,-0.0007955282926559448,-0.0021713078022003174,-0.0002699769102036953
1783003379934000400,1.32000048828125,-0.0014610923826694489,0.001172808464616537,-0.0017698751762509346
1783003379944051500,1.330051513671875,-0.0004331124946475029,0.001704375259578228,0.000219772569835186
1783003379954103600,1.340103515625,0.00028012157417833805,0.00034376466646790504,-0.00004541128873825073
1783003379964154400,1.350154296875,0.0022300879936665297,0.0015499102883040905,0.0009045377373695374
1783003379974205400,1.360205322265625,0.0004712378140538931,-0.00002921605482697487,-0.0008003166876733303
1783003379984257500,1.370257568359375,0.00008215010166168213,0.001041108276695013,-0.0002575642429292202
1783003379994308400,1.380308349609375,0.00034406851045787334,-0.0008762762881815434,-0.0005194675177335739
1783003380004360400,1.3903603515625,-0.0015262695960700512,-0.001089595491066575,0.0005657710134983063
1783003380014411500,1.40041162109375,0.0007870886474847794,-0.0035424581728875637,-0.0001688809134066105
1783003380024463400,1.41046337890625,-0.00015620281919836998,-0.0015051399823278189,0.0012010494247078896
1783003380034514400,1.420514404296875,-0.00046689528971910477,0.00020874245092272758,-0.0026337378658354282
1783003380044566300,1.430566162109375,0.0011302025523036718,0.0013549672439694405,-0.000337027944624424
1783003380054617300,1.440617431640625,0.000859459163621068,0.0005237367004156113,0.0015020761638879776
1783003380064669700,1.450669677734375,-0.002481476403772831,0.002622573636472225,0.0019367048516869545
1783003380074720300,1.46072021484375,-0.0011189370416104794,0.0028912252746522427,0.0008435947820544243
1783003380084771300,1.470771240234375,0.00032955617643892765,0.002296541351824999,0.0042633600533008575
1783003380094823700,1.48082373046875,0.00040036370046436787,-0.000014022458344697952,-0.0029525491409003735
1783003380104874500,1.49087451171875,-0.0005874028429389,-0.0021852978970855474,-0.001508316956460476
1783003380114926600,1.500926513671875,0.0004965923726558685,-0.00042502256110310555,0.000804518349468708
1783003380124977700,1.510977783203125,0.0014121870044618845,-0.001914262305945158,0.0024932287633419037
1783003380135029500,1.521029541015625,0.0006471753586083651,-0.00046398467384278774,0.0017838133499026299
1783003380145080600,1.53108056640625,-0.00346794119104743,-0.0035596429370343685,0.001742534339427948
1783003380155132400,1.54113232421875,0.0005825294647365808,-0.0007585457060486078,0.000491846352815628
1783003380165183500,1.55118359375,0.001177479512989521,0.0017637340351939201,-0.0012506595812737942
1783003380175234600,1.561234619140625,0.000743428710848093,0.004377143923193216,0.0005807504057884216
1783003380185286400,1.571286376953125,-0.0032893959432840347,0.0019251718185842037,-0.00022352393716573715
1783003380195337500,1.58133740234375,-0.0007242071442306042,0.003063625656068325,-0.00018492108210921288
1783003380205389600,1.5913896484375,0.00042787613347172737,-0.0006032809615135193,0.0003780713304877281
1783003380215440400,1.6014404296875,-0.0009265867993235588,-0.0013295465614646673,0.004399016499519348
1783003380225492500,1.611492431640625,0.00113496626727283,-0.002091210801154375,0.001479392871260643
1783003380235543600,1.62154345703125,-0.0019184378907084465,-0.0010228455066680908,-0.0006236806511878967
1783003380245595400,1.631595458984375,0.0006392619106918573,-0.002154156332835555,-0.0007163584232330322
1783003380255646500,1.641646484375,-0.0005039297975599766,-0.002667039167135954,0.00030830223113298416
1783003380265697500,1.651697509765625,-0.001104738563299179,0.002394298557192087,0.0021445518359541893
1783003380275749400,1.661749267578125,-0.000046265777200460434,0.0014977548271417618,0.0017551612108945847
1783003380285800400,1.671800537109375,-0.0005048620514571667,-0.0012556875590234995,-0.0002789609134197235
1783003380295852500,1.6818525390625,0.0013799339067190886,0.0009916950948536396,0.0008982131257653236
1783003380305903400,1.6919033203125,-0.00037002936005592346,0.0010425616055727005,-0.0006669270806014538
1783003380315955500,1.70195556640625,-0.0012183249928057194,0.0004590344615280628,-0.0007327836938202381
1783003380326006500,1.712006591796875,0.0012789210304617882,0.00011042691767215729,0.002146625891327858
1783003380336058600,1.72205859375,-0.0026492015458643436,0.001033855602145195,0.00120571069419384
1783003380346109400,1.732109375,0.0014667140785604715,-0.00034433044493198395,-0.0027040760032832623
1783003380356160500,1.742160400390625,-0.00038816407322883606,-0.002607441507279873,0.0025137150660157204
1783003380366212600,1.752212646484375,-0.0015290621668100357,-0.0011474965140223503,0.0005176756531000137
1783003380376263400,1.762263427734375,0.0018911748193204403,0.0009724721312522888,-0.00019042566418647766
1783003380386315500,1.7723154296875,0.0013617384247481823,-0.0011889494489878416,0.00008840672671794891
1783003380396366600,1.78236669921875,0.0004883916117250919,0.0018965443596243858,-0.0005648205988109112
1783003380406418700,1.792418701171875,0.0008127647452056408,0.0008608410134911537,0.003452291712164879
1783003380416469500,1.802469482421875,-0.001161905936896801,0.0007954426109790802,0.003598191775381565
1783003380426520600,1.8125205078125,-0.002012253273278475,-0.0005904664285480976,-0.001934258732944727
1783003380436572700,1.82257275390625,-0.0010965843684971333,-0.0008333642035722733,-0.002430529333651066
1783003380446623500,1.83262353515625,-0.0012659612111747265,-0.0017652041278779507,-0.0004099891521036625
1783003380456675600,1.842675537109375,0.0011394477915018797,-0.00039182277396321297,-0.0021568406373262405
1783003380466726700,1.8527265625,0.0013722081203013659,0.0007538693025708199,0.00308213010430336
1783003380476778500,1.862778564453125,-0.0015258556231856346,0.00030829431489109993,-0.0029264367185533047
1783003380486829600,1.87282958984375,-0.0012070750817656517,-0.0013591106981039047,0.0003101024776697159
1783003380496881400,1.88288134765625,0.0007730813231319189,0.0023991959169507027,0.0015903748571872711
1783003380506932500,1.892932373046875,0.00037493882700800896,-0.002241095993667841,-0.0006341631524264812
1783003380516983600,1.902983642578125,0.0000016703270375728607,-0.0005808484274893999,0.0012471526861190796
1783003380527035400,1.913035400390625,-0.0002526617608964443,0.001703344751149416,0.0018580816686153412
1783003380537086500,1.92308642578125,0.003421703353524208,-0.0002828757278621197,-0.0018486608751118183
1783003380547138600,1.933138671875,-0.000021231360733509064,0.00042099738493561745,0.00266912579536438
1783003380557189400,1.943189453125,-0.0000019706785678863525,-0.0011806073598563671,0.0019085733219981194
1783003380567241500,1.953241455078125,-0.0003468501381576061,0.0003182198852300644,-0.0006059836596250534
1783003380577292500,1.96329248046875,-0.001164095476269722,0.003378456924110651,0.001938394270837307
1783003380587344400,1.973344482421875,-0.00115211121737957,-0.0022994023747742176,-0.00045179249718785286
1783003380597395500,1.9833955078125,-0.0008686487562954426,0.0002824743278324604,0.0007252590730786324
1783003380607446500,1.993446533203125,-0.0002475995570421219,-0.00022512441501021385,0.001866689883172512
1783003380617498400,2.003498291015625,-0.000008191913366317749,0.00030188215896487236,-0.000004888512194156647
1783003380627549400,2.013549560546875,0.001172387506812811,0.0013777990825474262,-0.0008712150156497955
1783003380637601500,2.0236015625,-0.0010340414009988308,0.0006388882175087929,-0.0023178262636065483
1783003380647652400,2.03365234375,0.0008101975545287132,-0.0027145640924572945,-0.00018916185945272446
1783003380657704700,2.04370458984375,-0.0015209401026368141,0.0022583575919270515,0.0004963204264640808
1783003380667755500,2.053755615234375,0.0008591269142925739,0.00008868006989359856,-0.00048372335731983185
1783003380677807600,2.0638076171875,-0.0016377177089452744,-0.0006694511976093054,0.0008799601346254349
1783003380687858700,2.073858642578125,-0.0008214586414396763,0.002028064802289009,-0.00005960371345281601
1783003380697909500,2.083909423828125,0.0007280989084392786,-0.002688429784029722,0.0020547891035676003
1783003380707961600,2.093961669921875,0.0020783215295523405,-0.0016471338458359241,-0.0004003793001174927
1783003380718012700,2.1040126953125,0.00028647645376622677,0.0009933188557624817,-0.00000151805579662323
1783003380728064500,2.114064453125,0.00048168632201850414,0.0011587007902562618,0.000603552907705307
1783003380738115600,2.124115478515625,-0.002523403149098158,-0.0005855308845639229,0.001281779259443283
1783003380748167400,2.13416748046875,0.0013810573145747185,-0.0030561452731490135,-0.00014807190746068954
1783003380758218500,2.144218505859375,-0.0006955582648515701,0.0000756196677684784,-0.0008032629266381264
1783003380768270600,2.1542705078125,-0.00016958406195044518,-0.0009768614545464516,0.000005805864930152893
1783003380778321400,2.1643212890625,-0.0011903578415513039,0.0000010468065738677979,0.0015265736728906631
1783003380788372500,2.17437255859375,-0.002259883563965559,0.0013589924201369286,0.00023707188665866852
1783003380798424600,2.184424560546875,-0.0005890922620892525,0.00019245222210884094,-0.0015468127094209194
1783003380808475400,2.194475341796875,0.00011558039113879204,-0.0004339232109487057,-0.0005015218630433083
1783003380818527500,2.204527587890625,0.00028175744228065014,-0.0028740335255861282,-0.0003846273757517338
1783003380828578600,2.21457861328125,-0.0003512757830321789,-0.0015224791131913662,0.000662527047097683
1783003380838630400,2.22463037109375,0.0014118002727627754,-0.00011708401143550873,-0.0029936712235212326
1783003380848681500,2.234681396484375,-0.0013530934229493141,-0.0032433688174933195,0.001090019941329956
1783003380858732500,2.244732666015625,-0.00044982321560382843,-0.0016537897754460573,-0.0016667828895151615
1783003380868784400,2.254784423828125,-0.0001084059476852417,0.00028392625972628593,0.0003044884651899338
1783003380878836000,2.2648359375,0.001318885013461113,0.0030253510922193527,0.0014719730243086815
1783003380888887800,2.2748876953125,0.0004421724006533623,0.003192331176251173,0.0007731597870588303
1783003380898939000,2.28493896484375,-0.0007699993439018726,0.002883017063140869,-0.00039300043135881424
1783003380908991000,2.294990966796875,0.0011203126050531864,-0.0019293150398880243,0.0015843966975808144
1783003380919042000,2.3050419921875,-0.00021827314049005508,-0.0006526142824441195,-0.0015466096810996532
1783003380929094100,2.31509423828125,0.00179161480627954,-0.0009934988338500261,-0.0019213161431252956
1783003380939145200,2.325145263671875,-0.0026561161503195763,-0.0027772332541644573,0.00028535816818475723
1783003380949196000,2.335196044921875,-0.0038188518956303596,-0.0022509926930069923,-0.0020017647184431553
1783003380959248100,2.345248046875,-0.00015310384333133698,-0.0024591258261352777,-0.001675853505730629
1783003380969299200,2.35529931640625,0.0011960538104176521,-0.0013994539622217417,-0.0020542889833450317
1783003380979351000,2.36535107421875,0.0023291718680411577,-0.0003134370781481266,0.001847611740231514
1783003380989402000,2.375402099609375,-0.00006261281669139862,0.0007811221294105053,0.0008755587041378021
1783003380999454000,2.385453857421875,0.0008481566328555346,0.0023473333567380905,0.001749478280544281
1783003381009505000,2.395505126953125,0.0007078079506754875,0.00135077815502882,0.003090912476181984
1783003381019556000,2.40555615234375,-0.0002955053932964802,0.0014440575614571571,0.0030085667967796326
1783003381029608000,2.41560791015625,0.002513330429792404,-0.0013216352090239525,-0.0025478526949882507
1783003381039659000,2.425658935546875,-0.00018057646229863167,0.0012712283059954643,0.000008233822882175446
1783003381049711000,2.435711181640625,-0.0007997616194188595,-0.000521079171448946,0.0014354223385453224
1783003381059762000,2.445761962890625,0.0004327334463596344,0.00036549288779497147,0.00027061067521572113
1783003381069814000,2.45581396484375,0.00010330043733119965,-0.0025141830556094646,0.0000037616118788719177
1783003381079865000,2.465864990234375,0.0022294921800494194,-0.0017320679035037756,-0.0011757793836295605
1783003381089916000,2.475916015625,0.0010787402279675007,-0.00020288070663809776,-0.0038980627432465553
1783003381099968000,2.485968017578125,0.002055645687505603,0.003148456569761038,0.000693117268383503
1783003381110019000,2.49601904296875,-0.00017741508781909943,0.000013383105397224426,0.002436421811580658
1783003381120071000,2.50607080078125,-0.0007687434554100037,-0.000015142373740673065,0.0010264730080962181
1783003381130122000,2.5161220703125,-0.00008164811879396439,-0.0016607095021754503,-0.00047102244570851326
1783003381140173800,2.526173828125,0.0018777670338749886,-0.0012959958985447884,-0.0023371903225779533
1783003381150225000,2.536224853515625,0.0014199696015566587,-0.0003415187820792198,0.00010120030492544174
1783003381160277000,2.546277099609375,0.001262629870325327,0.003309678751975298,0.002067824825644493
1783003381170327800,2.556327880859375,-0.002468192484229803,-0.00041768187656998634,-0.0003141057677567005
1783003381180379000,2.56637890625,0.0011788029223680496,0.0023968168534338474,0.0006325962021946907
1783003381190431200,2.57643115234375,-0.00008247001096606255,0.0004519103094935417,0.000334322452545166
1783003381200481800,2.586481689453125,0.00028026499785482883,0.0016269735060632229,0.0020113345235586166
1783003381210534100,2.5965341796875,0.002292283345013857,-0.002730756998062134,-0.0032998076640069485
1783003381220585200,2.606585205078125,-0.00043297186493873596,0.00013628602027893066,0.0005147615447640419
1783003381230637000,2.616636962890625,-0.0026340745389461517,0.00009234389290213585,0.004198445938527584
1783003381240688000,2.626688232421875,0.001460038824006915,0.0013369731605052948,-0.00040030572563409805
1783003381250739200,2.6367392578125,-0.0017927461303770542,-0.00016158772632479668,-0.0007489137351512909
1783003381260791000,2.646791015625,-0.0002143504098057747,0.000290814321488142,-0.0003562341444194317
1783003381270842000,2.656842041015625,0.0011654333211481571,0.0002743024379014969,-0.00016848091036081314
1783003381280894000,2.66689404296875,-0.0022081262432038784,0.00004705274477601051,0.00032214540988206863
1783003381290945000,2.676945068359375,0.00020150188356637955,0.0003557130694389343,0.002154134213924408
1783003381300997000,2.6869970703125,-0.0013658837415277958,0.0010714251548051834,0.0021723154932260513
1783003381311048000,2.6970478515625,-0.00013124197721481323,0.0011113723739981651,0.00096110999584198
1783003381321100000,2.70710009765625,0.0033860220573842525,-0.000027460977435112,-0.000674158800393343
1783003381331151000,2.717151123046875,-0.0007282956503331661,0.00038639456033706665,-0.002477651461958885
1783003381341202000,2.727201904296875,0.0029237926937639713,-0.001428720774129033,0.00015406683087348938
1783003381351254000,2.73725390625,-0.0003644120879471302,-0.0017155432142317295,0.0004896251484751701
1783003381361305000,2.74730517578125,-0.0027505336329340935,-0.003022648859769106,-0.0003454992547631264
1783003381371357000,2.75735693359375,-0.0013318676501512527,-0.000866021029651165,0.0025967610999941826
1783003381381408000,2.767407958984375,-0.001333470456302166,-0.0007138869259506464,0.0006178859621286392
1783003381391459800,2.7774599609375,0.0009326131548732519,0.00026482483372092247,0.0006024390459060669
1783003381401511000,2.787510986328125,0.002180881332606077,-0.00003575114533305168,-0.0015422580763697624
1783003381411562000,2.79756201171875,-0.0005677673034369946,-0.00044188322499394417,-0.0025366824120283127
1783003381421613800,2.80761376953125,-0.00047007063403725624,0.00026296917349100113,-0.0009648865088820457
1783003381431665000,2.817664794921875,-0.00007139565423130989,-0.0013983107637614012,0.0007083779200911522
1783003381441717000,2.827717041015625,-0.0037485803477466106,0.002650550566613674,0.00017936527729034424
1783003381451767800,2.837767822265625,-0.000709114596247673,0.0011210972443223,-0.000982837751507759
1783003381461820000,2.84781982421875,-0.0012703691609203815,-0.0005912999622523785,-0.00262917997315526
1783003381471871000,2.85787109375,-0.0009638392366468906,0.0033730817958712578,-0.0020036036148667336
1783003381481921800,2.867921875,0.0005681195762008429,0.0001721726730465889,0.0016008233651518822
1783003381491974100,2.87797412109375,-0.003528088331222534,0.0003434140235185623,-0.001790179405361414
1783003381502025000,2.88802490234375,0.0014971522614359856,0.0019529461860656738,-0.0040119183249771595
1783003381512077000,2.8980771484375,-0.0002719857729971409,-0.002244195668026805,-0.0009325048886239529
1783003381522128100,2.908128173828125,-0.0004594619385898113,-0.0007400414906442165,0.0007108068093657494
1783003381532180000,2.918179931640625,0.0021845244336873293,0.001532966736704111,0.00005939789116382599
1783003381542231000,2.92823095703125,0.000705403508618474,0.0014115124940872192,-0.00030596787109971046
1783003381552283100,2.938283203125,-0.001050418708473444,0.0014322851784527302,-0.001503591425716877
1783003381562334000,2.948333984375,0.0012216218747198582,-0.000053157564252614975,-0.0027733747847378254
1783003381572385000,2.958385009765625,-0.0001752059906721115,-0.0007807333022356033,0.0015097875148057938
1783003381582437000,2.96843701171875,0.0010121299419552088,-0.0013434917200356722,0.00002209097146987915
1783003381592488000,2.978488037109375,-0.00023422949016094208,-0.0012369654141366482,-0.0024538496509194374
1783003381602540000,2.9885400390625,0.002498045563697815,0.0005226703360676765,0.0006432551890611649
1783003381612591000,2.998591064453125,-0.0017955023795366287,-0.00017667608335614204,-0.0007144240662455559
1783003381622642000,3.008641845703125,0.001592125277966261,0.00010477378964424133,0.002856423147022724
1783003381632694000,3.018694091796875,0.0022278218530118465,0.00021209940314292908,0.0004079127684235573
1783003381642745000,3.0287451171875,-0.000981976743787527,0.0013388656079769135,0.0008887350559234619
1783003381652797000,3.038796875,-0.0013726623728871346,-0.0004132278263568878,0.0005712863057851791
1783003381662848000,3.048847900390625,-0.00011849915608763695,0.002371272537857294,-0.00033141300082206726
1783003381672899800,3.05889990234375,-0.0014354325830936432,0.0009997445158660412,0.0013000397011637688
1783003381682951000,3.068950927734375,0.00010010041296482086,-0.001098016044124961,-0.0020743291825056076
1783003381693003000,3.0790029296875,0.0005951821804046631,0.00020506884902715683,0.0010394388809800148
1783003381703053800,3.0890537109375,0.0008053113706409931,0.0029189735651016235,-0.00003432855010032654
1783003381713105000,3.09910498046875,0.00012673810124397278,-0.0012203773949295282,-0.002014921046793461
1783003381723157000,3.109156982421875,0.00031851581297814846,-0.0009482346940785646,0.0021126549690961838
1783003381733208000,3.1192080078125,0.0003944158088415861,-0.0009317230433225632,-0.00038858596235513687
1783003381743260000,3.129260009765625,-0.0007337280549108982,-0.0015559992752969265,-0.0015858379192650318
1783003381753311000,3.13931103515625,-0.002450135536491871,-0.0022217894438654184,-0.0003309566527605057
1783003381763362800,3.14936279296875,0.0005024056881666183,0.0020563630387187004,0.002739299088716507
1783003381773414000,3.159413818359375,0.0004363593179732561,0.001098157837986946,-0.000060481950640678406
1783003381783465000,3.16946484375,0.0010897563770413399,0.0022687348537147045,0.00043007731437683105
1783003381793517000,3.17951708984375,-0.0006255856715142727,0.0025257300585508347,0.0008846791461110115
1783003381803567900,3.18956787109375,-0.0020835530012845993,-0.0000330507755279541,0.00043236371129751205
1783003381813620000,3.199619873046875,0.0025380966253578663,0.0022335657849907875,0.0027477163821458817
1783003381823671000,3.209671142578125,-0.0007853400893509388,-0.0015647970139980316,-0.0016987686976790428
1783003381833723100,3.21972314453125,-0.0002998458221554756,0.0002488158643245697,-0.0011629406362771988
1783003381843774200,3.229774169921875,0.002436068607494235,-0.0008632149547338486,0.0010215798392891884
1783003381853825000,3.239824951171875,-0.001698755193501711,-0.0021415322553366423,-0.0014684759080410004
1783003381863877000,3.249877197265625,-0.0002235863357782364,0.0010254308581352234,0.000912724994122982
1783003381873928200,3.25992822265625,0.001503207255154848,0.0011633825488388538,-0.0007355050183832645
1783003381883980000,3.26997998046875,0.0009983472991734743,0.000935699325054884,0.0007375283166766167
1783003381894031000,3.280031005859375,-0.0016347197815775871,0.00023315753787755966,-0.0005232123658061028
1783003381904083000,3.2900830078125,-0.0019036247394979,-0.004029162228107452,0.00009734742343425751
1783003381914134000,3.300134033203125,0.00004474399611353874,0.0015672044828534126,0.0009090788662433624
1783003381924185000,3.31018505859375,-0.000102275051176548,-0.00012514228001236916,0.0006987890228629112
1783003381934237000,3.32023681640625,-0.0025619706138968468,-0.0002519087865948677,-0.0015838067047297955
1783003381944288000,3.3302880859375,-0.0011443430557847023,0.0004541664384305477,0.002338903024792671
1783003381954340000,3.340340087890625,0.001012018183246255,-0.0007754149846732616,0.0005412688478827477
1783003381964391000,3.350390869140625,-0.002199553418904543,0.0009180381894111633,-0.0017221453599631786
1783003381974443000,3.360443115234375,0.0007959702052175999,-0.0013286045286804438,-0.0004254519008100033
1783003381984494000,3.370494140625,-0.000859567429870367,0.002418335061520338,0.0017769532278180122
1783003381994545000,3.380544921875,0.0025482135824859142,-0.0015646887477487326,0.00028824619948863983
1783003382004597000,3.390596923828125,0.0025592814199626446,0.0010040896013379097,-0.0006178203038871288
1783003382014648000,3.40064794921875,0.0003400694113224745,-0.0017930283211171627,-0.0003621568903326988
1783003382024700000,3.410699951171875,-0.0003958544693887234,0.0002716993913054466,0.00025097932666540146
1783003382034751000,3.4207509765625,-0.0025173285976052284,-0.0013810584787279367,0.00034339074045419693
1783003382044802800,3.430802734375,0.0008601744193583727,-0.00003838352859020233,0.00006588082760572433
1783003382054854000,3.44085400390625,0.0014114489313215017,0.001257244497537613,0.0008373986929655075
1783003382064905000,3.450905029296875,-0.00026360712945461273,0.0017705345526337624,-0.0005489164032042027
1783003382074956800,3.460956787109375,0.0012280293740332127,-0.0009472216479480267,-0.00023226672783493996
1783003382085008000,3.4710078125,-0.0022777370177209377,-0.0008565990719944239,-0.0009087068028748035
1783003382095060200,3.481060302734375,0.001393164275214076,0.0000051995739340782166,-0.0011324123479425907
1783003382105110800,3.49111083984375,-0.0009062923491001129,0.0005203406326472759,0.00007271021604537964
1783003382115163100,3.5011630859375,-0.0030714422464370728,0.0005592228844761848,-0.0008484767749905586
1783003382125214200,3.511214111328125,0.0008938249666243792,0.0011953562498092651,0.0019451258704066277
1783003382135265000,3.52126513671875,0.003015032969415188,0.000036082230508327484,-0.00211912440136075
1783003382145317000,3.531317138671875,-0.0025441665202379227,-0.0010050218552350998,0.0030367542058229446
1783003382155368200,3.5413681640625,0.0005264582578092813,-0.00026945676654577255,-0.0012237713672220707
1783003382165420000,3.551419921875,-0.0014601661823689938,-0.000866974238306284,0.0006736619397997856
1783003382175471000,3.56147119140625,0.0008983293082565069,-0.0013290327042341232,-0.002317334059625864
1783003382185523000,3.57152294921875,-0.0009482512250542641,-0.0016504540108144283,-0.0015659802593290806
1783003382195574000,3.581573974609375,-0.0003333273343741894,0.0002917894162237644,-0.0026384354569017887
1783003382205625000,3.591625,-0.0007249382324516773,-0.0012161026243120432,-0.00020827539265155792
1783003382215677000,3.601677001953125,-0.0003491663374006748,-0.0011905364226549864,0.00005218200385570526
1783003382225728000,3.61172802734375,-0.000501011498272419,-0.0003048563376069069,-0.0009512458927929401
1783003382235780000,3.621780029296875,-0.0014802557416260242,0.00026559270918369293,-0.0016202321276068687
1783003382245831000,3.631830810546875,0.0009778731036931276,0.0002844068221747875,0.0015031546354293823
1783003382255883000,3.641883056640625,-0.00021495670080184937,-0.0005470318719744682,0.00018968340009450912
1783003382265934000,3.65193408203125,0.002534299623221159,-0.002980649471282959,0.0009172754362225533
1783003382275985000,3.66198486328125,0.0001947125419974327,-0.002171847503632307,-0.0009541278705000877
1783003382286037000,3.672037109375,-0.0016367370262742043,0.0017472049221396446,-0.0024449145421385765
1783003382296088000,3.682088134765625,0.0004202884156256914,-0.0013378008734434843,-0.0009133303537964821
1783003382306140000,3.692139892578125,-0.0012134588323533535,-0.00046963058412075043,0.00017552264034748077
1783003382316191000,3.70219091796875,0.0023866023402661085,0.0010209409520030022,-0.00046523427590727806
1783003382326242000,3.712241943359375,-0.0022437558509409428,0.0005038417875766754,0.0007647974416613579
1783003382336294000,3.7222939453125,-0.0006519844755530357,0.0008367369882762432,0.0006681252270936966
1783003382346345000,3.732344970703125,-0.0015533789992332458,0.00048595108091831207,0.00006096716970205307
1783003382356396800,3.742396728515625,0.002144420053809881,0.0019000894390046597,0.0004676319658756256
1783003382366447900,3.75244775390625,0.0005288613028824329,-0.004514569416642189,-0.00035878969356417656
1783003382376500000,3.7625,-0.0020964830182492733,0.0022019227035343647,-0.00026078568771481514
1783003382386550800,3.77255078125,-0.00037519214674830437,-0.0022681511472910643,0.0017850063741207123
1783003382396603100,3.78260302734375,0.0001561082899570465,-0.0016114155296236277,0.0004917746409773827
1783003382406654000,3.792654052734375,0.0004089649301022291,-0.0015670214779675007,0.000729086808860302
1783003382416704800,3.802704833984375,-0.001019288320094347,0.0026293215341866016,0.0017791716381907463
1783003382426757000,3.812757080078125,-0.00269886152818799,0.001656822394579649,-0.00120959198102355
1783003382436808200,3.82280810546875,0.0025057538878172636,0.001344433519989252,-0.0002692299894988537
1783003382446860000,3.832860107421875,-0.0015786313451826572,0.0013407105579972267,-0.000029235146939754486
1783003382456911000,3.8429111328125,0.002322366926819086,0.0023830714635550976,0.0010996786877512932
1783003382466962200,3.852962158203125,-0.00007438706234097481,-0.0005127426702529192,-0.00031517306342720985
1783003382477014000,3.863013916015625,-0.000008873175829648972,-0.0006427047774195671,0.00004115793853998184
1783003382487065000,3.873065185546875,-0.0017487704753875732,-0.0008822283707559109,-0.0008660894818603992
1783003382497117000,3.883116943359375,0.0005801641382277012,0.0002690562978386879,0.0016575222834944725
1783003382507168000,3.89316796875,0.0024660322815179825,0.0006427215412259102,-0.0011727111414074898
1783003382517220000,3.90322021484375,0.0034237049985677004,0.0010741534642875195,-0.001953283790498972
1783003382527271000,3.91327099609375,0.001307815546169877,-0.0001728828065097332,0.0007677292451262474
1783003382537322000,3.923322021484375,0.000027101486921310425,0.00038771284744143486,-0.00029593706130981445
1783003382547374000,3.9333740234375,-0.0015828600153326988,0.0008505247533321381,0.0016381973400712013
1783003382557425000,3.9434248046875,0.0016065419185906649,-0.001128736650571227,0.0015066377818584442
1783003382567477000,3.95347705078125,-0.0010034646838903427,0.0022476078011095524,-0.0006036781705915928
1783003382577528000,3.963528076171875,0.0015297341160476208,0.0019882158376276493,-0.0022428538650274277
1783003382587580000,3.973579833984375,-0.0015227529220283031,0.0030045476742088795,-0.0016855057328939438
1783003382597631000,3.983630859375,0.0020496114157140255,0.00040876446291804314,-0.001108398661017418
1783003382607682000,3.99368212890625,0.0008287646342068911,-0.0009552002884447575,-0.001534205861389637
1783003382617734000,4.00373388671875,-0.0006804489530622959,0.002866968512535095,-0.0001352475956082344
1783003382627785000,4.013784912109375,0.0012746539432555437,-0.001018930459395051,0.0009475983679294586
1783003382637837000,4.023837158203125,-0.0014468301087617874,0.0015757875517010689,0.0020019439980387688
1783003382647888000,4.033887939453125,0.001374843530356884,-0.0004025348462164402,-0.0006948304362595081
1783003382657939000,4.04393896484375,-0.0003458247520029545,0.0023636906407773495,0.000007178634405136108
1783003382667991000,4.053990966796875,0.001984864007681608,-0.0014318355824798346,-0.000702402088791132
1783003382678041900,4.064041748046875,-0.0009312974289059639,0.0013580918312072754,-0.00045259715989232063
1783003382688094000,4.074093994140625,-0.0011116261593997478,0.0009764512069523335,0.000017873942852020264
1783003382698145000,4.08414501953125,0.001415979815647006,-0.0020491660106927156,-0.0015395423397421837
1783003382708197000,4.094197021484375,0.0005998900160193443,0.0013031992129981518,-0.0004803510382771492
1783003382718248000,4.104248046875,0.0025455954018980265,0.00043447595089673996,0.0008624149486422539
1783003382728299000,4.114299072265625,0.00212033255957067,0.0017502442933619022,0.0011825338006019592
1783003382738351000,4.12435107421875,0.0019288512412458658,0.001552637666463852,0.0009548328816890717
1783003382748402000,4.13440185546875,0.000723585020750761,-0.00005273567512631416,-0.0004049297422170639
1783003382758454000,4.1444541015625,-0.0016034850850701332,0.0011054729111492634,0.00010293535888195038
1783003382768505000,4.154505126953125,0.0010265260934829712,0.0011751018464565277,0.0002765050157904625
1783003382778557200,4.16455712890625,-0.0006568580865859985,-0.00031520286574959755,-0.0008928896859288216
1783003382788608000,4.17460791015625,-0.001701541244983673,-0.0002594715915620327,-0.0010591032914817333
1783003382798659000,4.1846591796875,-0.0010338868014514446,-0.0014813297893851995,-0.0031241183169186115
1783003382808711200,4.194711181640625,0.0004131961613893509,-0.0008054140489548445,-0.0003327019512653351
1783003382818762000,4.204761962890625,0.0005346362013369799,-0.0013569546863436699,-0.0020182165317237377
1783003382828814000,4.21481396484375,0.0008703158237040043,0.00012212246656417847,0.0010450463742017746
1783003382838865200,4.224865234375,0.0012697898782789707,0.0028372155502438545,-0.0021424912847578526
1783003382848916000,4.234916015625,-0.002025783061981201,-0.0015515766572207212,0.0007305620238184929
1783003382858968000,4.244968017578125,0.00003923196345567703,0.0018591335974633694,0.00023814383894205093
1783003382869019100,4.25501904296875,0.0009782100096344948,0.0008197324350476265,0.00026314612478017807
1783003382879071000,4.265071044921875,-0.0026463521644473076,-0.0012809690088033676,0.0005787303671240807
1783003382889121800,4.275121826171875,-0.00012278929352760315,0.002031531184911728,0.0007513612508773804
1783003382899174000,4.285173828125,0.0008146432228386402,0.00003788899630308151,-0.0017549390904605389
1783003382909225000,4.295224853515625,0.0010007903911173344,0.00010049203410744667,-0.0023213131353259087
1783003382919275800,4.30527587890625,0.0008258207235485315,-0.00019511859863996506,-0.00032767094671726227
1783003382929327900,4.315327880859375,0.0009822682477533817,0.0019318284466862679,-0.00281901890411973
1783003382939379000,4.32537890625,-0.00036369357258081436,0.002708139829337597,0.0008606705814599991
1783003382949431000,4.33543115234375,-0.0012282547540962696,-0.0002085142768919468,0.0019840849563479424
1783003382959481900,4.34548193359375,0.00035126577131450176,0.0008620764128863811,-0.0005824035033583641
1783003382969534000,4.355533935546875,-0.00005025789141654968,-0.001067708944901824,-0.00039422884583473206
1783003382979585000,4.3655849609375,0.0013697396498173475,-0.0002820766530930996,0.00025425106287002563
1783003382989635800,4.3756357421875,0.0016899874899536371,-0.00026443786919116974,0.0011015143245458603
1783003382999688000,4.38568798828125,-0.0020608087070286274,0.0009907102212309837,-0.0014926707372069359
1783003383009739000,4.395739013671875,-0.00003495858982205391,0.0010563228279352188,0.0018326649442315102
1783003383019790800,4.405790771484375,-0.00022244499996304512,-0.0008017646614462137,-0.000012638978660106659
1783003383029842000,4.415842041015625,0.0012063952162861824,0.00004966696724295616,-0.00040709320455789566
1783003383039893000,4.42589306640625,0.0013012038543820381,0.0012201261706650257,-0.00023105833679437637
1783003383049944800,4.43594482421875,0.0024794060736894608,0.00044581200927495956,0.0015515843406319618
1783003383059996000,4.445995849609375,-0.0005984092131257057,0.0009179902262985706,-0.0008708271197974682
1783003383070047700,4.4560478515625,-0.00010604690760374069,0.00013761036098003387,0.0010469760745763779
1783003383080098800,4.466098876953125,-0.0015153917483985424,-0.00029328884556889534,-0.004070022143423557
1783003383090151000,4.47615087890625,-0.0012176986783742905,-0.0008934512734413147,-0.002777756191790104
1783003383100201700,4.48620166015625,0.0004196127410978079,-0.0016215594951063395,0.003701714798808098
1783003383110252800,4.496252685546875,0.0010880597401410341,-0.0009210798889398575,-0.00004539266228675842
1783003383120305000,4.506304931640625,-0.00024165678769350052,0.00012208055704832077,0.0007314514368772507
1783003383130355700,4.516355712890625,-0.0007106908597052097,0.0016008764505386353,0.0031957319006323814
1783003383140407800,4.52640771484375,-0.001920298207551241,-0.0016098304186016321,0.0002782391384243965
1783003383150459000,4.536458984375,-0.001632623840123415,0.002963302657008171,-0.0009860089048743248
1783003383160510000,4.546510009765625,0.00003398209810256958,0.0001390203833580017,-0.0010848124511539936
1783003383170561800,4.556561767578125,0.0008690953254699707,-0.00013879220932722092,-0.0025868634693324566
1783003383180612900,4.56661279296875,0.0024243812076747417,-0.0037843934260308743,-0.0000944109633564949
1783003383190664700,4.576664794921875,0.0018074996769428253,-0.0010046700481325388,-0.0002710409462451935
1783003383200715800,4.5867158203125,-0.0011981436982750893,0.0019727437756955624,0.00037397630512714386
1783003383210768000,4.596767822265625,-0.0012103593908250332,-0.001978083746507764,-0.00031794048845767975
1783003383220818700,4.606818603515625,0.00005970196798443794,0.00009438814595341682,0.0026062102988362312
1783003383230869800,4.616869873046875,0.0005382485687732697,-0.00025975611060857773,0.001277334988117218
1783003383240921900,4.626921875,-0.0020572682842612267,0.0012286845594644547,0.0008983667939901352
1783003383250973000,4.636972900390625,0.0013334439136087894,0.002084572333842516,0.001493901014328003
1783003383261025000,4.64702490234375,0.0006830999627709389,0.00019159726798534393,-0.0026236120611429214
1783003383271075800,4.657075927734375,-0.0011656954884529114,0.0019387933425605297,-0.003155768383294344
1783003383281127000,4.667126953125,-0.0006311992183327675,-0.001107596792280674,0.0013702735304832458
1783003383291179000,4.677178955078125,-0.000288231298327446,0.002087648492306471,0.0003162333741784096
1783003383301230000,4.68722998046875,0.001509935362264514,0.0003163800574839115,-0.0010228040628135204
1783003383311282000,4.697281982421875,-0.0002663843333721161,0.0007497654296457767,0.0008892696350812912
1783003383321333000,4.7073330078125,-0.0005404236726462841,-0.00038154562935233116,-0.0014231535606086254
1783003383331384800,4.717384765625,0.002218926325440407,-0.00035125110298395157,0.000028104521334171295
1783003383341436000,4.727435791015625,-0.00006180489435791969,-0.00026363320648670197,-0.0005463389679789543
1783003383351487000,4.737487060546875,-0.0019142203964293003,-0.00003059953451156616,0.0016356613487005234
1783003383361538800,4.747538818359375,0.0019186011049896479,-0.0006154295988380909,0.00012777931988239288
1783003383371590000,4.75758984375,0.0011211109813302755,0.004191617015749216,-0.000863795168697834
1783003383381642000,4.76764208984375,0.0025637452490627766,-0.0010699902195483446,0.0015636757016181946
1783003383391692800,4.77769287109375,-0.0013616764917969704,0.0002760346978902817,-0.0023009562864899635
1783003383401744000,4.787743896484375,-0.0004631262272596359,-0.0010827099904417992,0.00015767384320497513
1783003383411796000,4.7977958984375,-0.000042803119868040085,0.0013266694732010365,-0.002003101631999016
1783003383421846800,4.8078466796875,0.0001260414719581604,-0.00021396903321146965,0.0012829722836613655
1783003383431899000,4.81789892578125,-0.0005455976352095604,0.0023003527894616127,-0.0012684622779488564
1783003383441950000,4.827949951171875,-0.0013112565502524376,0.0007115108892321587,-0.0014277193695306778
1783003383452001800,4.838001708984375,-0.0005362080410122871,-0.0001843203790485859,0.00016386806964874268
1783003383462052900,4.848052978515625,0.0008699411991983652,0.0015888120979070663,-0.0008414755575358868
1783003383472104000,4.85810400390625,-0.0001560831442475319,0.001019299030303955,-0.0008030412718653679
1783003383482155800,4.86815576171875,-0.0005105496384203434,0.0014707050286233425,-0.004274471662938595
1783003383492206800,4.878206787109375,-0.0016146227717399597,0.0018555093556642532,-0.0006707045249640942
1783003383502258700,4.8882587890625,-0.002093459013849497,-0.0011128499172627926,-0.003169282339513302
1783003383512309800,4.898309814453125,-0.0011132517829537392,0.0004031606949865818,0.00008758064359426498
1783003383522360800,4.90836083984375,-0.0012844931334257126,-0.00160113419406116,0.00044950470328330994
1783003383532412700,4.91841259765625,-0.0025325543247163296,-0.0020366425160318613,-0.00001905299723148346
1783003383542463700,4.928463623046875,-0.0003048200160264969,0.00024355575442314148,0.0019152015447616577
1783003383552516000,4.93851611328125,0.001558647956699133,0.002129349857568741,0.001137138344347477
1783003383562566700,4.948566650390625,-0.001096789725124836,-0.0013058618642389774,0.001474561169743538
1783003383572619000,4.958618896484375,-0.0004688533954322338,-0.00030633481219410896,0.00007962249219417572
1783003383582670000,4.968670166015625,-0.002053967211395502,0.0011309734545648098,0.0009198496118187904
1783003383592721000,4.978720947265625,-0.00013366946950554848,-0.002357061253860593,-0.00006510969251394272
1783003383602773000,4.98877294921875,0.0011523710563778877,-0.0004952452145516872,-0.0015154671855270863
1783003383612824000,4.998823974609375,0.0006933447439223528,0.0022421381436288357,0.0008211815729737282
1783003383622876000,5.0088759765625,-0.0014153462834656239,0.0019515869207680225,0.00022836215794086456
1783003383632927000,5.018927001953125,0.0006060206796973944,-0.0006483974866569042,-0.0029175174422562122
1783003383642978000,5.02897802734375,0.0002875064965337515,-0.0017139283008873463,0.004052507691085339
1783003383653030000,5.03902978515625,0.0002056059893220663,0.0014841896481812,0.0005299970507621765
1783003383663081000,5.0490810546875,-0.0013374295085668564,-0.00042689498513936996,0.003976127132773399
1783003383673132800,5.0591328125,-0.0011458685621619225,-0.00005786772817373276,-0.00214274600148201
1783003383683183900,5.069183837890625,-0.0005525159649550915,-0.0027649709954857826,0.0009372001513838768
1783003383693235000,5.07923486328125,-0.0011625224724411964,-0.003551425877958536,-0.001307566650211811
1783003383703286800,5.089286865234375,-0.000519369263201952,0.00017327116802334785,0.0006458619609475136
1783003383713337900,5.099337890625,-0.0003730510361492634,-0.0003845314495265484,-0.0024061445146799088
1783003383723390000,5.109389892578125,-0.000051341019570827484,0.00015129661187529564,-0.00011183135211467743
1783003383733440800,5.119440673828125,0.001535244518890977,-0.002311726799234748,-0.0006430591456592083
1783003383743492900,5.129492919921875,0.0004734420217573643,-0.0004632268100976944,-0.00199274905025959
1783003383753544000,5.1395439453125,-0.002746785990893841,-0.0009604655206203461,0.0007113795727491379
1783003383763594800,5.1495947265625,0.001709215110167861,0.0003711148165166378,-0.00040395185351371765
1783003383773646800,5.159646728515625,-0.003332922700792551,0.0025570509023964405,0.00022869091480970383
1783003383783698000,5.169697998046875,0.0005582221783697605,0.0019605024717748165,0.0017142025753855705
1783003383793749800,5.179749755859375,-0.0015574595890939236,-0.0003962288610637188,0.0013398798182606697
1783003383803800800,5.18980078125,0.0015501831658184528,-0.00201250147074461,-0.002398931887000799
1783003383813852000,5.199851806640625,0.002066928893327713,-0.0023006934206932783,-0.0007030260749161243
1783003383823903700,5.20990380859375,-0.00031713303178548813,-0.0009632541332393885,0.0003065783530473709
1783003383833954800,5.219954833984375,-0.0008163070306181908,-0.0007165127899497747,-0.00048215966671705246
1783003383844006700,5.230006591796875,-0.0005249576643109322,-0.001098942942917347,0.0016747340559959412
1783003383854057700,5.2400576171875,-0.0005751852877438068,-0.001245409483090043,0.0005520135164260864
1783003383864110000,5.250110107421875,-0.0005296450108289719,-0.0021892336662858725,-0.00448215939104557
1783003383874160600,5.26016064453125,0.0011510541662573814,0.002177771180868149,0.0013902336359024048
1783003383884212200,5.270212158203125,-0.0006465795449912548,-0.0016670343466103077,0.0008647916838526726
1783003383894264600,5.2802646484375,-0.0006441338919103146,-0.001068119890987873,-0.0006890804506838322
1783003383904315400,5.2903154296875,-0.005014914087951183,0.04090303182601929,0.03441937267780304
1783003383914367500,5.300367431640625,-0.008301876485347748,0.172143816947937,0.018770214170217514
1783003383924418600,5.31041845703125,-0.014341926202178001,-0.17149637639522552,-0.02626250684261322
1783003383934469400,5.320469482421875,0.012858464382588863,-0.007428223732858896,-0.015478558838367462
1783003383944521500,5.330521484375,-0.0012482996098697186,0.08048725128173828,0.031736090779304504
1783003383954572500,5.340572509765625,-0.000523061491549015,-0.017805568873882294,-0.01310922484844923
1783003383964624400,5.350624267578125,0.004437875002622604,-0.10147862881422043,-0.04882514476776123
1783003383974675500,5.360675537109375,0.0015231238212436438,-0.1456192433834076,-0.04773213714361191
1783003383984726500,5.3707265625,0.0035750893875956535,-0.0644727349281311,-0.024490730836987495
