time,seconds_elapsed,z,y,x
1783003408507429400,0.089429443359375,-0.08747954601049422,-0.003879362183995545,-0.0148698532811366
1783003408517481200,0.099481201171875,-0.07236556350886822,-0.0075032517695799465,-0.022284613916510716
1783003408527532300,0.1095322265625,-0.07521452319920062,-0.011338336420431732,-0.027587907956400884
1783003408537583400,0.119583251953125,-0.07807049715220928,-0.007455576702952385,-0.00699601463349536
1783003408547634400,0.129634521484375,-0.08780220209360122,0.013582571683265267,0.0046601372981444
1783003408557686300,0.139686279296875,-0.07987024005055426,0.007180778349563479,0.030748025088291612
1783003408567737300,0.1497373046875,-0.07732347817718982,0.012197766261361539,0.017657182444725184
1783003408577788400,0.159788330078125,-0.07313245622813701,0.01008070104215294,0.017951452683564274
1783003408587839500,0.169839599609375,-0.08016133195161819,-0.005122457580268382,0.008887235207576304
1783003408597891300,0.179891357421875,-0.08135141851902007,-0.008726144628040493,-0.00011545220636762678
1783003408607942400,0.1899423828125,-0.07864858930110931,-0.006236848562955856,-0.014893161091487854
1783003408617993500,0.199993408203125,-0.08387772212624549,-0.002519106681458652,-0.01341067658192478
1783003408628044300,0.210044189453125,-0.0763964264601469,0.01006429789662361,-0.023467330028209835
1783003408638096400,0.220096435546875,-0.0753507167994976,0.022323219760693607,-0.014987524844054132
1783003408648147500,0.2301474609375,-0.07520224823951721,0.028291334384866057,-0.00348122971188277
1783003408658198300,0.2401982421875,-0.07235854924619198,0.023548158445768057,0.01621296585262753
1783003408668249300,0.250249267578125,-0.07535247036516667,0.008306677106954157,0.015419075528578833
1783003408678301400,0.260301513671875,-0.0741524469256401,-0.004937566000036895,0.019504810472251846
1783003408688352300,0.270352294921875,-0.07698328643739223,-0.01286408468298614,0.018103857633145527
1783003408698403300,0.2804033203125,-0.08700374519228934,-0.009999160238541662,0.003183096148679033
1783003408708454400,0.290454345703125,-0.08146540028750895,-0.0020793270247057077,0.006623062268411741
1783003408718506200,0.30050634765625,-0.07158873391747474,-0.0102809363219887,-0.006828101587528362
1783003408728557300,0.310557373046875,-0.08101298034489154,-0.0001512085063382983,-0.02480549242994748
1783003408738608400,0.3206083984375,-0.07502513810694217,0.010092391479946672,-0.029955687400512396
1783003408748659500,0.330659423828125,-0.0766752434015274,0.009850435950234531,-0.030035721233626828
1783003408758711300,0.340711181640625,-0.08610358148217201,-0.003043495881743729,-0.010051063955714926
1783003408768762400,0.350762451171875,-0.08206687331199645,0.0006055646777153015,0.007221904944395646
1783003408778813400,0.3608134765625,-0.07533668827414512,0.008049670138582586,0.025088638486573472
1783003408788864300,0.3708642578125,-0.07054594686627387,0.015481902498565613,0.02754231524900533
1783003408798916400,0.380916259765625,-0.07324059277772903,0.007450389071181416,0.019797482409048824
1783003408808967400,0.390967529296875,-0.07308627899885177,0.0031660628154873845,0.012119148067198693
1783003408819018200,0.401018310546875,-0.07936755122542381,-0.006335486631840467,0.0026173154920805246
1783003408829069300,0.4110693359375,-0.0828010328054428,0.019050372102484107,-0.008535517426766455
1783003408839121400,0.421121337890625,-0.07456804198920726,0.023426504827477036,-0.02899180167126469
1783003408849172500,0.43117236328125,-0.07217617841660975,0.017148082145117222,-0.028340187628427518
1783003408859223300,0.441223388671875,-0.07622399250268935,-0.02132693873234093,-0.006147489779070019
1783003408869274000,0.451274169921875,-0.08191431309878826,-0.03293799114692956,-0.007979134786175563
1783003408879326500,0.461326416015625,-0.08983984540104865,-0.02357647122479975,0.008465365666849538
1783003408889377300,0.471377197265625,-0.07247194649279118,0.005248714308440685,0.01271600884865038
1783003408899428400,0.481428466796875,-0.07067337263822555,0.017898681316711008,0.01839918731790967
1783003408909480000,0.49147998046875,-0.07082710189521313,0.020674100846797227,0.01658156170300208
1783003408919531800,0.50153173828125,-0.08249708142280578,-0.004661817798577249,0.009817839721729978
1783003408929582800,0.511582763671875,-0.07890460988879203,-0.038522403683140874,-0.0008833952384069561
1783003408939634000,0.521634033203125,-0.08683774097561836,-0.054754357364028686,-0.009153941586054861
1783003408949684700,0.531684814453125,-0.08848492366075515,-0.03983008874822408,-0.009713886156911029
1783003408959736800,0.54173681640625,-0.08010755593776703,-0.007160758474841713,0.002172220339393243
1783003408969788000,0.551787841796875,-0.08114917394518852,0.04444214912094176,0.010804037747485562
1783003408979839000,0.5618388671875,-0.07441489725410938,0.07167663139663637,0.019682495993562043
1783003408989889800,0.571889892578125,-0.08817512705922126,0.06705817781575024,-0.002487049309071153
1783003408999942000,0.58194189453125,-0.08414075697660446,0.04280515903625637,-0.00986493939962238
1783003409009993000,0.591992919921875,-0.07861117990016937,0.0019485037192702292,-0.02628770294487476
1783003409020043800,0.602043701171875,-0.08145721698105335,-0.048440242313779885,-0.0279350043610204
1783003409030094800,0.6120947265625,-0.07547229735255241,-0.06837941648215055,-0.015568347806157543
1783003409040147000,0.62214697265625,-0.08744739730656147,-0.044514154911227524,-0.01419870342076756
1783003409050197800,0.63219775390625,-0.09462649515569209,-0.01124097699318081,0.008370335194002836
1783003409060248800,0.642248779296875,-0.08399930267930031,0.013648549591563641,0.01724878430692479
1783003409070300000,0.6522998046875,-0.08116203342676162,0.01707859710548073,0.02495729459132999
1783003409080351700,0.662351806640625,-0.07757423806786537,0.016110482725687325,0.020904018878843633
1783003409090402800,0.67240283203125,-0.08280746254622935,0.012845854906551539,0.012933715853095053
1783003409100454000,0.682453857421875,-0.08624211317002772,0.00027863427828997374,-0.008625944789731875
1783003409110505000,0.6925048828125,-0.0750152012348175,0.006770151722058654,-0.020124239278538153
1783003409120556800,0.702556884765625,-0.07083060902655124,0.011837043190188705,-0.03808049600138329
1783003409130607900,0.71260791015625,-0.07368015323877335,0.02197568496465683,-0.026028129560081287
1783003409140659000,0.722658935546875,-0.07098550732731819,0.01650894399136305,-0.014112559507275
1783003409150709800,0.732709716796875,-0.09043371964097023,0.022634952590987086,-0.005983695785794407
1783003409160761900,0.742761962890625,-0.08280278637111187,0.009345116776600479,0.013056154922675341
1783003409170813000,0.75281298828125,-0.07532265974879264,-0.006489727345481515,0.03049370326735079
1783003409180863700,0.76286376953125,-0.08594809865951537,-0.03937781493607908,0.026001862607663496
1783003409190914800,0.772914794921875,-0.0819078833580017,-0.05135664121713489,0.014156846173573285
1783003409200967000,0.782966796875,-0.07247194649279118,-0.03716989309564232,0.014818260091217233
1783003409211017700,0.793017822265625,-0.07816109804511069,0.0024565628392621873,-0.005657130712550133
1783003409221068800,0.80306884765625,-0.0825011730760336,0.027524222469888626,-0.024147293382696805
1783003409231120000,0.813119873046875,-0.06933423298895358,0.03313369638212025,-0.02951681192605756
1783003409241171700,0.823171630859375,-0.07847323273420334,0.021846322963945567,-0.02659908871529624
1783003409251222800,0.833222900390625,-0.07713467760682105,0.02159833955224603,-0.011271490862453356
1783003409261273900,0.84327392578125,-0.08835282171368598,0.015061265933699905,0.0006220408884808421
1783003409271325000,0.853324951171875,-0.09134206665754317,0.014978117694891989,0.00306723295035772
1783003409281376800,0.863376708984375,-0.08356091126203537,0.0097219507323578,0.012579614318953826
1783003409291427800,0.873427734375,-0.07892214554548263,0.0016292817022651434,-0.0022723379793111232
1783003409301479000,0.88347900390625,-0.07263502810001372,-0.00846270791888237,-0.0003459730266127735
1783003409311530000,0.893530029296875,-0.07667699696719646,-0.016509418915398418,0.004365684396214783
1783003409321581800,0.903581787109375,-0.07458733121156692,-0.02053998960573226,0.00042881073816679414
1783003409331633000,0.9136328125,-0.0799777920782566,-0.019660832151025532,-0.012032529229670762
1783003409341684000,0.92368408203125,-0.07787585136294364,-0.009641871233470737,-0.006376110903173685
1783003409351734800,0.93373486328125,-0.06994739645123481,0.006099449386261403,-0.0018500483134761452
1783003409361787000,0.943786865234375,-0.08011924637556075,0.010210428369045257,0.009445901136798784
1783003409371838000,0.953837890625,-0.07936287505030631,0.01543192587699741,0.015724689145339654
1783003409381888800,0.963888671875,-0.08309095566272735,0.009557407820411026,0.012286604455439373
1783003409391939800,0.97393994140625,-0.07680208465158939,0.013059607255086302,-0.00201716677499935
1783003409401992000,0.983991943359375,-0.0795031603038311,0.019994484552182255,-0.004714497833885252
1783003409412042800,0.994042724609375,-0.08294774779975414,0.012268347279541193,-0.012960932653583586
1783003409422093800,1.00409375,-0.07890870154201984,0.004687755957432091,-0.02430642946716398
1783003409432145000,1.014144775390625,-0.07756663928329945,-0.0008665902340784669,-0.01885010029003024
1783003409442196700,1.02419677734375,-0.07487959215641021,-0.014659005275741219,-0.00032632761122658845
1783003409452247800,1.034247802734375,-0.07937339644432068,-0.023837898639962076,0.0010875851741526275
1783003409462299000,1.044298828125,-0.08102583982646465,-0.025182079790532587,0.018636731533985585
1783003409472350000,1.054349853515625,-0.08296645250022411,-0.009245200066082178,0.02554443769636564
1783003409482401800,1.06440185546875,-0.08026128519475459,0.010407339180633425,0.020125947178434578
1783003409492452900,1.074452880859375,-0.07592004112005234,0.01025540002193302,0.015663232148531825
1783003409502504000,1.08450390625,-0.08474690617620945,0.01291289226077497,-0.004046736373845488
1783003409512555000,1.094554931640625,-0.07456979555487632,0.011078370309993623,-0.015240969882160425
1783003409522606800,1.10460693359375,-0.08339899869859219,0.01230173809248954,-0.025988436870509758
1783003409532658000,1.114657958984375,-0.08055003900825977,0.007807312750071287,-0.026331249825656412
1783003409542709000,1.124708984375,-0.08115268107652664,0.008318586740456522,-0.019432366290548814
1783003409552759800,1.134759765625,-0.07681786674261093,0.009138670951686799,-0.013508529199520124
1783003409562812000,1.14481201171875,-0.08206278165876865,-0.0000063932081684470174,-0.006734048362215981
1783003409572863000,1.154863037109375,-0.08131459363996982,-0.013368161747604608,0.0038768779659643766
1783003409582913800,1.164913818359375,-0.08146832289695739,-0.015370733741670846,0.02494387798733078
1783003409592964900,1.17496484375,-0.08311141392886638,-0.024981552249751984,0.02705813019494526
1783003409603017000,1.185016845703125,-0.07862111677229404,-0.016616934410482644,0.02052749545034021
1783003409613067800,1.19506787109375,-0.07816226708889007,-0.004704159102961421,0.010541441288543865
1783003409623118800,1.205118896484375,-0.07800970687568187,0.011873612340912222,-0.004124450385710224
1783003409633170000,1.215169921875,-0.08144669558703899,0.022852796592749653,-0.015398133205249905
1783003409643221800,1.2252216796875,-0.08547931210398674,0.024785262492671607,-0.028282484358130022
1783003409653272800,1.23527294921875,-0.07680325369536876,-0.0016888664023950695,-0.03149044095342979
1783003409663324000,1.245323974609375,-0.07501753932237624,-0.009283047858439385,-0.021597755030356346
1783003409673375000,1.255375,-0.07891220867335796,-0.017467267629504204,-0.0023536595872137695
1783003409683425800,1.26542578125,-0.07322130355536938,-0.00993953900579363,0.016743373801745474
1783003409693478000,1.275477783203125,-0.08383739011585711,0.01399418469145894,0.027114253429509697
1783003409703529000,1.285529052734375,-0.08054068665802479,0.01735876575373113,0.02562589630158618
1783003409713579800,1.295579833984375,-0.07020867773592472,0.008212422952242195,0.016890636785328386
1783003409723630800,1.305630859375,-0.08128361397981643,-0.008781235816143453,-0.0034221564684063194
1783003409733683000,1.315682861328125,-0.07380290283560753,-0.017269881893880665,-0.017767008627904576
1783003409743733800,1.325733642578125,-0.07065525245964527,-0.004513897227868438,-0.023050967779662458
1783003409753784800,1.335784912109375,-0.07633738974928855,0.0094384210832417,-0.029615988851059226
1783003409763836000,1.3458359375,-0.07110474979281425,0.010429368349350989,-0.015221214868919922
1783003409773888000,1.355887939453125,-0.06646598407626152,0.01813132102880627,-0.014151695074420422
1783003409783938800,1.365938720703125,-0.06781622964143752,0.008893281355872749,0.004612398299435153
1783003409793990000,1.375989990234375,-0.07245265727043151,-0.004506517639011144,0.025360304167959837
1783003409804041000,1.386041015625,-0.084117376101017,-0.010661752333119511,0.02153987823012285
1783003409814092800,1.3960927734375,-0.07079612223505974,-0.027931743824854492,0.0161148757730145
1783003409824144000,1.406143798828125,-0.07438684020340443,-0.014451865331083535,0.004222010742360726
1783003409834195000,1.41619482421875,-0.07723521537184715,-0.006680939068645238,-0.0003947075391653925
1783003409844246000,1.42624609375,-0.08322188856601714,0.013703311986103653,-0.011596585497818886
1783003409854297900,1.4362978515625,-0.07498714418411255,0.024676979812607167,-0.010934148666867986
1783003409864349000,1.446348876953125,-0.07917290543615818,0.019656594367325305,-0.016228684011567383
1783003409874400000,1.45639990234375,-0.07139116551876068,0.017675759281031787,-0.024050262749008833
1783003409884450800,1.466450927734375,-0.07903378922641277,0.004287175799906254,-0.021640927451802416
1783003409894503000,1.4765029296875,-0.08053191882967949,-0.002000781895779073,-0.013716089269286021
1783003409904553000,1.486552978515625,-0.07514671865999699,-0.006756634653359651,0.003416859238781035
1783003409914604000,1.49660400390625,-0.07978665342032909,-0.010474084273912013,0.01463801728663966
1783003409924654800,1.50665478515625,-0.07888648971021175,-0.008766111312247813,0.024227793006692082
1783003409934707000,1.51670703125,-0.07873860567212104,-0.008727861661091447,0.024226423033513127
1783003409944758000,1.526758056640625,-0.07948270203769206,-0.0013598536437377333,0.014752738840645178
1783003409954808800,1.536808837890625,-0.07857435502111912,0.012641637571342288,0.014607695213612168
1783003409964860000,1.54685986328125,-0.07961246589720249,0.032221586505882444,-0.0021802209827583283
1783003409974912000,1.556912109375,-0.08140694809854031,0.03448171345759183,-0.034359310920629646
1783003409984962800,1.566962890625,-0.0737736767411232,0.015414061426743864,-0.03740886208382435
1783003409995014000,1.577013916015625,-0.06051145958602428,-0.000316920462064445,-0.035835155626852064
1783003410005065000,1.58706494140625,0.12148586050868034,0.0078209028840065,-0.03822407832369208
1783003410015117000,1.597116943359375,0.08829378500282764,0.0012087182026356458,-0.11515490392148495
1783003410025168000,1.60716796875,-0.5372714782118797,-0.07143328762743621,0.17411526160798965
1783003410035219000,1.617218994140625,-0.0466553681910038,0.023312961450405418,0.004814898601593449
1783003410045270000,1.62727001953125,-0.06427753412127495,-0.00042892946917563675,0.03236071184878237
1783003410055321900,1.63732177734375,-0.09347089537978172,-0.008421791386604309,0.06291568944985046
1783003410065373000,1.647373046875,-0.07907529028058051,-0.011287665679119527,0.015931902155233546
1783003410075424000,1.657424072265625,-0.12704641724526883,-0.023034948226623237,0.019860985232470554
1783003410085475000,1.66747509765625,-0.19296353526711463,0.00014656886383891104,0.030251528541930018
1783003410095527000,1.67752685546875,-0.25446985110938547,-0.016797332478687164,-0.028236224930454044
1783003410105578000,1.687577880859375,0.012642039430141448,0.06635032180733978,-0.029052117023756725
1783003410115629000,1.697629150390625,0.1718073499917984,0.058434178387932474,-0.12618987348116933
1783003410125679900,1.707679931640625,0.16646891157329083,0.05335720391720533,-0.07632082220697775
1783003410135732000,1.71773193359375,0.02054828251004219,-0.013733268732950091,-0.10025755071206949
1783003410145783000,1.727782958984375,-0.19552841731905937,-0.04208966771066189,0.057887266828585415
1783003410155833900,1.737833740234375,-0.3553086449086666,-0.08635160142648965,0.09758561895592138
1783003410165885000,1.747885009765625,-0.039000469523668285,-0.011868607372231782,0.025061723080184308
1783003410175937000,1.75793701171875,-0.07519348041117191,-0.012204780524037777,0.07482061937763355
1783003410185987800,1.76798779296875,-0.08462298753559588,0.021514168400131164,0.039741551948245614
1783003410196039000,1.778038818359375,-0.07622399250268935,0.028340945680253207,0.022728211231855675
1783003410206090000,1.788090087890625,-0.09087444914579391,0.024237419351562855,-0.0037198425070382652
1783003410216141000,1.79814111328125,-0.05942658695876598,0.008173844507522881,-0.049036345043405885
1783003410226193000,1.80819287109375,-0.1289420217335224,-0.01497603533565998,-0.04056137129799463
1783003410236244000,1.818243896484375,-0.07384381936788559,-0.01874108695760369,-0.07652702143671922
1783003410246295000,1.828294921875,0.00810673408806324,0.016884353175014258,-0.051646673672273755
1783003410256346000,1.83834619140625,-0.029247137272357938,0.018434980150498447,-0.034527351830760014
1783003410266398000,1.84839794921875,-0.1709481028139591,0.005579188371822238,0.02032517781127244
1783003410276449000,1.858448974609375,-0.10450608413517475,-0.0002848082907497883,0.06058450655592605
1783003410286500000,1.8685,-0.05123918884992599,0.001254639703594148,0.025192427654610945
1783003410296551000,1.878551025390625,-0.09164017282128334,-0.02599463828243315,0.07179127988540566
1783003410306603000,1.88860302734375,-0.07906827601790428,-0.008936207182146608,0.002979161941260099
1783003410316654000,1.898654052734375,-0.09552198269069194,-0.03397475031614303,0.0069836209428031
1783003410326705000,1.908704833984375,-0.07293313426375389,-0.016463935805857182,-0.04577548921708949
1783003410336756000,1.918755859375,-0.0849012199550867,-0.0030869331646710633,-0.03862355336952023
1783003410346808000,1.92880810546875,-0.07562719565331935,0.025829547381214797,-0.042413721166411414
1783003410356859000,1.93885888671875,-0.09207973328232764,0.020279073647223412,-0.021917725966032593
1783003410366910000,1.948909912109375,-0.07816109804511069,0.022745244565047323,-0.016438901829300447
1783003410376961000,1.9589609375,-0.06963292367458343,0.007964001149125396,0.012616448331158608
1783003410387012900,1.969012939453125,-0.07696984243392944,0.00006773147396743297,0.03297798523060046
1783003410397064000,1.97906396484375,-0.08175941479802132,-0.0054971726441755886,0.02202181652816944
1783003410407115000,1.989114990234375,-0.06979074458479881,-0.015355243911594152,0.01005007757502608
1783003410417166000,1.999166015625,-0.0718827484279871,-0.01768646333813667,-0.010785250848624854
1783003410427218000,2.009218017578125,-0.07278291213810444,-0.03312898367438465,-0.011341167698334901
1783003410437269000,2.01926904296875,-0.08415478550195693,-0.028616986142657695,-0.01408579023135826
1783003410447320000,2.029320068359375,-0.09447685755193233,-0.008042619343288242,-0.01977147118495777
1783003410457371000,2.039370849609375,-0.0856418091893196,0.011952559328638016,-0.008642649329360574
1783003410467423000,2.049423095703125,-0.08083879282176494,0.02697466229572892,-0.002224452850129455
1783003410477474000,2.05947412109375,-0.05912672722935676,0.0347197965297848,0.016189438846567646
1783003410487524900,2.06952490234375,-0.07809796968102455,0.019726152472198007,0.023856174082169307
1783003410497576000,2.079575927734375,-0.15594634851515293,-0.004222878392040729,0.050100668072979894
1783003410507628000,2.0896279296875,-0.14339140284657478,-0.027781046775169668,0.003587841024668887
1783003410517679000,2.09967919921875,-0.028842063602805137,-0.006961034651659428,-0.006104637018032372
1783003410527730000,2.10972998046875,-0.0045984337061643595,0.00208973882086575,-0.033770925706578414
1783003410537781000,2.119781005859375,-0.054558688661456106,-0.00434898898974061,-0.027261388548929243
1783003410547833000,2.1298330078125,-0.13248773151636123,0.007220123979263007,0.004152735765278339
1783003410557884000,2.1398837890625,0.001695113480091095,0.02285082383137196,-0.015570055706053972
1783003410567935000,2.14993505859375,-0.037111294776201245,0.0006415493065491318,-0.0688349325641524
1783003410577986000,2.159986083984375,-0.14858195722699163,-0.011673742387257515,0.06018205410172231
1783003410588037000,2.170037109375,-0.11981938860118388,-0.01635762588717043,0.0022018391595222055
1783003410598089000,2.1800888671875,-0.07400047123432159,-0.01869085460770875,0.0140805021348875
1783003410608140000,2.19014013671875,-0.0530471150547266,0.00023775427863001821,0.011316773042595013
1783003410618191000,2.200191162109375,-0.07114508180320263,0.0021548399463295937,0.0006878270005341619
1783003410628242000,2.210241943359375,-0.10223170946240424,0.009224193810671567,-0.005536518273875117
1783003410638294000,2.2202939453125,-0.0784182876765728,0.017960238778218625,-0.01406395285888575
1783003410648345000,2.230344970703125,-0.029665654945373533,0.020466814771667122,-0.03157097711004317
1783003410658396000,2.24039599609375,-0.05407821166813373,0.0023384894175454973,-0.03709868188980035
1783003410668447000,2.250447021484375,-0.13678805905878544,-0.027781521699205038,0.002217274190671742
1783003410678499000,2.2604990234375,-0.12282032398283481,-0.008888678245991467,0.013706417258642613
1783003410688550000,2.2705498046875,-0.009712415719032287,0.0033466800794005394,0.0017997246320359409
1783003410698601000,2.28060107421875,0.009965513697266578,-0.008184840825572609,-0.008672797872452065
1783003410708652000,2.290652099609375,-0.08615151227712631,-0.011745382851362228,0.022771959042036903
1783003410718703900,2.300703857421875,-0.155567578330636,-0.015079641840606927,0.02970845290748402
1783003410728755000,2.3107548828125,-0.1483224295079708,-0.017210808650404214,0.016307831928692756
1783003410738806000,2.320805908203125,-0.08435936816334724,-0.00990530794262886,-0.012238838057266548
1783003410748857000,2.330857177734375,-0.04527531200945377,0.015205533242598174,-0.027955773154413326
1783003410758909000,2.340908935546875,-0.009692541974782943,0.030651085786148904,-0.04078553544268943
1783003410768960000,2.3509599609375,-0.02696048763990402,0.025181933660060166,-0.0370875029086601
1783003410779011000,2.361010986328125,-0.13739303921461105,0.00004109919536858797,-0.012831515853945165
1783003410789062100,2.371062255859375,-0.1458914029687643,-0.006274805953167379,0.041871193521237
1783003410799113000,2.381113037109375,-0.04233925855755806,-0.004315378981083631,0.010190938217286019
1783003410809165000,2.3911650390625,-0.03234218067824841,-0.008701119784638285,0.025193121774354947
1783003410819216100,2.401216064453125,-0.08862520891427993,-0.00829582691937685,0.034004825793998314
1783003410829267000,2.411266845703125,-0.09357727836370468,-0.0021075302058830856,0.020987587242759762
1783003410839318000,2.421318115234375,-0.04946341134905815,0.006959938673116266,-0.012685403647832572
1783003410849370000,2.4313701171875,-0.059091071394085884,-0.002430990006588399,-0.04447209673463367
1783003410859421000,2.4414208984375,-0.06259820273220539,-0.015667451665923,-0.046625046117976306
1783003410869472000,2.451471923828125,-0.056851768034696576,-0.0018980156410485505,-0.06992751357383094
1783003410879523000,2.461523193359375,-0.0846095435321331,-0.001525748262554407,-0.03712599002183415
1783003410889575000,2.471574951171875,-0.10800035599172114,0.0042602877929806705,-0.005659523599036037
1783003410899626000,2.4816259765625,-0.09696282914876937,0.0137306383844465,0.015418317476753145
1783003410909677600,2.491677490234375,-0.06273965702950954,0.025861878748238084,0.019871159566612912
1783003410919728600,2.501728759765625,-0.11376958704292774,0.01964669402781874,0.046574558039754625
1783003410929780500,2.511780517578125,-0.08445172262191772,0.01290174981225282,0.02124727935856208
1783003410939831600,2.52183154296875,-0.07352408589422703,-0.01190627250149846,0.00642465361948125
1783003410949882600,2.531882568359375,-0.09134031309187411,-0.04291114016138017,-0.004431972831767052
1783003410959933400,2.541933349609375,-0.08176233740746974,-0.03712678460627794,-0.020205770948994905
1783003410969985500,2.551985595703125,-0.08205869000554085,-0.019421799230761826,-0.00819730758150108
1783003410980036600,2.56203662109375,-0.0771153883844614,-0.00492160124592483,-0.000919288535695523
1783003410990087400,2.57208740234375,-0.0806967540025711,0.014755670583248138,-0.006667029274301603
1783003411000138500,2.582138427734375,-0.0745534289419651,0.020835830747149883,0.005627941150683909
1783003411010190600,2.592190673828125,-0.07410159352123737,0.013724172111041844,0.0018867361952085047
1783003411020241400,2.602241455078125,-0.0788847361445427,0.012429309994913637,-0.004553918711002916
1783003411030292500,2.61229248046875,-0.08143149801790714,0.002687704714015126,-0.018740283240005373
1783003411040343600,2.622343505859375,-0.07320318337678909,-0.0030470030130818485,-0.013352151327719912
1783003411050395400,2.6323955078125,-0.08158230466544628,-0.001683313444443047,-0.016999631851445884
1783003411060446500,2.642446533203125,-0.07889116588532924,-0.0001039718311280012,-0.01483953120810911
1783003411070497500,2.65249755859375,-0.07679097873568534,0.0008358297696337103,-0.0020167923156637698
1783003411080548600,2.662548583984375,-0.07379355048537253,0.004741531971283256,0.0006369370635133236
1783003411090600400,2.672600341796875,-0.07035247012078762,0.00882361365314573,0.0037306561619974673
1783003411100651500,2.682651611328125,-0.07573942385613917,0.004957841603085399,0.0032062852280214426
1783003411110702600,2.69270263671875,-0.08067746478021144,-0.0017606895295903086,0.011315211273171007
1783003411120753400,2.70275341796875,-0.0785837073713541,-0.01421082311682403,-0.0003760211050044745
1783003411130804500,2.712804443359375,-0.07124795765578747,-0.027618038233183324,-0.008147805883968249
1783003411140856600,2.722856689453125,-0.0716997930765152,-0.017473551239818332,-0.005164013433363288
1783003411150907400,2.732907470703125,-0.0817249280065298,-0.007670242366939782,0.006339258624659851
1783003411160958500,2.74295849609375,-0.07648293569982051,-0.0017777867948636412,-0.0018280648105312137
1783003411171009500,2.753009521484375,-0.08201192825436592,0.01333206752091646,0.007758395574428141
1783003411181061600,2.7630615234375,-0.08380407236814498,0.02300385896861553,0.015973549339873716
1783003411191112400,2.773112548828125,-0.07542261299192905,0.012148995216190814,-0.008212751745805144
1783003411201163500,2.78316357421875,-0.08215688968300819,0.007681786674261093,-0.012385717448359354
1783003411211214600,2.793214599609375,-0.08080722863972187,-0.005848397234641015,-0.01415417929245159
1783003411221266400,2.803266357421875,-0.07632511478960513,-0.026797917489334938,-0.021889906377345322
1783003411231317500,2.8133173828125,-0.07722527849972248,-0.021354776587337254,-0.008873215815378352
1783003411241368600,2.82336865234375,-0.07586977223753928,-0.007179865034110844,-0.0029322723259218035
1783003411251419600,2.833419677734375,-0.0745189421504736,0.007074212702549994,0.0036484577712602912
1783003411261471500,2.843471435546875,-0.06703764648437499,0.022629874557070433,0.00897226487621665
1783003411271522600,2.8535224609375,-0.06449556078612804,0.0075197279803454874,0.019168290260573848
1783003411281573600,2.86357373046875,-0.07856032649576664,-0.0007316752754151821,0.02636268614353612
1783003411291624400,2.87362451171875,-0.0894803644388914,-0.014393047815933823,0.0034814854402095076
1783003411301675500,2.883675537109375,-0.08199556164145469,-0.010988974993489681,-0.0001639675232116133
1783003411311727600,2.8937275390625,-0.08020224848389625,-0.012172960613667964,-0.01569211118314415
1783003411321778400,2.9037783203125,-0.08439327043294906,-0.0012348755571991205,-0.017105485112406314
1783003411331829500,2.91382958984375,-0.07601882531940937,0.0030103242645040155,-0.020342549071181566
1783003411341880600,2.923880615234375,-0.08484685941934585,0.009276837313361465,-0.014820634711394085
1783003411351932400,2.933932373046875,-0.08125497240722179,0.000028860768303275108,-0.010811828328296542
1783003411361983500,2.9439833984375,-0.0784054281949997,-0.00981072499435395,0.005213085872633382
1783003411372034600,2.95403466796875,-0.08184943116903305,-0.007185198796354234,0.013667829680768772
1783003411382085600,2.964085693359375,-0.0692810414969921,-0.0015991788249462842,0.008486189259169623
1783003411392137500,2.974137451171875,-0.07017243737876415,-0.0037846331052482124,0.016500532356044276
1783003411402188500,2.9841884765625,-0.07614625109136104,-0.021525383913889525,0.009284710092563181
1783003411412239600,2.994239501953125,-0.0710591570854187,-0.006226984756067395,-0.001893631726875901
1783003411422290700,3.004290771484375,-0.07659867103397845,-0.001400039523653686,-0.012197209138935431
1783003411432342500,3.014342529296875,-0.07480535787642002,0.007443740134686231,-0.0109624340464361
1783003411442393600,3.0243935546875,-0.07570493706464768,0.011611381208151578,-0.008357612709747627
1783003411452444700,3.034444580078125,-0.08528875796794891,0.009932159416936337,-0.01004258838831447
1783003411462495500,3.04449560546875,-0.07735971853435039,0.005761449603550136,-0.0002849544212222099
1783003411472547600,3.054547607421875,-0.08035539321899414,0.0005696531141176819,-0.0022870240917894987
1783003411482598700,3.0645986328125,-0.07227437809407711,-0.00020195231288671492,0.009640199866192415
1783003411492649500,3.0746494140625,-0.07765782469809054,-0.007182531915232539,0.004073934908024966
1783003411502700500,3.084700439453125,-0.0781043994218111,-0.005131042745523154,0.0022165983372367916
1783003411512751600,3.094751708984375,-0.08020166396200656,-0.005116466230899095,0.0032676143606659024
1783003411522803500,3.104803466796875,-0.08423661856651306,-0.001712174212746322,0.004315461179474368
1783003411532854500,3.1148544921875,-0.09051672174930572,-0.004538666342943906,-0.003339711482496932
1783003411542905600,3.124905517578125,-0.0749585026115179,-0.0012925970938056706,-0.007414925032155588
1783003411552956700,3.134956787109375,-0.07256313190758228,-0.006412351260334253,-0.01265851564090699
1783003411563008500,3.145008544921875,-0.08633388310670852,0.005047200386971235,-0.009890484832832589
1783003411573059600,3.1550595703125,-0.08843407025635242,0.0032099750224500894,0.002300175834307447
1783003411583110700,3.165110595703125,-0.07795943799316883,0.0023670213922858236,0.008315381003217772
1783003411593161500,3.175161376953125,-0.0849888982385397,-0.01009297600183636,-0.0007962192784529179
1783003411603213600,3.185213623046875,-0.0779430713802576,-0.001971848062239587,0.0025996154386084525
1783003411613264600,3.1952646484375,-0.07838438540697097,0.0005304536148905754,0.006806474277609959
1783003411623315500,3.2053154296875,-0.059225511428713795,0.010758782966807484,0.0009234715204685926
1783003411633366500,3.215366455078125,-0.08196575102508068,0.008386939268931746,-0.0028251130238641053
1783003411643418600,3.225418701171875,-0.07792728928923606,0.00909033829793334,-0.025075897736009208
1783003411653469400,3.235469482421875,-0.07283902623951434,-0.005152560457587242,-0.029744967259280383
1783003411663520500,3.2455205078125,-0.07882160778045653,-0.02212232689373195,-0.01503372947280295
1783003411673571600,3.255571533203125,-0.07463350844085216,-0.023514511904492972,-0.008697082930337637
1783003411683623700,3.265623779296875,-0.0806225197225809,-0.018768267225474117,-0.001463295751903206
1783003411693674500,3.275674560546875,-0.07568389427661895,-0.009329042424634098,0.014626007188437505
1783003411703725600,3.2857255859375,-0.07597673974335194,0.013005538980290292,0.03382016254262998
1783003411713776600,3.295776611328125,-0.07732347817718982,0.010219598056189716,0.026635383871383964
1783003411723827700,3.30582763671875,-0.0852455033481121,0.007564663100615143,0.010406489797262474
1783003411733879600,3.315879638671875,-0.0744534756988287,-0.002323474511504173,-0.003128772145556286
1783003411743930600,3.3259306640625,-0.08653320507109165,-0.007316095167025923,-0.011487279904447496
1783003411753981700,3.335981689453125,-0.17723405121564864,-0.01892396924383938,0.007247715239087119
1783003411764032500,3.346032470703125,-0.11307049886286258,-0.030526582623645663,-0.03595623385640792
1783003411774084600,3.356084716796875,0.022377836024761198,-0.001835654461942613,-0.022652360383514314
1783003411784135700,3.3661357421875,0.023670798444747922,0.005072042567282915,-0.029734984721383077
1783003411794186500,3.3761865234375,-0.0541927779585123,-0.0007132993685081601,0.002859654614282772
1783003411804237600,3.386237548828125,-0.15503215627968311,-0.013528722604177892,0.036137828367855396
1783003411814289700,3.39628955078125,-0.1276139880001545,-0.014055596022494137,0.041199139478569846
1783003411824340500,3.406340576171875,0.0023737433940172192,0.02269957879241556,-0.003955249564955011
1783003411834391600,3.4163916015625,0.009747487032413482,0.021957089862041174,-0.024894896879605947
1783003411844442600,3.426442626953125,-0.09105155927836894,0.013492226518690585,0.0016993969295639544
1783003411854494500,3.436494384765625,-0.12655191172659397,-0.010720971707068382,-0.016134521188400686
1783003411864545500,3.446545654296875,-0.1297013156682253,-0.025873715316504238,0.000541212470922619
1783003411874596600,3.4565966796875,-0.07001344742476939,-0.014561828511580823,-0.030203159355558454
1783003411884647700,3.466647705078125,-0.0869277573466301,-0.01591616572998464,0.0063131286695599555
1783003411894698500,3.476698486328125,-0.06899111863970755,0.0025014979595318434,0.010135454303538426
1783003411904750600,3.48675048828125,-0.07707213376462459,0.007285663496144116,0.000836414291523397
1783003411914801400,3.496801513671875,-0.07124094339311123,0.012546068242378533,0.00842544464841485
1783003411924852500,3.5068525390625,-0.0654033232808113,0.005276369500346482,-0.0011113679085392504
1783003411934903300,3.5169033203125,-0.08036708365678787,-0.017245697300694883,-0.016330820078635587
1783003411944955400,3.526955322265625,-0.08141279331743717,-0.03018664661217481,-0.018917110244790092
1783003411955006500,3.53700634765625,-0.08126958545446396,-0.013425737153738737,-0.024382444712286813
1783003411965057300,3.547057373046875,-0.0794815329939127,0.0036971740175038574,-0.015667342068068683
1783003411975108400,3.5571083984375,-0.08306640574336051,0.034886933257617055,-0.01747008064109832
1783003411985160400,3.567160400390625,-0.08006780844926834,0.03735054689217358,-0.007238600350869819
1783003411995211300,3.577211181640625,-0.08350479716062545,0.012945662019215523,-0.0031471297861542552
1783003412005262300,3.587262451171875,-0.07481763283610343,-0.017417802464589474,0.0017175993065349756
1783003412015313400,3.5973134765625,-0.07510521760582924,-0.030000184129364785,-0.002607707413518801
1783003412025365200,3.607365234375,-0.0724012193441391,-0.03747983582764864,0.0018191234522499143
1783003412035416300,3.617416259765625,-0.0803308432996273,-0.020269100242480634,-0.003011922566546127
1783003412045467400,3.62746728515625,-0.07404255681037902,-0.011489106535352766,0.0035291605068370696
1783003412055518500,3.6375185546875,-0.0800257228732109,0.00521006279848516,0.008455483593652025
1783003412065569300,3.6475693359375,-0.06761164698004722,0.020753084367141128,0.005856379611697047
1783003412075621400,3.657621337890625,-0.06820610574185848,0.018139942726679147,0.005824002578901127
1783003412085672400,3.66767236328125,-0.07658522703051567,-0.011193594187498093,-0.008663883913634344
1783003412095723300,3.67772314453125,-0.0828711754322052,-0.021992745697312056,-0.008378335837367922
1783003412105774300,3.6877744140625,-0.08452128072679042,-0.005116721959225833,-0.015384552204469219
1783003412115826400,3.697826416015625,-0.08062368876636028,0.012661328652501105,-0.018943349797744303
1783003412125877500,3.70787744140625,-0.08226911788582801,0.015792977741733192,-0.010280561862653121
1783003412135928300,3.71792822265625,-0.07538637263476848,0.004069989385269582,-0.004491657996596768
1783003412145979400,3.7279794921875,-0.08002513835132122,-0.006323905791901052,-0.014580588010977953
1783003412156031500,3.738031494140625,-0.07164250993132591,-0.020058964623138307,-0.0018323208605404942
1783003412166082300,3.748082275390625,-0.0759820004403591,-0.02623969908468425,0.0022397052181884645
1783003412176133400,3.75813330078125,-0.08601064250171184,-0.02582519999966025,0.006847125948406756
1783003412186184400,3.768184326171875,-0.07672668132781982,-0.004227883360721171,0.00928817155812867
1783003412196235500,3.778235595703125,-0.07418634919524192,0.0051563233172521,0.013824709876067936
1783003412206287400,3.788287353515625,-0.08496259475350379,0.020868052516318857,0.0028797566873952746
1783003412216338400,3.79833837890625,-0.08466039693653583,0.02784172745384276,-0.005164049965981393
1783003412226389500,3.808389404296875,-0.0656523296058178,0.007872523473389447,-0.019854318029666317
1783003412236440300,3.8184404296875,-0.07717793222665786,-0.0031972251387313005,-0.024009638477675614
1783003412246492400,3.828492431640625,-0.08765957875251769,-0.011998809623159468,-0.02972491085194051
1783003412256543500,3.83854345703125,-0.07674246341884136,-0.014047193520329892,-0.01737138777328655
1783003412266594300,3.84859423828125,-0.07929273242354393,-0.017084844183176753,-0.014129848568793386
1783003412276645400,3.858645263671875,-0.08947335017621516,-0.026710348803736267,0.007032739047845825
1783003412286697500,3.868697509765625,-0.07854629797041415,-0.015151464967802166,0.009025456368178128
1783003412296748300,3.878748291015625,-0.07390811677575111,-0.009641250178962946,0.025067522633308543
1783003412306799400,3.88879931640625,-0.0803437027812004,-0.0007609379025176167,0.020947757555870337
1783003412316850400,3.898850341796875,-0.08617606219649314,-0.0034983635097742076,0.006130721307359636
1783003412326902300,3.90890234375,-0.07927870389819144,-0.004660794885270297,-0.00494944823407568
1783003412336953300,3.918953369140625,-0.07314239310026169,0.005692402955330908,-0.008644375495566054
1783003412347004400,3.92900439453125,-0.07044248649179935,0.014390271336957812,-0.026754197078617287
1783003412357055500,3.939055419921875,-0.07912322107553482,0.018954510512575507,-0.024568030412262305
1783003412367106600,3.9491064453125,-0.08735270476043223,0.011606997293978929,-0.020993688189983366
1783003412377158400,3.959158447265625,-0.08329962997734547,-0.005034158242307603,-0.012267424830934032
1783003412387209500,3.96920947265625,-0.08015548673272133,-0.0003033303281292319,-0.0021425010545644907
1783003412397260500,3.979260498046875,-0.07985036630630493,-0.00925250658970326,0.0020079422889277337
1783003412407311400,3.989311279296875,-0.07595569695532321,0.0005557707192376255,0.014239108496392145
1783003412417363500,3.999363525390625,-0.07999182060360908,-0.00821501676812768,0.003648147244006395
1783003412427414500,4.00941455078125,-0.07236731707453728,-0.01632843632530421,0.0036282734997570513
1783003412437465300,4.01946533203125,-0.07894727998673916,-0.021195457839779556,-0.00021659275959245858
1783003412447516400,4.029516357421875,-0.08657295255959034,-0.01844930093679577,-0.012303555590240284
1783003412457568500,4.039568603515625,-0.08118366073668003,-0.0026246859477832914,-0.013408375026984139
1783003412467619300,4.049619384765625,-0.07864157503843307,0.021628661625273524,-0.017981975685991344
1783003412477670400,4.05967041015625,-0.08581775027811527,0.021191293121315537,-0.008768586397124453
1783003412487721500,4.069721435546875,-0.07474281403422355,0.00921469532996416,-0.015058443788951261
1783003412497773300,4.079773193359375,-0.08401800737977028,-0.015079824503697454,-0.010844132295856252
1783003412507824400,4.089824462890625,-0.07384089675843715,-0.01910995680261403,0.00006565824788995086
1783003412517875500,4.09987548828125,-0.0805745889276266,-0.013558021763898432,0.005970808904757723
1783003412527926500,4.109926513671875,-0.08132803764343262,-0.015044680125080048,0.007219813452009111
1783003412537977300,4.119977294921875,-0.08103051600158213,-0.011852496487647295,0.012308368762675673
1783003412548029400,4.130029541015625,-0.07623802102804184,-0.005068133577145636,0.008337474104017018
1783003412558080500,4.14008056640625,-0.07429331670105457,-0.001945288848876953,0.0011556911074556409
1783003412568131300,4.15013134765625,-0.06936170551776885,-0.002002024004794657,-0.0012883227774873375
1783003412578182400,4.160182373046875,-0.08522972125709057,0.0024654402654618024,-0.013282629755465312
1783003412588234500,4.170234375,-0.07221417233943939,0.0032907851736992595,-0.01415873673656024
1783003412598285300,4.180285400390625,-0.07745441108047962,0.002582235045544803,-0.003952381754433736
1783003412608336400,4.19033642578125,-0.0717687666594982,0.007801321400701999,-0.004641797923855483
1783003412618387200,4.20038720703125,-0.08059563171565533,-0.010643339893594384,-0.015409458316862582
1783003412628438300,4.210438232421875,-0.08733341553807258,-0.008571319392509758,-0.0011210673186462371
1783003412638490400,4.220490478515625,-0.0783528212249279,0.0014726663684472441,0.008228670834144577
1783003412648541400,4.23054150390625,-0.07640402524471282,0.0024625541886314746,0.0092465243734885
1783003412658592300,4.24059228515625,-0.07520049467384815,-0.0015497867252677678,-0.0006327632118947803
1783003412668643300,4.250643310546875,-0.07968202400207519,-0.011579159438982606,-0.012173106744140386
1783003412678695400,4.2606953125,-0.07548924848735332,-0.013246946520730852,-0.01600676662288606
1783003412688746500,4.27074658203125,-0.077729720890522,-0.00945179202146828,-0.012553493497008458
1783003412698797300,4.28079736328125,-0.07757949876487255,-0.000031929508224129677,-0.0062432509042788294
1783003412708848000,4.29084814453125,-0.07578677012920379,0.00829502320177853,-0.010064663222804665
1783003412718900500,4.300900390625,-0.08490764969587325,-0.00023614684343338012,-0.0048758167422842235
1783003412728951600,4.31095166015625,-0.0708323625922203,-0.00015325433295220137,-0.001319265905022621
1783003412739002000,4.321002197265625,-0.07547171283066273,-0.003108487409353256,0.003513606744678691
1783003412749053200,4.33105322265625,-0.08010755593776703,-0.004647350881807506,0.0050087863390333946
1783003412759105500,4.34110546875,-0.07516834596991538,0.002099127703718841,-0.00952702181530185
1783003412769156400,4.35115625,-0.0820475840896368,0.0003837751531973481,-0.000721528340736404
1783003412779207200,4.361207275390625,-0.08981997165679931,0.0003946984060108661,0.007937259272672236
1783003412789258200,4.37125830078125,-0.08473346217274666,-0.006988032256439328,0.00577734129242599
1783003412799309300,4.381309326171875,-0.07036065342724322,-0.016260485655628144,-0.003467520846938714
1783003412809361400,4.391361328125,-0.08874912755489349,-0.02816138786226511,-0.0005546108086127787
1783003412819412200,4.401412109375,-0.0936287162899971,-0.02446008565891534,0.0015480240264441818
1783003412829463300,4.41146337890625,-0.17938626081347464,-0.021156696731969713,0.027157617647200823
1783003412839514400,4.421514404296875,-0.04466448663473129,0.0168225399851799,0.021206271494738756
1783003412849566500,4.43156640625,0.10352058022916316,0.03800758602879941,-0.041748051198758185
1783003412859617300,4.4416171875,-0.004825812721252441,0.02548230484612286,-0.02320677939588204
1783003412869668400,4.45166845703125,-0.1944371149510145,0.0004870893971994519,0.017159315925184635
1783003412879719200,4.46171923828125,-0.14416004913151265,-0.03371642817351967,0.03240942809502594
1783003412889771300,4.471771240234375,-0.052744332715868945,-0.008383870529010892,-0.04290532234194688
1783003412899822300,4.481822265625,-0.10122691633403301,-0.021549276246130466,0.009623056935146451
1783003412909874000,4.4918740234375,-0.07654547954201697,0.012270246975682676,-0.030267356298724186
1783003412919925000,4.501925048828125,-0.08731880249083042,0.01348031688518822,0.01112738795033656
1783003412929976000,4.51197607421875,-0.06935936743021011,0.022065701335668562,-0.009404381816321984
1783003412940028000,4.52202783203125,-0.08177344332337379,-0.011990370588377118,0.01411228551263921
1783003412950079000,4.532078857421875,-0.08282207559347152,-0.01600519572030753,-0.01341168122892268
1783003412960130000,4.542130126953125,-0.08910627042949198,-0.037414661636948586,0.0028979225317481904
1783003412970180900,4.552180908203125,-0.08072422653138638,-0.021306188205257058,-0.008869736083503813
1783003412980233000,4.56223291015625,-0.06606441753804683,-0.016298187317512928,0.003528027995675802
1783003412990284000,4.572283935546875,-0.08790507794618606,0.0017852029163390396,0.003334414252871647
1783003413000335000,4.582335205078125,-0.08595803553164005,0.010800174423120916,0.008363183934008702
1783003413010386000,4.592385986328125,-0.07368541393578053,0.007132263032719493,0.010425514158140867
1783003413020438000,4.60243798828125,-0.07263093644678592,-0.0031002675702795383,0.0025808742055203763
1783003413030489000,4.612489013671875,-0.07936404409408569,0.003077142423018813,-0.009947822776949033
1783003413040540000,4.622539794921875,-0.09148819712996482,-0.00801580440159887,-0.01748427356323227
1783003413050591000,4.632591064453125,-0.08953823210597038,0.001963664755783975,-0.016501107744779437
1783003413060642000,4.64264208984375,-0.07427811913192271,-0.001696720915287733,-0.030531514527089892
1783003413070694000,4.65269384765625,-0.06649462564885616,-0.00820887928828597,-0.026555578367132692
1783003413080745000,4.662744873046875,-0.08713760070502757,-0.0034067031709477304,-0.022782699631759894
1783003413090796000,4.672796142578125,-0.08114040611684321,-0.010024769603833555,-0.007154949788562953
1783003413100847000,4.68284716796875,-0.07021276938915252,-0.02007255475707352,0.02353076891954988
1783003413110899000,4.69289892578125,-0.07021101582348346,-0.008238872567750513,0.03880270932870917
1783003413120950000,4.702949951171875,-0.08068272547721862,-0.004195150134898722,0.03862766328905709
1783003413131001000,4.7130009765625,-0.07588380076289176,-0.0029999490009620785,0.026441130807762964
1783003413141052000,4.723052001953125,-0.07542670464515686,-0.006964943641796707,0.014460404830565675
1783003413151103000,4.73310302734375,-0.0740700293391943,-0.006570026040077209,-0.003154244513530284
1783003413161155000,4.743155029296875,-0.07854220631718635,-0.0042810748526826495,-0.013142810292821376
1783003413171206000,4.753205810546875,-0.10409516524672507,-0.00439381451215595,-0.030495402034092692
1783003413181257000,4.763257080078125,-0.06279752469658852,0.010928221249580383,-0.039943970052013174
1783003413191308000,4.77330810546875,-0.0441238038867712,0.012008527299575507,-0.04166912247734144
1783003413201360000,4.78335986328125,-0.0851502262800932,-0.009448979009874164,-0.0018934399306308478
1783003413211411000,4.793410888671875,-0.09055588471591472,-0.005742379576899111,0.014176053197542204
1783003413221462000,4.8034619140625,-0.08247954576611519,-0.012860504486411808,0.030343791668955233
1783003413231513000,4.81351318359375,-0.09220248287916183,-0.01429784381315112,0.03319307101969607
1783003413241565000,4.82356494140625,-0.07305705290436744,-0.01671498795747757,0.016455359773756936
1783003413251616000,4.833615966796875,-0.09475567449331283,-0.014918167668581008,0.01647815612745471
1783003413261667000,4.8436669921875,-0.0633510669261217,0.0027437457501888274,-0.009619997328380122
1783003413271718100,4.85371826171875,-0.07442600317001342,0.012486045150831342,-0.017789494454348458
1783003413281770000,4.86377001953125,-0.08461071257591248,0.013078604216501116,-0.03128407732690684
1783003413291821000,4.873821044921875,-0.08940379207134247,0.016267609516158698,-0.032995950145553794
1783003413301872000,4.8838720703125,-0.07967968591451645,0.010729228078760205,-0.022145278511056674
1783003413311923000,4.8939228515625,-0.07264847210347652,-0.0014301789335906506,-0.00815784322079271
1783003413321974000,4.90397412109375,-0.08102700887024403,0.0006477963842451572,-0.0009351893577259034
1783003413332026000,4.914026123046875,-0.06965104385316372,-0.02698087284080684,0.010404142576549202
1783003413342077000,4.924076904296875,-0.07697334956526755,-0.013134535654820501,0.01997629130836576
1783003413352128000,4.9341279296875,-0.06828910785019397,-0.004380845432728529,0.025111042114626614
1783003413362179000,4.944178955078125,-0.07052607312202454,-0.006802848415262997,0.017271407130686565
1783003413372231000,4.95423095703125,-0.07067629524767398,0.001330079559981823,-0.001625080451183021
1783003413382282000,4.964281982421875,-0.07860884181261062,-0.0008249430494382977,-0.013745580225251615
1783003413392333000,4.9743330078125,-0.07740238863229751,-0.010223141720145941,-0.026392962550790978
1783003413402384100,4.984384033203125,-0.07949263890981674,-0.024124679692089555,-0.025104776770621538
1783003413412435000,4.99443505859375,-0.07440437586009502,-0.010695800733193754,-0.026072187897516412
1783003413422487000,5.004487060546875,-0.07575462142527103,0.002757299351505935,-0.005159592986572534
1783003413432538000,5.0145380859375,-0.07935001556873321,0.015559278583712874,-0.000736798975104466
1783003413442589000,5.0245888671875,-0.07201894202828407,0.019325353118963537,0.007498447730299085
1783003413452640000,5.034639892578125,-0.08144435749948024,0.014603877555020153,0.013964227944612502
1783003413462692000,5.044692138671875,-0.0720177729845047,0.0013180603286251425,0.012640970851061865
1783003413472743000,5.054742919921875,-0.06977262440621852,-0.008694324717670678,0.009887470891838893
1783003413482794000,5.0647939453125,-0.07890110275745392,-0.01899772859979421,-0.002335585074406117
1783003413492845000,5.074844970703125,-0.08069616948068141,-0.01763948239125311,-0.0009087306090630591
1783003413502896000,5.084896240234375,-0.08489011403918266,-0.017219284217804668,-0.007029624642152339
1783003413512948000,5.094947998046875,-0.08578910870552063,-0.007772825958579779,-0.005543970927968621
1783003413522999000,5.1049990234375,-0.07530863122344017,0.0010092866403982042,-0.0032711032256949693
1783003413533050000,5.115050048828125,-0.07695639843046664,0.006266841842420399,-0.005466448712348937
1783003413543101200,5.12510107421875,-0.0833896463483572,0.004208813334070146,0.0020752810372505334
1783003413553153000,5.135153076171875,-0.07905074036121368,-0.004332731974683702,0.010356832836102694
1783003413563204000,5.1452041015625,-0.07516133170723914,-0.018226963423006236,0.00976316865873523
1783003413573255200,5.155255126953125,-0.07321428929269314,-0.036198563845455646,0.004444877979112789
1783003413583306000,5.165305908203125,-0.07845394351184368,-0.015479272150062024,0.0035503768248017877
1783003413593358000,5.175358154296875,-0.07396247731149196,0.0009628902154043316,-0.0013896825264208019
1783003413603409200,5.1854091796875,-0.07725099746286869,0.01541822614520788,0.009779206478083505
1783003413613460000,5.1954599609375,-0.07276186935007571,0.013798625586740672,-0.0014974902824498712
1783003413623511000,5.205510986328125,-0.08383446750640869,0.005206007677875459,-0.01076733159944415
1783003413633561900,5.215561767578125,-0.07516133170723914,0.0002237257532775402,-0.010172818038705735
1783003413643614000,5.225614013671875,-0.07786006927192211,-0.008798150418326258,-0.009814652250800282
1783003413653665000,5.2356650390625,-0.07487082432806491,-0.017420177084766328,-0.008150719360262156
1783003413663716000,5.245716064453125,-0.0832587134450674,-0.028468992506712674,-0.0054324368448927995
1783003413673767000,5.255766845703125,-0.08146423124372959,-0.01691683067250997,-0.0008051880361977964
1783003413683819000,5.265819091796875,-0.07832301060855389,-0.013013539623655378,0.006312927740160375
1783003413693870000,5.2758701171875,-0.07697101147770881,-0.007009440370649099,0.019821219477662817
1783003413703921200,5.285921142578125,-0.07411854465603827,0.004449234493821859,0.00887562696817331
1783003413713972000,5.295971923828125,-0.07067337263822555,0.01921560913417488,0.0012066449765581638
1783003413724022800,5.306022705078125,-0.07396481539905071,0.015776245802640913,-0.0026134156350977717
1783003413734075100,5.3160751953125,-0.07501169410347938,-0.001898673228174448,-0.024045696171745658
1783003413744126200,5.326126220703125,-0.07801146044135093,-0.01897869510576129,-0.036024412854947147
1783003413754176800,5.3361767578125,-0.08714403044581413,-0.01711560464762151,-0.027968038980942217
1783003413764227800,5.346227783203125,-0.08146013959050179,-0.01289258012510836,-0.02493588647712022
1783003413774280200,5.3562802734375,-0.07876607820093631,0.00019380553904920815,-0.0005856361345387995
1783003413784331000,5.3663310546875,-0.07427811913192271,0.004825410862453282,0.01696378421992995
1783003413794381800,5.3763818359375,-0.08131400911808014,0.00016081658490002155,0.026212491417350246
1783003413804433000,5.386432861328125,-0.08026596136987209,-0.017724493793584404,0.02051540315374732
1783003413814485000,5.396485107421875,-0.07832008799910545,-0.022886881525442004,0.009570331234065815
1783003413824535800,5.406535888671875,-0.08564473179876804,-0.019777846126817166,-0.002476226520957425
1783003413834587000,5.4165869140625,-0.08788286611437797,0.007039725911058485,-0.008462717052036895
1783003413844638000,5.426637939453125,-0.08562836518585681,0.018540157558023927,-0.021797442320920526
1783003413854688800,5.436688720703125,-0.05885609359443188,0.016745419628359376,-0.01820684308358468
1783003413864740900,5.446740966796875,-0.08055413066148757,0.01395556971412152,-0.036172388224583116
1783003413874792000,5.4567919921875,-0.08325812892317772,0.049925695098564024,-0.010385602272860705
1783003413884842800,5.4668427734375,-0.08190554527044296,0.05413085517082363,-0.02063600645926781
1783003413894893800,5.476893798828125,-0.07801438305079937,-0.011315722729824482,-0.013411571631068363
1783003413904946000,5.48694580078125,-0.07786123831570148,-0.06208196030575782,-0.016672244794294237
1783003413914996500,5.49699658203125,-0.0661971040070057,-0.09968856431823223,0.010853968703281133
1783003413925047300,5.50704736328125,0.09170037857592106,-0.06944594973511993,0.07600832219170406
1783003413935098400,5.517098388671875,-0.49617315962612624,-0.15171371591407803,-0.06994957927516661
1783003413945149400,5.5271494140625,0.036404607811570164,0.1274836761513725,0.12946071184538305
1783003413955201300,5.537201171875,-0.02824117510020733,0.015044570527225732,0.016716293998574838
1783003413965252400,5.54725244140625,-0.13280395785868168,0.06282298793140799,-0.030728014346724373
1783003413975303400,5.557303466796875,-0.09208382493555545,0.06451404629088937,0.0178901874830015
