time,seconds_elapsed,z,y,x
1783003408507429400,0.089429443359375,-0.0016479482874274254,-0.00021501490846276283,-0.0006796573288738728
1783003408517481200,0.099481201171875,-0.0006657117046415806,0.0021892483346164227,-0.0020066043362021446
1783003408527532300,0.1095322265625,-0.0036615016870200634,0.0022073579020798206,0.002215038053691387
1783003408537583400,0.119583251953125,-0.00029046786949038506,0.0025029322132468224,0.004108583554625511
1783003408547634400,0.129634521484375,-0.0018867668695747852,-0.0023261778987944126,0.0008238404989242554
1783003408557686300,0.139686279296875,-0.000006908085197210312,-0.0015085125342011452,0.0008098483085632324
1783003408567737300,0.1497373046875,0.0014043007977306843,-0.00035056984052062035,-0.002742275595664978
1783003408577788400,0.159788330078125,0.00011863373219966888,0.0013289726339280605,-0.00026440899819135666
1783003408587839500,0.169839599609375,0.000012373551726341248,-0.0003757169470191002,0.0002860669046640396
1783003408597891300,0.179891357421875,-0.0002829446457326412,-0.0005179664585739374,-0.0030599692836403847
1783003408607942400,0.1899423828125,-0.002661413513123989,-0.0009344848804175854,-0.0022130836732685566
1783003408617993500,0.199993408203125,0.000023491214960813522,-0.0020915160421282053,-0.000966294202953577
1783003408628044300,0.210044189453125,0.0004139107186347246,0.0017724642530083656,0.0018388135358691216
1783003408638096400,0.220096435546875,-0.0012098350562155247,0.0026553398929536343,-0.0006648227572441101
1783003408648147500,0.2301474609375,-0.0011288751848042011,0.001944009680300951,-0.00126669742166996
1783003408658198300,0.2401982421875,0.00019791163504123688,0.001359978225082159,-0.0002216729335486889
1783003408668249300,0.250249267578125,0.00014704512432217598,0.0022835624404251575,0.0024116607382893562
1783003408678301400,0.260301513671875,-0.001553819514811039,0.00008101435378193855,-0.0017158719711005688
1783003408688352300,0.270352294921875,-0.00034820614382624626,0.0006602518260478973,-0.0022809947840869427
1783003408698403300,0.2804033203125,0.0005310340784490108,-0.0014677285216748714,-0.001733467448502779
1783003408708454400,0.290454345703125,0.0009715207852423191,-0.0012570724356919527,0.001724380999803543
1783003408718506200,0.30050634765625,-0.0014382265508174896,-0.0019376622512936592,-0.00017846934497356415
1783003408728557300,0.310557373046875,-0.0016102665103971958,-0.0008052862249314785,0.0003680111840367317
1783003408738608400,0.3206083984375,0.0004674524534493685,0.001860348042100668,0.0001252954825758934
1783003408748659500,0.330659423828125,0.0001779668964445591,0.0016299844719469547,-0.0015263971872627735
1783003408758711300,0.340711181640625,0.002249660901725292,0.00279431976377964,-0.00007585063576698303
1783003408768762400,0.350762451171875,-0.0029416391626000404,-0.0011873720213770866,0.003021138720214367
1783003408778813400,0.3608134765625,0.0019267203751951456,-0.0007539605721831322,-0.001137515064328909
1783003408788864300,0.3708642578125,0.0009128549136221409,-0.0025579859502613544,0.0005402760580182076
1783003408798916400,0.380916259765625,0.0005556449759751558,-0.00048810034058988094,-0.0012563946656882763
1783003408808967400,0.390967529296875,-0.00025129271671175957,-0.0005730551201850176,-0.0020121997222304344
1783003408819018200,0.401018310546875,-0.00005867891013622284,-0.001596506917849183,-0.002146658021956682
1783003408829069300,0.4110693359375,0.003371206112205982,0.0008789012208580971,-0.0018289429135620594
1783003408839121400,0.421121337890625,-0.0010782461613416672,0.0022483705542981625,-0.0013982993550598621
1783003408849172500,0.43117236328125,-0.0012646676041185856,0.002112282905727625,0.0003942744806408882
1783003408859223300,0.441223388671875,-0.0005953754298388958,0.002090407069772482,0.0004495866596698761
1783003408869274000,0.451274169921875,-0.002367176581174135,0.000025125686079263687,-0.00041620759293437004
1783003408879326500,0.461326416015625,0.0022111590951681137,-0.0033372282050549984,-0.00005311798304319382
1783003408889377300,0.471377197265625,0.0005999465938657522,-0.0007358526345342398,-0.0019186623394489288
1783003408899428400,0.481428466796875,-0.0005950015038251877,-0.0000879066064953804,0.001990019343793392
1783003408909480000,0.49147998046875,-0.0005262922495603561,0.0003214213065803051,0.0006685582920908928
1783003408919531800,0.50153173828125,-0.0015790867619216442,-0.0005842417012900114,-0.002952760551124811
1783003408929582800,0.511582763671875,0.001950667006894946,-0.00006519164890050888,-0.00023899925872683525
1783003408939634000,0.521634033203125,-0.000443087425082922,0.0011946335434913635,0.0013768384233117104
1783003408949684700,0.531684814453125,0.0009638604242354631,0.0008111386559903622,0.00005378015339374542
1783003408959736800,0.54173681640625,0.0003172983415424824,-0.0015705646947026253,-0.0001593148335814476
1783003408969788000,0.551787841796875,-0.0007892451249063015,-0.00045390124432742596,-0.000847475603222847
1783003408979839000,0.5618388671875,0.0015106198843568563,-0.002140214666724205,0.0003424249589443207
1783003408989889800,0.571889892578125,0.0012546901125460863,-0.0010275461245328188,0.0008191308006644249
1783003408999942000,0.58194189453125,0.0035408055409789085,0.0005335644818842411,0.0025456203147768974
1783003409009993000,0.591992919921875,-0.0016142753884196281,-0.00021931109949946404,0.0005559725686907768
1783003409020043800,0.602043701171875,0.0007835270371288061,0.001537560485303402,-0.0017513418570160866
1783003409030094800,0.6120947265625,-0.0020388909615576267,0.0019969558343291283,-0.00043360982090234756
1783003409040147000,0.62214697265625,-0.0015757335349917412,0.00007603270933032036,0.0001146877184510231
1783003409050197800,0.63219775390625,-0.0014875829219818115,-0.0000035958364605903625,-0.0012648291885852814
1783003409060248800,0.642248779296875,-0.000948798842728138,0.0007415241561830044,-0.00007541384547948837
1783003409070300000,0.6522998046875,0.0019287464674562216,0.0015596472658216953,0.0026740338653326035
1783003409080351700,0.662351806640625,-0.001511258538812399,-0.0012366718146950006,0.0037257159128785133
1783003409090402800,0.67240283203125,-0.0010268553160130978,-0.0011722736526280642,-0.0014574690721929073
1783003409100454000,0.682453857421875,-0.00013476097956299782,-0.0003228760324418545,-0.0017658635042607784
1783003409110505000,0.6925048828125,0.0005872217006981373,0.0009407941251993179,-0.00003427639603614807
1783003409120556800,0.702556884765625,0.0018185502849519253,-0.0008999321144074202,0.00014815758913755417
1783003409130607900,0.71260791015625,-0.0007719062268733978,0.002952063921838999,0.0006110155954957008
1783003409140659000,0.722658935546875,-0.0023864153772592545,0.0017423001118004322,-0.001798274926841259
1783003409150709800,0.732709716796875,-0.00023777736350893974,0.0007438813336193562,-0.0007793493568897247
1783003409160761900,0.742761962890625,-0.002693041693419218,-0.0012513091787695885,0.0013181893154978752
1783003409170813000,0.75281298828125,-0.00010365061461925507,0.000018219929188489914,0.001703815534710884
1783003409180863700,0.76286376953125,0.0022034915164113045,0.0004803636111319065,-0.0009995372965931892
1783003409190914800,0.772914794921875,0.002181387273594737,-0.0019289981573820114,-0.0006836862303316593
1783003409200967000,0.782966796875,-0.001203649677336216,-0.0011908840388059616,-0.0004729689098894596
1783003409211017700,0.793017822265625,0.0011013161856681108,0.0002999533899128437,-0.00016510765999555588
1783003409221068800,0.80306884765625,0.0007826844230294228,-0.0058852448128163815,-0.00020631588995456696
1783003409231120000,0.813119873046875,-0.0026029921136796474,0.0021857311949133873,0.0026922691613435745
1783003409241171700,0.823171630859375,-0.0009792540222406387,0.002173507586121559,0.004144412465393543
1783003409251222800,0.833222900390625,-0.001979537308216095,-0.0006300022359937429,-0.0020186742767691612
1783003409261273900,0.84327392578125,0.00037483195774257183,-0.00040541356429457664,-0.0031179366633296013
1783003409271325000,0.853324951171875,-0.0021043047308921814,-0.0013790649827569723,0.0007598921656608582
1783003409281376800,0.863376708984375,-0.0014326199889183044,-0.00002195732668042183,-0.0009912759996950626
1783003409291427800,0.873427734375,-0.002329838927835226,0.0010337196290493011,-0.0015686494298279285
1783003409301479000,0.88347900390625,-0.0011129160411655903,0.00025407690554857254,-0.0001539597287774086
1783003409311530000,0.893530029296875,-0.0002484540455043316,0.0004892339929938316,0.0020924173295497894
1783003409321581800,0.903581787109375,0.001487240195274353,-0.0017605239991098642,0.001226724125444889
1783003409331633000,0.9136328125,0.0010012134443968534,-0.0018875568639487028,0.001877867616713047
1783003409341684000,0.92368408203125,0.0005053584463894367,0.0006944537162780762,-0.002126289065927267
1783003409351734800,0.93373486328125,0.0005026953294873238,0.0007240148261189461,-0.00034942803904414177
1783003409361787000,0.943786865234375,0.0004536728374660015,0.0007109395228326321,-0.0017496710643172264
1783003409371838000,0.953837890625,-0.00034634070470929146,0.0003042747266590595,-0.0028106747195124626
1783003409381888800,0.963888671875,0.0031456861179322004,0.000029097776859998703,-0.0027361721731722355
1783003409391939800,0.97393994140625,-0.0003497125580906868,-0.00046119047328829765,-0.0012581180781126022
1783003409401992000,0.983991943359375,0.0012903260067105293,-0.00009710807353258133,0.0020997580140829086
1783003409412042800,0.994042724609375,-0.00029585277661681175,0.00013245642185211182,0.0009269025176763535
1783003409422093800,1.00409375,-0.002157926093786955,-0.0004651709459722042,0.000590277835726738
1783003409432145000,1.014144775390625,0.0005441172979772091,0.0018219519406557083,0.002725866623222828
1783003409442196700,1.02419677734375,-0.0001402893103659153,0.0009864256717264652,0.003194669261574745
1783003409452247800,1.034247802734375,-0.00022710813209414482,0.001083897426724434,0.0018290001899003983
1783003409462299000,1.044298828125,-0.0024856803938746452,0.0007204259745776653,0.0012601101770997047
1783003409472350000,1.054349853515625,-0.0011130869388580322,-0.0006476396229118109,-0.0019023935310542583
1783003409482401800,1.06440185546875,-0.0004597562365233898,-0.002669986104592681,-0.00047632399946451187
1783003409492452900,1.074452880859375,-0.0015676314942538738,0.0003660176880657673,0.0006880098953843117
1783003409502504000,1.08450390625,0.0022040982730686665,-0.00012433389201760292,0.000029671937227249146
1783003409512555000,1.094554931640625,-0.001694236882030964,-0.0009858666453510523,-0.0008052289485931396
1783003409522606800,1.10460693359375,0.0003126612864434719,-0.0022711073979735374,-0.0005233762785792351
1783003409532658000,1.114657958984375,0.000012789387255907059,-0.0014889368321746588,-0.002978278324007988
1783003409542709000,1.124708984375,0.0009850901551544666,0.001097357366234064,0.0014634765684604645
1783003409552759800,1.134759765625,-0.0003704586997628212,0.0022595608606934547,0.0017162105068564415
1783003409562812000,1.14481201171875,-0.00020753778517246246,0.00077012088149786,0.0001885807141661644
1783003409572863000,1.154863037109375,0.0010302995797246695,0.002399709075689316,0.0015859408304095268
1783003409582913800,1.164913818359375,-0.00005248049274086952,-0.0018812248017638922,0.00047219637781381607
1783003409592964900,1.17496484375,0.00044979178346693516,0.00013452162966132164,-0.00010464433580636978
1783003409603017000,1.185016845703125,-0.0002658371813595295,-0.0019571688026189804,0.0010262252762913704
1783003409613067800,1.19506787109375,0.0003789144102483988,-0.0016349263023585081,-0.0016521159559488297
1783003409623118800,1.205118896484375,0.0013830920215696096,-0.0011138797271996737,-0.0023356094025075436
1783003409633170000,1.215169921875,-0.00013677403330802917,-0.0011908451560884714,-0.0028693070635199547
1783003409643221800,1.2252216796875,-0.001169803086668253,0.000029723625630140305,-0.0010200194083154202
1783003409653272800,1.23527294921875,-0.0007005538791418076,0.0033805128186941147,0.0001046331599354744
1783003409663324000,1.245323974609375,-0.003178937826305628,0.0019817007705569267,0.0012588072568178177
1783003409673375000,1.255375,-0.00015518488362431526,0.00112869031727314,-0.00029141874983906746
1783003409683425800,1.26542578125,-0.0009312587790191174,-0.002612519543617964,-0.0015142797492444515
1783003409693478000,1.275477783203125,0.00016862666234374046,-0.000675868708640337,0.0007946807891130447
1783003409703529000,1.285529052734375,0.0021205833181738853,-0.0023083153646439314,-0.0016978108324110508
1783003409713579800,1.295579833984375,-0.0017135697416961193,0.001146337017416954,-0.0006490577943623066
1783003409723630800,1.305630859375,0.0004982494283467531,-0.00003073830157518387,0.0008779605850577354
1783003409733683000,1.315682861328125,0.0013440693728625774,-0.00005790265277028084,0.0014715790748596191
1783003409743733800,1.325733642578125,-0.00007095653563737869,-0.0007506804540753365,-0.002108730375766754
1783003409753784800,1.335784912109375,-0.0007215668447315693,-0.00011977739632129669,0.001930486410856247
1783003409763836000,1.3458359375,-0.0011472390033304691,0.002122220117598772,0.0008509662002325058
1783003409773888000,1.355887939453125,0.000807521166279912,0.0022844066843390465,-0.0009469338692724705
1783003409783938800,1.365938720703125,-0.00016254372894763947,0.0005800980143249035,0.0020744800567626953
1783003409793990000,1.375989990234375,0.001591147854924202,-0.0010939652565866709,-0.0018124035559594631
1783003409804041000,1.386041015625,-0.0016719885170459747,0.000258586835116148,-0.0011945120058953762
1783003409814092800,1.3960927734375,0.0005522835999727249,-0.001071928534656763,-0.00043950602412223816
1783003409824144000,1.406143798828125,-0.0032829553820192814,0.00007483130320906639,0.0021624108776450157
1783003409834195000,1.41619482421875,-0.0004970226436853409,0.0009685885161161423,-0.0018602940253913403
1783003409844246000,1.42624609375,0.0009575826115906239,-0.0002891723997890949,0.0005110949277877808
1783003409854297900,1.4362978515625,-0.0005276622250676155,-0.000794640276581049,-0.0040130834095180035
1783003409864349000,1.446348876953125,-0.0015016761608421803,-0.0013367978390306234,0.0021714074537158012
1783003409874400000,1.45639990234375,-0.00014373008161783218,0.001856332179158926,-0.00005472823977470398
1783003409884450800,1.466450927734375,-0.001496641431003809,0.0026816483587026596,0.002879357896745205
1783003409894503000,1.4765029296875,-0.00028863130137324333,0.0005873385816812515,-0.0015382934361696243
1783003409904553000,1.486552978515625,0.0011646011844277382,0.0012659858912229538,-0.0003616269677877426
1783003409914604000,1.49660400390625,-0.0005158535204827785,-0.0005931670311838388,0.0015292167663574219
1783003409924654800,1.50665478515625,0.000835078302770853,0.0028065755032002926,-0.0005749501287937164
1783003409934707000,1.51670703125,-0.0011918535456061363,0.0020441124215722084,0.00025036372244358063
1783003409944758000,1.526758056640625,-0.0002159695141017437,0.0004151472821831703,-0.002812424208968878
1783003409954808800,1.536808837890625,0.002244258765131235,-0.003956165164709091,-0.0012941565364599228
1783003409964860000,1.54685986328125,-0.00002797180786728859,-0.0021400987170636654,-0.0008333730511367321
1783003409974912000,1.556912109375,0.0013440889306366444,0.00039869267493486404,0.0009677223861217499
1783003409984962800,1.566962890625,-0.0003387508913874626,0.00308209378272295,-0.00021236389875411987
1783003409995014000,1.577013916015625,-0.00995436031371355,0.05450959876179695,0.02715560980141163
1783003410005065000,1.58706494140625,0.0015819091349840164,0.13868467509746552,0.0557422898709774
1783003410015117000,1.597116943359375,-0.002846128772944212,-0.010880060493946075,-0.015584621578454971
1783003410025168000,1.60716796875,-0.004461708944290876,-0.02737133949995041,-0.016021134331822395
1783003410035219000,1.617218994140625,-0.0051733055151999,0.01793062873184681,-0.0006038290448486805
1783003410045270000,1.62727001953125,0.0003359497059136629,-0.01644861325621605,-0.008447595871984959
1783003410055321900,1.63732177734375,0.0015186595264822245,0.010253570973873138,-0.0002056453377008438
1783003410065373000,1.647373046875,-0.001127338968217373,-0.025163954123854637,-0.005785700399428606
1783003410075424000,1.657424072265625,-0.011259601451456547,-0.04210032522678375,-0.01764422282576561
1783003410085475000,1.66747509765625,0.004160325042903423,-0.1192418783903122,-0.04980802163481712
1783003410095527000,1.67752685546875,0.0022958458866924047,-0.10643526911735535,-0.03836681693792343
1783003410105578000,1.687577880859375,0.004642787389457226,-0.023611947894096375,-0.009554898366332054
1783003410115629000,1.697629150390625,-0.0035725319758057594,0.06437303870916367,0.025650493800640106
1783003410125679900,1.707679931640625,0.004975482821464539,0.13031576573848724,0.051211923360824585
1783003410135732000,1.71773193359375,-0.0008344696834683418,0.1056186631321907,0.044043492525815964
1783003410145783000,1.727782958984375,-0.002664913423359394,-0.00916300155222416,-0.0065082404762506485
1783003410155833900,1.737833740234375,-0.002623368054628372,-0.002264882205054164,-0.0056744045577943325
1783003410165885000,1.747885009765625,-0.002644007559865713,0.0032285689376294613,0.0010127704590559006
1783003410175937000,1.75793701171875,-0.0015126965008676052,-0.005689292214810848,-0.0022261659614741802
1783003410185987800,1.76798779296875,0.0024208445101976395,0.0024460931308567524,-0.00013650581240653992
1783003410196039000,1.778038818359375,-0.0021371557377278805,-0.011763468384742737,-0.004164536949247122
1783003410206090000,1.788090087890625,-0.0012958487495779991,-0.005420920439064503,0.0003135688602924347
1783003410216141000,1.79814111328125,0.00017847726121544838,-0.018213413655757904,-0.00591236911714077
1783003410226193000,1.80819287109375,0.004521227441728115,-0.027833476662635803,-0.009684881195425987
1783003410236244000,1.818243896484375,-0.002672236878424883,0.0045271264389157295,0.00033552851527929306
1783003410246295000,1.828294921875,-0.00033091893419623375,0.032390300184488297,0.013546427711844444
1783003410256346000,1.83834619140625,-0.0013961833901703358,0.025117740035057068,0.009286435320973396
1783003410266398000,1.84839794921875,0.0018955348059535027,-0.015299527905881405,-0.0012110238894820213
1783003410276449000,1.858448974609375,-0.00047601014375686646,0.012462061829864979,0.005814128555357456
1783003410286500000,1.8685,0.002128896303474903,-0.0081268809735775,-0.0031174831092357635
1783003410296551000,1.878551025390625,0.00010649161413311958,0.006615312770009041,0.0014096247032284737
1783003410306603000,1.88860302734375,-0.0006602462381124496,-0.00723871449008584,-0.0014694761484861374
1783003410316654000,1.898654052734375,0.00047346134670078754,0.0008583604358136654,0.0018618721514940262
1783003410326705000,1.908704833984375,-0.0001377738080918789,0.00010472489520907402,0.0012092133983969688
1783003410336756000,1.918755859375,-0.001666694413870573,0.004352200776338577,-0.0012813750654459
1783003410346808000,1.92880810546875,-0.00191601924598217,-0.000934103038161993,-0.00009752064943313599
1783003410356859000,1.93885888671875,0.0014321068301796913,-0.0016307858750224113,-0.003367349971085787
1783003410366910000,1.948909912109375,-0.0015770923346281052,-0.0003720968961715698,0.0004944400861859322
1783003410376961000,1.9589609375,-0.0008601690642535686,0.002311037853360176,-0.0008714953437447548
1783003410387012900,1.969012939453125,-0.0016817408613860607,0.0037829638458788395,-0.00011120550334453583
1783003410397064000,1.97906396484375,0.00013240473344922066,0.0033102533780038357,0.00019985157996416092
1783003410407115000,1.989114990234375,0.0007225610315799713,0.0012007635086774826,0.000021153129637241364
1783003410417166000,1.999166015625,-0.0003397739492356777,0.001606629230082035,0.00035697780549526215
1783003410427218000,2.009218017578125,-0.0014864387921988964,0.004788731224834919,0.00013976916670799255
1783003410437269000,2.01926904296875,0.0025676912628114223,0.0035647423937916756,-0.0009569199755787849
1783003410447320000,2.029320068359375,-0.0019275904633104801,-0.002296461258083582,0.0018620127812027931
1783003410457371000,2.039370849609375,0.00034568365663290024,-0.0058528464287519455,-0.0014602812007069588
1783003410467423000,2.049423095703125,-0.0000624735839664936,-0.005224686115980148,-0.0038142288103699684
1783003410477474000,2.05947412109375,-0.00157488277181983,-0.005309640895575285,0.0005605462938547134
1783003410487524900,2.06952490234375,-0.0038026031106710434,-0.024241022765636444,-0.012501459568738937
1783003410497576000,2.079575927734375,-0.0012531587854027748,-0.056140631437301636,-0.02130347490310669
1783003410507628000,2.0896279296875,-0.0007827519439160824,-0.0458391048014164,-0.019487891346216202
1783003410517679000,2.09967919921875,-0.002216597553342581,-0.014844702556729317,-0.001587187871336937
1783003410527730000,2.10972998046875,0.001514478586614132,0.0008147181943058968,-0.0015725446864962578
1783003410537781000,2.119781005859375,-0.000657862052321434,-0.02031267061829567,-0.004422925878316164
1783003410547833000,2.1298330078125,-0.006142669357359409,-0.002694492693990469,0.003039025701582432
1783003410557884000,2.1398837890625,0.004295058082789183,0.02538134902715683,0.011226115748286247
1783003410567935000,2.14993505859375,-0.002007937990128994,0.009968116879463196,0.0035686688497662544
1783003410577986000,2.159986083984375,0.004625463858246803,-0.01269564963877201,-0.004629606381058693
1783003410588037000,2.170037109375,-0.0004190695472061634,-0.012397411279380322,-0.0067913345992565155
1783003410598089000,2.1800888671875,-0.001088322140276432,-0.004721115808933973,-0.004123912192881107
1783003410608140000,2.19014013671875,-0.00039741769433021545,0.002533258404582739,0.0021705711260437965
1783003410618191000,2.200191162109375,-0.00024455226957798004,-0.006922561675310135,-0.006639964412897825
1783003410628242000,2.210241943359375,0.0023057437501847744,-0.01327796932309866,-0.005811845883727074
1783003410638294000,2.2202939453125,0.0010295568499714136,0.0052970461547374725,-0.000014943070709705353
1783003410648345000,2.230344970703125,0.003420008346438408,0.01683063432574272,0.006989749148488045
1783003410658396000,2.24039599609375,0.0018548686057329178,-0.0006599421612918377,-0.0007419395260512829
1783003410668447000,2.250447021484375,0.0014120533596724272,-0.025065461173653603,-0.013714365661144257
1783003410678499000,2.2604990234375,-0.0016790777444839478,-0.009099544957280159,-0.003833505790680647
1783003410688550000,2.2705498046875,-0.000885283574461937,0.023800961673259735,0.007772225886583328
1783003410698601000,2.28060107421875,0.00024363049305975437,0.029883619397878647,0.013405077159404755
1783003410708652000,2.290652099609375,-0.0011392426677048206,0.005290014669299126,0.0028366511687636375
1783003410718703900,2.300703857421875,0.0035939933732151985,-0.02152109146118164,-0.008563808165490627
1783003410728755000,2.3107548828125,0.0019676019437611103,-0.030455434694886208,-0.013056873343884945
1783003410738806000,2.320805908203125,0.001365727512165904,-0.02120387926697731,-0.007066092453896999
1783003410748857000,2.330857177734375,0.00006144493818283081,0.0029361946508288383,-0.0017701080068945885
1783003410758909000,2.340908935546875,0.0013541432563215494,0.024790361523628235,0.010513722896575928
1783003410768960000,2.3509599609375,0.0001798085868358612,0.014924565330147743,0.0028331857174634933
1783003410779011000,2.361010986328125,-0.004879398737102747,-0.012484421953558922,-0.006662315689027309
1783003410789062100,2.371062255859375,-0.00043092062696814537,-0.00880039669573307,-0.004049366340041161
1783003410799113000,2.381113037109375,-0.002940150909125805,0.01268838346004486,0.0020101238042116165
1783003410809165000,2.3911650390625,-0.0016295029781758785,0.013171100988984108,0.0023633213713765144
1783003410819216100,2.401216064453125,0.0005132765509188175,0.006175776477903128,0.0009704884141683578
1783003410829267000,2.411266845703125,0.0012921446468681097,0.009329338558018208,0.0042439838871359825
1783003410839318000,2.421318115234375,0.0010407422669231892,0.018771575763821602,0.004310562275350094
1783003410849370000,2.4313701171875,-0.0002184673212468624,0.022219644859433174,0.007494227960705757
1783003410859421000,2.4414208984375,0.00152590312063694,0.03189251571893692,0.012316146865487099
1783003410869472000,2.451471923828125,0.00028050155378878117,0.03385484591126442,0.01340478751808405
1783003410879523000,2.461523193359375,-0.0005559972487390041,0.023590222001075745,0.008224672637879848
1783003410889575000,2.471574951171875,0.0017761476337909698,0.013791883364319801,0.006060321815311909
1783003410899626000,2.4816259765625,-0.0016055344603955746,0.01800660230219364,0.006572181358933449
1783003410909677600,2.491677490234375,-0.0013805506750941277,0.007507664617151022,0.0025200406089425087
1783003410919728600,2.501728759765625,0.0003457101993262768,-0.0000714259222149849,-0.0014576567336916924
1783003410929780500,2.511780517578125,-0.000393889844417572,0.0037095025181770325,-0.0008533038198947906
1783003410939831600,2.52183154296875,0.00039973226375877857,0.00000904034823179245,0.00218882504850626
1783003410949882600,2.531882568359375,-0.001185114961117506,0.0057968879118561745,-0.000247967429459095
1783003410959933400,2.541933349609375,0.00036404584534466267,-0.0018269431311637163,0.0005970541387796402
1783003410969985500,2.551985595703125,-0.000917200930416584,0.0013904217630624771,-0.0005443771369755268
1783003410980036600,2.56203662109375,-0.0007401006296277046,0.0000849403440952301,-0.002038676757365465
1783003410990087400,2.57208740234375,0.0008227170910686255,-0.0010219721589237452,-0.0029378733597695827
1783003411000138500,2.582138427734375,-0.0011703926138579845,0.0013397191651165485,-0.0018180138431489468
1783003411010190600,2.592190673828125,0.0008778753690421581,-0.0018121416214853525,-0.0006585633382201195
1783003411020241400,2.602241455078125,0.001306111691519618,-0.0018736605998128653,-0.0015355423092842102
1783003411030292500,2.61229248046875,0.0015375413931906223,-0.0008131586946547031,0.0033270781859755516
1783003411040343600,2.622343505859375,0.0007673553191125393,0.00006967922672629356,0.0018705949187278748
1783003411050395400,2.6323955078125,0.0012279888615012169,-0.0006157401949167252,-0.0004096641205251217
1783003411060446500,2.642446533203125,-0.0010921568609774113,-0.0009491678792983294,-0.0003566672094166279
1783003411070497500,2.65249755859375,0.000974894966930151,-0.0012976955622434616,-0.00015512388199567795
1783003411080548600,2.662548583984375,0.0012974038254469633,-0.00015759654343128204,-0.00045845843851566315
1783003411090600400,2.672600341796875,0.0004876302555203438,0.002478320151567459,-0.00041152816265821457
1783003411100651500,2.682651611328125,0.0014247966464608908,-0.0013574305921792984,0.0005229748785495758
1783003411110702600,2.69270263671875,0.0013714132364839315,0.0019519282504916191,0.0005027148872613907
1783003411120753400,2.70275341796875,-0.0006933356635272503,0.0013857404701411724,-0.00048505188897252083
1783003411130804500,2.712804443359375,-0.0005585532635450363,-0.00025213882327079773,0.0008590072393417358
1783003411140856600,2.722856689453125,-0.000920743215829134,-0.004574981518089771,0.0011237254366278648
1783003411150907400,2.732907470703125,-0.0023043914698064327,-0.0012882547453045845,-0.00011328794062137604
1783003411160958500,2.74295849609375,-0.0005989028140902519,0.0011535976082086563,-0.0030406350269913673
1783003411171009500,2.753009521484375,0.0023092038463801146,-0.0026370729319751263,0.0013249395415186882
1783003411181061600,2.7630615234375,-0.00034064147621393204,-0.0009113445412367582,0.0011334586888551712
1783003411191112400,2.773112548828125,0.00065968232229352,-0.0005278878379613161,0.0006678551435470581
1783003411201163500,2.78316357421875,0.0023156357929110527,-0.0016805040650069714,0.0003940816968679428
1783003411211214600,2.793214599609375,-0.0014450391754508018,0.0030700773932039738,-0.0008016382344067097
1783003411221266400,2.803266357421875,0.0015177272725850344,0.0001794826239347458,0.003734789788722992
1783003411231317500,2.8133173828125,-0.001657866407185793,-0.0006551139522343874,0.00023441389203071594
1783003411241368600,2.82336865234375,-0.0007593156769871712,0.00012465938925743103,-0.001338182482868433
1783003411251419600,2.833419677734375,-0.0001828768290579319,0.0018009734340012074,-0.0016279099509119987
1783003411261471500,2.843471435546875,-0.0027008955366909504,0.0004704580642282963,0.00025068409740924835
1783003411271522600,2.8535224609375,0.001961661269888282,0.0013808384537696838,0.0013427827507257462
1783003411281573600,2.86357373046875,-0.00017286231741309166,-0.0025127031840384007,0.0006753941997885704
1783003411291624400,2.87362451171875,0.00018872972577810287,-0.0002763732336461544,-0.0025272020138800144
1783003411301675500,2.883675537109375,-0.0005745319649577141,0.0007374919950962067,-0.0014941617846488953
1783003411311727600,2.8937275390625,-0.0005228668451309204,0.0005119224078953266,0.0012164032086730003
1783003411321778400,2.9037783203125,-0.00008051563054323196,0.0014056791551411152,-0.001059267669916153
1783003411331829500,2.91382958984375,0.0005181478336453438,0.0009524128399789333,0.0005426676943898201
1783003411341880600,2.923880615234375,0.0012262824457138777,-0.0008327038958668709,-0.0009127496741712093
1783003411351932400,2.933932373046875,-0.0016383263282477856,-0.0035849923733621836,-0.0009156884625554085
1783003411361983500,2.9439833984375,-0.0004878407344222069,-0.00043900031596422195,0.002221249043941498
1783003411372034600,2.95403466796875,0.0003397311083972454,-0.001593572786077857,0.0012795208021998405
1783003411382085600,2.964085693359375,0.0007477274630218744,-0.0004177871160209179,-0.00039214547723531723
1783003411392137500,2.974137451171875,0.0009487154893577099,-0.0016089424025267363,-0.004319611005485058
1783003411402188500,2.9841884765625,-0.0007426580414175987,-0.000200662761926651,-0.00019890163093805313
1783003411412239600,2.994239501953125,0.0026076524518430233,-0.0015962012112140656,0.0010380102321505547
1783003411422290700,3.004290771484375,-0.003636660985648632,0.0012906654737889767,-0.0012981151230633259
1783003411432342500,3.014342529296875,0.0004968170542269945,0.0007780101150274277,-0.0010498645715415478
1783003411442393600,3.0243935546875,-0.0010733827948570251,0.0043650222942233086,0.00030967965722084045
1783003411452444700,3.034444580078125,0.00032317242585122585,0.0007617408409714699,0.002597387880086899
1783003411462495500,3.04449560546875,0.0002832249738276005,0.001855235081166029,0.00021652225404977798
1783003411472547600,3.054547607421875,0.0006973787676542997,-0.0017014271579682827,-0.0005889092572033405
1783003411482598700,3.0645986328125,-0.00039451755583286285,-0.00007796427235007286,-0.00290293013677001
1783003411492649500,3.0746494140625,-0.00015178276225924492,-0.0015358943492174149,-0.0008229827508330345
1783003411502700500,3.084700439453125,0.00006340071558952332,0.002478820737451315,0.001960819587111473
1783003411512751600,3.094751708984375,-0.0002339542843401432,0.0014395397156476974,-0.00010604038834571838
1783003411522803500,3.104803466796875,-0.002138114534318447,0.002269380260258913,-0.00205467501655221
1783003411532854500,3.1148544921875,0.001176696503534913,0.0005117296241223812,-0.001561152283102274
1783003411542905600,3.124905517578125,-0.0012973803095519543,0.00043396512046456337,0.0002671079710125923
1783003411552956700,3.134956787109375,0.0021375250071287155,0.0009309491142630577,-0.0007879538461565971
1783003411563008500,3.145008544921875,-0.0016209944151341915,0.0013141781091690063,0.0006389683112502098
1783003411573059600,3.1550595703125,-0.0014014565385878086,-0.0010116391349583864,-0.0013732579536736012
1783003411583110700,3.165110595703125,-0.001587078906595707,-0.0037107528187334538,0.001248357817530632
1783003411593161500,3.175161376953125,-0.0026903077960014343,-0.0010173770133405924,-0.0003851591609418392
1783003411603213600,3.185213623046875,0.00011187000200152397,-0.0023492237087339163,-0.0021292632445693016
1783003411613264600,3.1952646484375,-0.0011366107501089573,-0.0023079735692590475,-0.0024509644135832787
1783003411623315500,3.2053154296875,-0.00018399767577648163,-0.001393444137647748,0.0006641354411840439
1783003411633366500,3.215366455078125,-0.0013967561535537243,-0.003621990792453289,0.0015329914167523384
1783003411643418600,3.225418701171875,-0.001409805379807949,0.002486501820385456,0.002063492313027382
1783003411653469400,3.235469482421875,0.0014317873865365982,0.0013176403008401394,-0.0010651890188455582
1783003411663520500,3.2455205078125,0.0005788274575024843,-0.0044950442388653755,0.0007808376103639603
1783003411673571600,3.255571533203125,-0.0022822869941592216,-0.0003353757783770561,0.0008827336132526398
1783003411683623700,3.265623779296875,0.00018007168546319008,-0.0002251211553812027,0.0018550539389252663
1783003411693674500,3.275674560546875,-0.0006791292689740658,-0.0013334555551409721,-0.00006656162440776825
1783003411703725600,3.2857255859375,0.0003366004675626755,-0.00166635075584054,-0.002089499030262232
1783003411713776600,3.295776611328125,-0.003460340201854706,-0.003683379851281643,0.0024439068511128426
1783003411723827700,3.30582763671875,-0.0004483046941459179,-0.003558743977919221,-0.0026605739258229733
1783003411733879600,3.315879638671875,-0.002747081220149994,-0.004230731166899204,-0.0026825307868421078
1783003411743930600,3.3259306640625,-0.004880806431174278,-0.029674571007490158,-0.014458496123552322
1783003411753981700,3.335981689453125,0.004253150895237923,-0.05530811846256256,-0.02584856189787388
1783003411764032500,3.346032470703125,0.0013479082845151424,-0.024808533489704132,-0.012125558219850063
1783003411774084600,3.356084716796875,0.0038892317097634077,0.012774675153195858,0.0023558884859085083
1783003411784135700,3.3661357421875,-0.002727924380451441,0.027451619505882263,0.01066947728395462
1783003411794186500,3.3761865234375,0.0011288255918771029,0.01087241806089878,0.0018001683056354523
1783003411804237600,3.386237548828125,-0.0008381851948797703,-0.021294306963682175,-0.007109170313924551
1783003411814289700,3.39628955078125,-0.0011105327866971493,0.0007773591205477715,-0.0017713382840156555
1783003411824340500,3.406340576171875,0.0019086929969489574,0.035366762429475784,0.014816959388554096
1783003411834391600,3.4163916015625,0.0006266592536121607,0.04041901230812073,0.01608143374323845
1783003411844442600,3.426442626953125,0.0037577375769615173,0.026623038575053215,0.010309296660125256
1783003411854494500,3.436494384765625,-0.0002580028958618641,0.00130006717517972,-0.0005495580844581127
1783003411864545500,3.446545654296875,-0.0010774573311209679,0.007559561170637608,0.003616158850491047
1783003411874596600,3.4565966796875,-0.0021241200156509876,-0.0016251103952527046,-0.0011292463168501854
1783003411884647700,3.466647705078125,-0.0005997265689074993,0.004980328027158976,0.0006939535960555077
1783003411894698500,3.476698486328125,-0.00023391377180814743,0.002497308887541294,0.003838818520307541
1783003411904750600,3.48675048828125,-0.0006863847374916077,0.0034821461886167526,-0.002857966348528862
1783003411914801400,3.496801513671875,-0.0008433111943304539,0.0014145411550998688,0.004061313346028328
1783003411924852500,3.5068525390625,0.0003860041033476591,0.003212174866348505,-0.0016631516627967358
1783003411934903300,3.5169033203125,-0.000811419915407896,0.0025243544951081276,-0.0015280074439942837
1783003411944955400,3.526955322265625,-0.0027464726008474827,0.0009171366691589355,-0.0002872403711080551
1783003411955006500,3.53700634765625,0.0004623166751116514,-0.0005001560784876347,0.0032048216089606285
1783003411965057300,3.547057373046875,-0.00020400620996952057,-0.0007989627774804831,0.0021310346201062202
1783003411975108400,3.5571083984375,0.0006254618056118488,-0.002365322085097432,-0.0019473936408758163
1783003411985160400,3.567160400390625,0.002312840661033988,-0.0020651838276535273,0.00042095594108104706
1783003411995211300,3.577211181640625,0.000279060797765851,-0.002879149978980422,-0.00025240611284971237
1783003412005262300,3.587262451171875,0.0012593702413141727,-0.003447202267125249,-0.0023195515386760235
1783003412015313400,3.5973134765625,0.0022465139627456665,-0.005208509508520365,-0.002010466530919075
1783003412025365200,3.607365234375,-0.00054581044241786,-0.00197543203830719,-0.0022232532501220703
1783003412035416300,3.617416259765625,0.0002495835069566965,-0.000016834121197462082,-0.0003032195381820202
1783003412045467400,3.62746728515625,-0.0016364669427275658,-0.0022072838619351387,-0.0010675466619431973
1783003412055518500,3.6375185546875,-0.0006320425309240818,0.0023279283195734024,-0.00003452599048614502
1783003412065569300,3.6475693359375,-0.0002453513443470001,-0.0008928985334932804,0.0001681409776210785
1783003412075621400,3.657621337890625,-0.001741369254887104,-0.001260566059499979,-0.0009392215870320797
1783003412085672400,3.66767236328125,0.0009819793049246073,-0.0005351209547370672,0.000591563992202282
1783003412095723300,3.67772314453125,-0.0037799677811563015,0.0004933224990963936,0.0020266640931367874
1783003412105774300,3.6877744140625,0.0031884589698165655,-0.0011386624537408352,0.0014825798571109772
1783003412115826400,3.697826416015625,-0.0022718971595168114,0.0014854553155601025,-0.00039137015119194984
1783003412125877500,3.70787744140625,0.0007321482989937067,0.0022268793545663357,-0.0012339944951236248
1783003412135928300,3.71792822265625,0.001255295006558299,0.0011438988149166107,0.0009318003430962563
1783003412145979400,3.7279794921875,0.0007096133194863796,0.003266971092671156,0.001032201573252678
1783003412156031500,3.738031494140625,0.0013124076649546623,0.0004492304287850857,-0.0010706107132136822
1783003412166082300,3.748082275390625,0.0007060060743242502,0.000045495107769966125,-0.0007395800203084946
1783003412176133400,3.75813330078125,-0.0023663779720664024,-0.0021370763424783945,0.00039552245289087296
1783003412186184400,3.768184326171875,0.0011063842102885246,-0.0007474389858543873,0.0013497332111001015
1783003412196235500,3.778235595703125,-0.0015569627285003662,-0.0014913375489413738,0.0027503911405801773
1783003412206287400,3.788287353515625,0.0009280331432819366,-0.00021142233163118362,-0.0014659254811704159
1783003412216338400,3.79833837890625,0.000019809696823358536,-0.0010637196246534586,0.00020522065460681915
1783003412226389500,3.808389404296875,-0.0009173564612865448,0.0013501695357263088,-0.0014235684648156166
1783003412236440300,3.8184404296875,0.0034610650036484003,0.0028093578293919563,-0.00007242057472467422
1783003412246492400,3.828492431640625,0.0014495793730020523,-0.0007571475580334663,0.0007438380271196365
1783003412256543500,3.83854345703125,0.0014674798585474491,-0.000020061619579792023,0.0029341233894228935
1783003412266594300,3.84859423828125,-0.001659603789448738,0.002118989359587431,0.0007609836757183075
1783003412276645400,3.858645263671875,-0.001182044856250286,-0.0004464336670935154,0.0020353058353066444
1783003412286697500,3.868697509765625,-0.00025499844923615456,0.0022220537066459656,0.0005447352305054665
1783003412296748300,3.878748291015625,-0.0007328931242227554,-0.0006342937704175711,-0.0005995170213282108
1783003412306799400,3.88879931640625,0.0014660789165645838,-0.00033442163839936256,-0.0015982026234269142
1783003412316850400,3.898850341796875,-0.0001284475438296795,-0.0026985816657543182,-0.001008697785437107
1783003412326902300,3.90890234375,0.0007059208583086729,-0.0016138760838657618,-0.0013703550212085247
1783003412336953300,3.918953369140625,0.0015975290443748236,-0.0020029356237500906,-0.0003921845927834511
1783003412347004400,3.92900439453125,-0.00042114686220884323,-0.0024628634564578533,-0.002215650863945484
1783003412357055500,3.939055419921875,0.0013339673168957233,-0.0009763594716787338,-0.00019283313304185867
1783003412367106600,3.9491064453125,-0.0016098911873996258,-0.0004937946796417236,-0.002275691367685795
1783003412377158400,3.959158447265625,-0.0001391638070344925,0.0001676180399954319,-0.0010242532007396221
1783003412387209500,3.96920947265625,-0.0027948678471148014,-0.0006001712754368782,0.00007829535752534866
1783003412397260500,3.979260498046875,0.00010819081217050552,-0.0014969420153647661,-0.0012404872104525566
1783003412407311400,3.989311279296875,-0.0016966336406767368,-0.00014645326882600784,-0.0013691182248294353
1783003412417363500,3.999363525390625,0.0004145845305174589,0.0028251525945961475,0.0006404509767889977
1783003412427414500,4.00941455078125,0.00008248817175626755,0.0009433627128601074,0.00015096180140972137
1783003412437465300,4.01946533203125,-0.0006556888110935688,-0.0003381548449397087,-0.0007739989086985588
1783003412447516400,4.029516357421875,-0.0002460950054228306,-0.001761880936101079,-0.0008477685041725636
1783003412457568500,4.039568603515625,0.0012423316948115826,0.0019995677284896374,0.0021155308932065964
1783003412467619300,4.049619384765625,0.0004239422269165516,0.002335126046091318,-0.0030549964867532253
1783003412477670400,4.05967041015625,-0.00008469866588711739,-0.0023318312596529722,-0.0016390308737754822
1783003412487721500,4.069721435546875,0.0006633833982050419,-0.0011459256056696177,-0.001996427308768034
1783003412497773300,4.079773193359375,-0.0008164830505847931,-0.0012832796201109886,-0.001830747351050377
1783003412507824400,4.089824462890625,-0.0007144836708903313,-0.00161457690410316,-0.0007833261042833328
1783003412517875500,4.09987548828125,0.00107552669942379,0.000035458244383335114,0.0005472032353281975
1783003412527926500,4.109926513671875,0.0019173519685864449,-0.0017445986159145832,0.001021246425807476
1783003412537977300,4.119977294921875,-0.0007255938835442066,0.0007854290306568146,-0.00031304964795708656
1783003412548029400,4.130029541015625,-0.0023312135599553585,-0.0006327042356133461,0.0008715242147445679
1783003412558080500,4.14008056640625,-0.0012014643289148808,0.0029802992939949036,0.0000910591334104538
1783003412568131300,4.15013134765625,0.00033145095221698284,0.0034900279715657234,0.00011316314339637756
1783003412578182400,4.160182373046875,0.0020154959056526423,0.0006708498112857342,0.000029667280614376068
1783003412588234500,4.170234375,-0.0017102663405239582,0.0006412887014448643,-0.0005250689573585987
1783003412598285300,4.180285400390625,-0.000976839568465948,0.0008202935568988323,-0.0003990218974649906
1783003412608336400,4.19033642578125,-0.0007653846405446529,-0.0003245994448661804,0.00024626217782497406
1783003412618387200,4.20038720703125,-0.00027771899476647377,0.0013606245629489422,0.0021673375740647316
1783003412628438300,4.210438232421875,0.00042082834988832474,-0.003379802219569683,-0.0002457527443766594
1783003412638490400,4.220490478515625,0.0005653791595250368,-0.0008766602259129286,0.0008543161675333977
1783003412648541400,4.23054150390625,-0.0012058895081281662,-0.0010020951740443707,-0.0019569164142012596
1783003412658592300,4.24059228515625,-0.0016973093152046204,0.00028491439297795296,-0.0007355357520282269
1783003412668643300,4.250643310546875,-0.00021339580416679382,-0.002105805091559887,-0.0028980225324630737
1783003412678695400,4.2606953125,-0.00065589789301157,-0.0015743509866297245,0.00006165262311697006
1783003412688746500,4.27074658203125,0.00028046942315995693,0.002056602854281664,0.00011651404201984406
1783003412698797300,4.28079736328125,-0.0015574553981423378,0.00024383747950196266,-0.0004114746116101742
1783003412708848000,4.29084814453125,-0.00016595376655459404,-0.0005479201208800077,-0.002000050153583288
1783003412718900500,4.300900390625,0.0001565080601722002,-0.0025952481664717197,-0.004516074433922768
1783003412728951600,4.31095166015625,-0.0006650770083069801,-0.000031156931072473526,-0.0008547608740627766
1783003412739002000,4.321002197265625,-0.003017631359398365,-0.0002688327804207802,0.0009177578613162041
1783003412749053200,4.33105322265625,-0.002196046058088541,0.00007125316187739372,0.000369412824511528
1783003412759105500,4.34110546875,-0.0008232039399445057,-0.0007445907685905695,-0.002237992826849222
1783003412769156400,4.35115625,0.001367512159049511,-0.002995760878548026,-0.0016411785036325455
1783003412779207200,4.361207275390625,-0.0004137745127081871,-0.003804930252954364,-0.00018911715596914291
1783003412789258200,4.37125830078125,0.0004485570825636387,-0.0013186030555516481,-0.0008288086391985416
1783003412799309300,4.381309326171875,0.0005473077762871981,-0.003782066982239485,-0.004514886997640133
1783003412809361400,4.391361328125,0.00138646992854774,-0.0102093406021595,-0.002635227981954813
1783003412819412200,4.401412109375,0.001307633938267827,-0.04037708416581154,-0.019874271005392075
1783003412829463300,4.41146337890625,-0.001720646396279335,-0.0471271313726902,-0.020706774666905403
1783003412839514400,4.421514404296875,-0.00030891457572579384,0.017411984503269196,0.008501298725605011
1783003412849566500,4.43156640625,-0.0009334259666502476,0.06200768053531647,0.02402513101696968
1783003412859617300,4.4416171875,-0.0004983749240636826,0.045876916497945786,0.020491115748882294
1783003412869668400,4.45166845703125,0.0006763453129678965,-0.017117496579885483,-0.002253345213830471
1783003412879719200,4.46171923828125,-0.0007587778382003307,0.019614327698946,0.007172052748501301
1783003412889771300,4.471771240234375,0.0009672169107943773,-0.012183282524347305,-0.0026989541947841644
1783003412899822300,4.481822265625,-0.0031228256411850452,0.011714819818735123,0.001735127530992031
1783003412909874000,4.4918740234375,-0.0027976534329354763,-0.0064782979898154736,0.00013802945613861084
1783003412919925000,4.501925048828125,-0.00007933052256703377,0.007192759774625301,0.0015299683436751366
1783003412929976000,4.51197607421875,0.0022962093353271484,-0.004231135826557875,-0.002026949543505907
1783003412940028000,4.52202783203125,0.0013601137325167656,0.004081146791577339,-0.000661065336316824
1783003412950079000,4.532078857421875,-0.0002700071781873703,-0.003530700458213687,-0.0002727764658629894
1783003412960130000,4.542130126953125,-0.0032930076122283936,0.0009202552028000355,0.0017662737518548965
1783003412970180900,4.552180908203125,0.001088691409677267,-0.0007221160922199488,-0.0008183238096535206
1783003412980233000,4.56223291015625,-0.0014416989870369434,0.003197374753654003,-0.000635914970189333
1783003412990284000,4.572283935546875,-0.001011065673083067,0.000277751125395298,-0.0016178227961063385
1783003413000335000,4.582335205078125,0.000446046469733119,0.003638310357928276,-0.0009019109420478344
1783003413010386000,4.592385986328125,-0.0022589261643588543,-0.00011461600661277771,-0.0019645122811198235
1783003413020438000,4.60243798828125,0.00014949939213693142,-0.001064975280314684,-0.000634768046438694
1783003413030489000,4.612489013671875,0.0008339316118508577,-0.0012511303648352623,0.0016313157975673676
1783003413040540000,4.622539794921875,-0.0003383695147931576,-0.0037169321440160275,-0.00095710763707757
1783003413050591000,4.632591064453125,-0.0007703346200287342,0.00006848480552434921,0.0003334600478410721
1783003413060642000,4.64264208984375,0.0015380477998405695,-0.0008454984053969383,0.0021970076486468315
1783003413070694000,4.65269384765625,0.002538863569498062,0.0007289624772965908,-0.0023849611170589924
1783003413080745000,4.662744873046875,0.0017732519190758467,-0.003247468266636133,-0.001513380091637373
1783003413090796000,4.672796142578125,0.002095228061079979,-0.005706897936761379,-0.0015794262290000916
1783003413100847000,4.68284716796875,-0.002281046938151121,-0.0029040053486824036,0.0021101711317896843
1783003413110899000,4.69289892578125,0.0010055603925138712,-0.0012049085926264524,0.0003080097958445549
1783003413120950000,4.702949951171875,-0.002663952298462391,-0.003905131947249174,-0.002590170595794916
1783003413131001000,4.7130009765625,0.00023409933783113956,-0.00368515495210886,-0.00030517857521772385
1783003413141052000,4.723052001953125,0.0003035177942365408,-0.0019670426845550537,-0.0033857650123536587
1783003413151103000,4.73310302734375,-0.0008648112416267395,-0.0020639817230403423,0.00006569176912307739
1783003413161155000,4.743155029296875,-0.0005346345715224743,-0.011560238897800446,-0.004830670543015003
1783003413171206000,4.753205810546875,-0.0010643373243510723,-0.009690167382359505,-0.003078044392168522
1783003413181257000,4.763257080078125,0.0003741653636097908,0.008405068889260292,0.005678457207977772
1783003413191308000,4.77330810546875,-0.0013254638761281967,0.013297829777002335,0.005811882205307484
1783003413201360000,4.78335986328125,-0.0037571322172880173,0.006406828295439482,0.001751241274178028
1783003413211411000,4.793410888671875,0.0005776952020823956,0.006074465345591307,0.003290547989308834
1783003413221462000,4.8034619140625,0.0011371609289199114,-0.0038894135504961014,-0.001588243991136551
1783003413231513000,4.81351318359375,-0.0004905629903078079,0.004847885575145483,0.003310374915599823
1783003413241565000,4.82356494140625,0.00018391781486570835,-0.00013187481090426445,0.0029939375817775726
1783003413251616000,4.833615966796875,-0.0024382304400205612,0.005371547769755125,-0.0010492741130292416
1783003413261667000,4.8436669921875,-0.003005183767527342,0.005651433020830154,0.0034527061507105827
1783003413271718100,4.85371826171875,-0.00042830919846892357,-0.0006951461546123028,-0.0016483119688928127
1783003413281770000,4.86377001953125,0.0004679651465266943,0.0058273510076105595,0.0023176856338977814
1783003413291821000,4.873821044921875,-0.0002841115929186344,0.0010959790088236332,0.0008207233622670174
1783003413301872000,4.8838720703125,0.0034282845444977283,0.005573304370045662,0.000025377608835697174
1783003413311923000,4.8939228515625,0.00006817420944571495,6.402842700481415e-7,-0.0002981964498758316
1783003413321974000,4.90397412109375,-0.002332688309252262,-0.00005338992923498154,-0.0010827290825545788
1783003413332026000,4.914026123046875,-0.0027920836582779884,-0.0037093774881213903,-0.0004566200077533722
1783003413342077000,4.924076904296875,-0.0010721567086875439,-0.002467590617015958,-0.0010154806077480316
1783003413352128000,4.9341279296875,-0.002659933641552925,-0.0024665254168212414,-0.0009283954277634621
1783003413362179000,4.944178955078125,0.0006185793317854404,-0.0017335126176476479,-0.0025852122344076633
1783003413372231000,4.95423095703125,0.0022273948416113853,-0.0025175472255796194,0.003203701227903366
1783003413382282000,4.964281982421875,-0.0005156607367098331,0.00036186259239912033,-0.0023322119377553463
1783003413392333000,4.9743330078125,-0.0006903642788529396,0.0005677249282598495,-0.004006008617579937
1783003413402384100,4.984384033203125,-0.0004201340489089489,-0.000520631205290556,-0.0019490835256874561
1783003413412435000,4.99443505859375,-0.000403089914470911,0.0010176105424761772,0.0002363063395023346
1783003413422487000,5.004487060546875,-0.0015834602527320385,0.0031644292175769806,0.0002737194299697876
1783003413432538000,5.0145380859375,-0.002240994479507208,0.0002842205576598644,0.0011333879083395004
1783003413442589000,5.0245888671875,-0.0005219718441367149,-0.00008749077096581459,-0.002160070464015007
1783003413452640000,5.034639892578125,-0.00019147386774420738,0.00161080714315176,-0.0011355523020029068
1783003413462692000,5.044692138671875,0.00019959895871579647,-0.00011530378833413124,0.0009297467768192291
1783003413472743000,5.054742919921875,-0.0005213185213506222,-0.0009352911729365587,-0.0002465713769197464
1783003413482794000,5.0647939453125,-0.002794625237584114,-0.00012168381363153458,-0.0003040032461285591
1783003413492845000,5.074844970703125,-0.001471034251153469,-0.000913707772269845,-0.00018522609025239944
1783003413502896000,5.084896240234375,-0.0013815904967486858,-0.0007263706065714359,0.003003358840942383
1783003413512948000,5.094947998046875,0.0008770362474024296,0.0017817942425608635,-0.0006502317264676094
1783003413522999000,5.1049990234375,0.0018459407147020102,0.0003784121945500374,-0.0003955857828259468
1783003413533050000,5.115050048828125,-0.002233223058283329,0.0014780312776565552,-0.0013790912926197052
1783003413543101200,5.12510107421875,-0.0028159120120108128,0.0006209546700119972,0.0001226533204317093
1783003413553153000,5.135153076171875,-0.0009623514488339424,0.0003021741285920143,0.0009010955691337585
1783003413563204000,5.1452041015625,-0.002607161644846201,-0.003868422470986843,-0.0005975207313895226
1783003413573255200,5.155255126953125,0.00013749231584370136,0.0024704337120056152,0.001422220841050148
1783003413583306000,5.165305908203125,0.0002616001293063164,-0.00028212321922183037,0.00046620145440101624
1783003413593358000,5.175358154296875,0.0006434973329305649,-0.0035564799327403307,0.002396993339061737
1783003413603409200,5.1854091796875,-0.001129097305238247,-0.0008075649384409189,-0.00008427351713180542
1783003413613460000,5.1954599609375,0.0002943621948361397,0.00012347614392638206,0.0006291866302490234
1783003413623511000,5.205510986328125,0.0005475119687616825,0.00009532459080219269,-0.000913150142878294
1783003413633561900,5.215561767578125,0.0003033000975847244,0.0029254662804305553,0.00309863593429327
1783003413643614000,5.225614013671875,0.0014314015861600637,0.0006285351701080799,-0.0010054316371679306
1783003413653665000,5.2356650390625,-0.0038190199993550777,0.00036621419712901115,0.0018289713189005852
1783003413663716000,5.245716064453125,-0.00011883815750479698,0.0016852384433150291,0.00036015361547470093
1783003413673767000,5.255766845703125,-0.002583061344921589,-0.000048745423555374146,-0.0001359935849905014
1783003413683819000,5.265819091796875,-0.0011385898105800152,0.001237776130437851,-0.0006064837798476219
1783003413693870000,5.2758701171875,-0.0010917182080447674,-0.002385987201705575,-0.0020022462122142315
1783003413703921200,5.285921142578125,-0.00006135273724794388,-0.002957417629659176,-0.001398562453687191
1783003413713972000,5.295971923828125,0.0022595920599997044,-0.0010151742026209831,-0.0008827080018818378
1783003413724022800,5.306022705078125,-0.0011082226410508156,0.0009451727382838726,-0.0015139230526983738
1783003413734075100,5.3160751953125,-0.0016941176727414131,0.0018101674504578114,-0.0005828822031617165
1783003413744126200,5.326126220703125,-0.0006075077690184116,0.003368421457707882,0.0025165872648358345
1783003413754176800,5.3361767578125,-0.00029112445190548897,0.0004999306984245777,-0.0002491059713065624
1783003413764227800,5.346227783203125,-0.0009101373143494129,0.0023058652877807617,-0.000192251056432724
1783003413774280200,5.3562802734375,-0.002695254050195217,0.00048266537487506866,-0.001550197135657072
1783003413784331000,5.3663310546875,-0.0011386685073375702,0.0004465174861252308,0.0004270533099770546
1783003413794381800,5.3763818359375,-0.0005282722413539886,-0.001361236209049821,0.0011924458667635918
1783003413804433000,5.386432861328125,0.002249851357191801,-0.004776401910930872,0.00032197684049606323
1783003413814485000,5.396485107421875,0.002743068616837263,-0.0036677278112620115,-0.000650343019515276
1783003413824535800,5.406535888671875,-0.0016040783375501633,-0.0032342039048671722,-0.0018171565607190132
1783003413834587000,5.4165869140625,-0.0005438737571239471,-0.0030863983556628227,-0.0007228637114167213
1783003413844638000,5.426637939453125,0.00036140321753919125,-0.0015435905661433935,-0.00041012559086084366
1783003413854688800,5.436688720703125,0.0019750124774873257,0.008752455934882164,0.0017848517745733261
1783003413864740900,5.446740966796875,0.000008055474609136581,0.002378751989454031,-0.0008531929925084114
1783003413874792000,5.4567919921875,-0.001677725464105606,0.0030533308163285255,0.003602275624871254
1783003413884842800,5.4668427734375,0.0026901247911155224,0.001310824416577816,-0.0014358926564455032
1783003413894893800,5.476893798828125,0.0013601016253232956,-0.0021640292834490538,0.0005916543304920197
1783003413904946000,5.48694580078125,0.0011478264350444078,0.00113010685890913,-0.0007949341088533401
1783003413914996500,5.49699658203125,-0.0031289439648389816,0.005762941669672728,0.001798718236386776
1783003413925047300,5.50704736328125,-0.0018954481929540634,-0.07865945249795914,-0.04676518961787224
1783003413935098400,5.517098388671875,-0.025021273642778397,0.022189397364854813,0.007837068289518356
1783003413945149400,5.5271494140625,-0.01972065679728985,-0.014898460358381271,-0.006799902766942978
1783003413955201300,5.537201171875,-0.006711114197969437,0.01736600138247013,-0.0008791633881628513
1783003413965252400,5.54725244140625,0.005077964626252651,-0.016645299270749092,-0.008463697507977486
1783003413975303400,5.557303466796875,0.003361291252076626,-0.006828088313341141,-0.0035416437312960625
