time,seconds_elapsed,z,y,x
1783003408492352300,0.074352294921875,-0.004838963504880667,-0.0006117281154729426,0.0085426215082407
1783003408502404000,0.084404052734375,-0.0007534082396887243,0.0007129282457754016,0.008925584144890308
1783003408512455200,0.094455078125,-0.006650179624557495,0.0049092709086835384,0.008715727366507053
1783003408522506200,0.10450634765625,-0.006281598005443811,0.009407083503901958,0.008916263468563557
1783003408532557300,0.114557373046875,-0.004462126176804304,0.006137787364423275,0.010730940848588943
1783003408542609200,0.124609130859375,-0.004009655211120844,0.007342068944126368,0.007487210910767317
1783003408552660200,0.13466015625,-0.0041579934768378735,0.0019451729021966457,0.008241684176027775
1783003408562711300,0.144711181640625,-0.004156661685556173,0.0034498588647693396,0.007992679253220558
1783003408572762400,0.154762451171875,-0.004002464935183525,0.0039175101555883884,0.009267534129321575
1783003408582814200,0.164814208984375,-0.0024224112275987864,0.0028575719334185123,0.006171609275043011
1783003408592865300,0.174865234375,-0.006843791343271732,0.0027917916886508465,0.006024869158864021
1783003408602916400,0.184916259765625,-0.004944957327097654,0.0018727348651736975,0.006338856182992458
1783003408612967200,0.19496728515625,-0.002907373011112213,0.0032487902790308,0.0060022324323654175
1783003408623019300,0.205019287109375,-0.002793922321870923,0.005090632475912571,0.008191883563995361
1783003408633070300,0.2150703125,-0.003983289934694767,0.005431783385574818,0.007437942549586296
1783003408643121200,0.22512109375,-0.005287173669785261,0.004765992984175682,0.009123457595705986
1783003408653172200,0.235172119140625,-0.005804892163723707,0.009388442151248455,0.007006510626524687
1783003408663224300,0.245224365234375,-0.00478330347687006,0.003230414353311062,0.007303719408810139
1783003408673275100,0.255275146484375,-0.003924700431525707,0.002254898427054286,0.005970807280391455
1783003408683326200,0.265326171875,-0.005755091086030006,0.002596848411485553,0.003914846573024988
1783003408693377300,0.275377197265625,-0.005310343112796545,0.004489024169743061,0.007454187609255314
1783003408703429000,0.28542919921875,-0.0054155378602445126,0.003772101365029812,0.008354069665074348
1783003408713480200,0.295480224609375,-0.0037587855476886034,0.0034554514568299055,0.00917112734168768
1783003408723531300,0.30553125,-0.0033153691329061985,0.0032735576387494802,0.008492021821439266
1783003408733582300,0.315582275390625,-0.003662645351141691,0.00449941074475646,0.007053382229059935
1783003408743634200,0.32563427734375,-0.0026615632232278585,0.006907440721988678,0.010161290876567364
1783003408753685200,0.335685302734375,-0.004683701321482658,0.006021939683705568,0.00824061967432499
1783003408763736300,0.345736328125,-0.003780623432248831,0.004799815360456705,0.007454720325767994
1783003408773787100,0.355787109375,-0.004209125880151987,0.004031493328511715,0.009228119626641273
1783003408783839200,0.365839111328125,-0.0036511938087642193,0.004758802708238363,0.007317834068089724
1783003408793890300,0.375890380859375,-0.0018338527297601104,0.00538544449955225,0.009207879193127155
1783003408803941400,0.38594140625,-0.0046389601193368435,0.003245328087359667,0.007799599785357714
1783003408813993200,0.3959931640625,-0.002927612978965044,0.004541222471743822,0.008835037238895893
1783003408824044300,0.406044189453125,-0.004209392238408327,0.003940945956856012,0.006142048165202141
1783003408834095400,0.416095458984375,-0.004739894066005945,0.005114867351949215,0.007340470794588327
1783003408844146200,0.426146240234375,-0.0031755531672388315,0.007049920037388802,0.008709868416190147
1783003408854197200,0.436197265625,-0.005190767347812653,0.006923419889062643,0.010455570183694363
1783003408864249300,0.446249267578125,-0.004568652715533972,0.006552175153046846,0.009549562819302082
1783003408874300200,0.456300048828125,-0.003924966789782047,-0.00003968110104324296,0.007077350746840239
1783003408884351200,0.466351318359375,-0.005155613645911217,0.0019377160351723433,0.004947620443999767
1783003408894402300,0.47640234375,-0.0029971215408295393,0.004825914278626442,0.0064983791671693325
1783003408904455000,0.486454833984375,-0.0038892803713679314,0.0049337721429765224,0.008983640931546688
1783003408914506000,0.496506103515625,-0.0056925066746771336,0.005900233518332243,0.009033176116645336
1783003408924556800,0.506556884765625,-0.004199272487312555,0.006696784868836403,0.009070727042853832
1783003408934608000,0.51660791015625,-0.0041705104522407055,0.0016418388113379478,0.008894957602024078
1783003408944660000,0.526659912109375,-0.005573996342718601,0.008646219037473202,0.006310360040515661
1783003408954710800,0.536710693359375,-0.005664010997861624,0.006356433033943176,0.008919991552829742
1783003408964761900,0.546761962890625,-0.004165183752775192,0.0062368568032979965,0.005090099759399891
1783003408974812700,0.556812744140625,-0.0028160265646874905,0.004598213825374842,0.008378570899367332
1783003408984865000,0.566864990234375,-0.00475320965051651,0.0033036512322723866,0.004933505784720182
1783003408994915800,0.576915771484375,-0.004571315832436085,0.005538576282560825,0.00911466870456934
1783003409004966700,0.586966552734375,-0.0024711471050977707,0.006570817437022924,0.009198025800287724
1783003409015017700,0.597017822265625,-0.004312989301979542,0.0067756143398582935,0.009159409441053867
1783003409025070000,0.607070068359375,-0.005218197591602802,0.006684001535177231,0.00818123109638691
1783003409035120600,0.61712060546875,-0.003921770956367254,0.005809952039271593,0.009660083800554276
1783003409045171700,0.627171630859375,-0.002999251941218972,0.004756405483931303,0.006966296583414078
1783003409055222800,0.637222900390625,-0.004233893472701311,0.005809685681015253,0.007239004597067833
1783003409065275000,0.64727490234375,-0.0012889700010418892,0.004822718445211649,0.010057427920401096
1783003409075325700,0.65732568359375,-0.0022453111596405506,0.004592088516801596,0.006701578386127949
1783003409085376800,0.667376708984375,-0.00009853696246864274,0.006619286723434925,0.004418184049427509
1783003409095428900,0.677428955078125,-0.005373992491513491,0.0023758059833198786,0.006442452780902386
1783003409105480000,0.68747998046875,-0.0031305458396673203,0.0036850159522145987,0.006709834095090628
1783003409115530800,0.69753076171875,-0.004421912599354982,0.004447745159268379,0.010340788401663303
1783003409125581800,0.707581787109375,-0.003750795964151621,0.007740743923932314,0.00989470910280943
1783003409135634000,0.717634033203125,-0.005060538649559021,0.005989449098706245,0.007123955991119146
1783003409145685000,0.72768505859375,-0.00458649592474103,0.00498144282028079,0.006216883193701506
1783003409155735800,0.73773583984375,-0.005471730604767799,0.003667971817776561,0.008463259786367416
1783003409165786600,0.74778662109375,-0.004218447022140026,0.0062736086547374725,0.007172957994043827
1783003409175837700,0.757837646484375,-0.0032032502349466085,0.004299940075725317,0.00833729188889265
1783003409185890000,0.76789013671875,-0.005043494515120983,0.005790777504444122,0.008784436620771885
1783003409195940600,0.777940673828125,-0.0026610305067151785,0.0020458402577787638,0.005103681702166796
1783003409205991700,0.78799169921875,-0.003674363251775503,0.0015342470724135637,0.011061972007155418
1783003409216042800,0.798042724609375,-0.005687446799129248,0.0029023129027336836,0.009977532550692558
1783003409226094800,0.8080947265625,-0.003629089565947652,0.002856240142136812,0.008471248671412468
1783003409236145700,0.818145751953125,-0.0054243262857198715,0.0065436530858278275,0.00950748473405838
1783003409246196700,0.82819677734375,-0.002972354181110859,0.005105013493448496,0.011037204414606094
1783003409256247800,0.838247802734375,-0.0020306603983044624,0.0032980586402118206,0.008266984485089779
1783003409266299600,0.848299560546875,-0.0037121803034096956,0.0041212416253983974,0.007215302437543869
1783003409276350700,0.858350830078125,-0.0038962047547101974,0.006228601094335318,0.007564442697912455
1783003409286401800,0.86840185546875,-0.004889297299087048,0.004584365524351597,0.00914343073964119
1783003409296452900,0.878452880859375,-0.0030834078788757324,0.004274107050150633,0.007790278643369675
1783003409306504700,0.888504638671875,-0.0049460227601230145,0.005736182443797588,0.008043811656534672
1783003409316555800,0.8985556640625,-0.0038482677191495895,0.003145193215459585,0.009788182564079762
1783003409326606800,0.90860693359375,-0.0031230889726430178,0.0041731735691428185,0.009297361597418785
1783003409336657700,0.91865771484375,-0.0027244137600064278,0.0026296053547412157,0.005136172287166119
1783003409346709800,0.928709716796875,-0.006413957104086876,0.005859220866113901,0.010213222354650497
1783003409356760800,0.9387607421875,-0.004772118292748928,0.0017896442441269755,0.007927165366709232
1783003409366811600,0.948811767578125,-0.0031523837242275476,0.001088433898985386,0.007112504448741674
1783003409376862700,0.95886279296875,-0.004001932218670845,0.004232561681419611,0.003718305379152298
1783003409386914800,0.968914794921875,-0.0026399914640933275,0.003240001853555441,0.007449127733707428
1783003409396965600,0.978965576171875,-0.0038219024427235126,0.004768123384565115,0.01071229949593544
1783003409407016700,0.9890166015625,-0.003822967642918229,0.005416603293269873,0.006716758478432894
1783003409417067800,0.99906787109375,-0.002621615771204233,0.004397145472466946,0.007947671227157116
1783003409427119600,1.00911962890625,-0.002290584845468402,0.002459961920976639,0.009521599858999252
1783003409437170700,1.019170654296875,-0.005243231542408466,0.006133792456239462,0.008327704854309559
1783003409447221800,1.0292216796875,-0.004424842074513435,0.004198207054287195,0.008555404841899872
1783003409457272800,1.03927294921875,-0.004863731097429991,0.005115932319313288,0.010186591185629368
1783003409467324700,1.04932470703125,-0.0029470541048794985,0.0009366337326355278,0.007665110286325216
1783003409477375700,1.059375732421875,-0.003528155852109194,0.0009030779474414885,0.005452556069940329
1783003409487426800,1.0694267578125,-0.0036967338528484106,0.0026735474821180105,0.00875008199363947
1783003409497478000,1.079477783203125,-0.006084524095058441,0.004677043296396732,0.007406783755868673
1783003409507529700,1.08952978515625,-0.0038402783684432507,0.005405950825661421,0.007761250250041485
1783003409517580800,1.099580810546875,-0.0027923244051635265,0.005519134923815727,0.00884835235774517
1783003409527632000,1.1096318359375,-0.005803560372442007,0.007065632846206427,0.00609384523704648
1783003409537682700,1.1196826171875,-0.0016929714474827051,0.006894657853990793,0.009423862211406231
1783003409547734800,1.12973486328125,-0.0036911412607878447,0.006343916058540344,0.00774766830727458
1783003409557785900,1.139785888671875,-0.002739860210567713,0.0076392777264118195,0.010148507542908192
1783003409567836700,1.149836669921875,-0.004993959795683622,0.005708485841751099,0.006638994440436363
1783003409577887700,1.1598876953125,-0.004652542527765036,0.004904743749648333,0.009279784746468067
1783003409587939800,1.16993994140625,-0.0035265579354017973,0.0021917815320193768,0.007454720325767994
1783003409597990700,1.17999072265625,-0.0052024852484464645,0.004658135119825602,0.007574828807264566
1783003409608041700,1.190041748046875,-0.0046546729281544685,0.002800047630444169,0.004351338837295771
1783003409618092800,1.2000927734375,-0.005702893249690533,0.0031076427549123764,0.009623066522181034
1783003409628144600,1.21014453125,-0.004376106429845095,0.0038511971943080425,0.009005213156342506
1783003409638195700,1.22019580078125,-0.006788664031773806,0.002261290093883872,0.006797985173761845
1783003409648246800,1.230246826171875,-0.003941211849451065,0.006960703991353512,0.008583900518715382
1783003409658297900,1.2402978515625,-0.003381948219612241,0.007000918034464121,0.01098394114524126
1783003409668349700,1.250349609375,-0.0044408212415874004,0.006564159411936998,0.008168714120984077
1783003409678400800,1.26040087890625,-0.003257312346249819,0.002935868687927723,0.00663393409922719
1783003409688451800,1.270451904296875,-0.004609931726008654,0.0018884475575760007,0.0051995557732880116
1783003409698502700,1.280502685546875,-0.0038285604678094387,0.0028032432310283184,0.007140467409044504
1783003409708554800,1.2905546875,-0.004701278172433376,0.003294330323114991,0.006197708658874035
1783003409718605800,1.300605712890625,-0.004355067387223244,0.003453853540122509,0.009680324234068394
1783003409728657000,1.310656982421875,-0.004508465528488159,0.004449609667062759,0.007728226948529482
1783003409738707700,1.320707763671875,-0.005067729391157627,0.002965696156024933,0.006012618541717529
1783003409748759800,1.330759765625,-0.005687979515641928,0.0043926178477704525,0.005678392015397549
1783003409758811000,1.340810791015625,-0.0052136704325675964,0.00549250328913331,0.008472580462694168
1783003409768861700,1.35086181640625,-0.004771319217979908,0.00734260119497776,0.0067969197407364845
1783003409778912800,1.360912841796875,-0.003023486817255616,0.007488009985536337,0.008608668111264706
1783003409788964900,1.37096484375,-0.006853645201772451,0.005426457151770592,0.006424077320843935
1783003409799015700,1.381015625,-0.005294098053127527,0.0033920682035386562,0.00606534956023097
1783003409809066800,1.391066650390625,-0.004236822947859764,0.002793389605358243,0.007414773106575012
1783003409819117800,1.401117919921875,-0.003442135639488697,0.0037236318457871675,0.007426757365465164
1783003409829169700,1.411169677734375,-0.0026402578223496675,0.003978230059146881,0.010977549478411674
1783003409839220700,1.421220703125,-0.002683933824300766,0.00398648576810956,0.009650496765971184
1783003409849271800,1.431271728515625,-0.004480768460780382,0.003976898267865181,0.008288822136819363
1783003409859323000,1.441322998046875,-0.004254133440554142,0.0033984598703682423,0.007681355345994234
1783003409869374700,1.451374755859375,-0.0054765245877206326,0.00404480891302228,0.006247509736567736
1783003409879425800,1.46142578125,-0.004354268312454224,0.00723394425585866,0.011089136824011803
1783003409889476900,1.471476806640625,-0.0028399948496371508,0.0054581486620008945,0.00657534459605813
1783003409899527700,1.481527587890625,-0.0037265613209456205,0.004911135416477919,0.009285377338528633
1783003409909579000,1.4915791015625,-0.004151335451751947,0.0041579934768378735,0.007808121852576733
1783003409919630000,1.501630126953125,-0.003768905531615019,0.006480802316218615,0.006342317909002304
1783003409929681200,1.51168115234375,-0.00552126532420516,0.0022631543688476086,0.00977486651390791
1783003409939732000,1.52173193359375,-0.0038458709605038166,0.004533232655376196,0.007620635442435741
1783003409949784000,1.5317841796875,-0.00446931691840291,0.0007877630414441228,0.006391853094100952
1783003409959835100,1.541835205078125,-0.003179814200848341,0.002829608740285039,0.0058669438585639
1783003409969886000,1.551885986328125,-0.0051966262981295586,0.002685797866433859,0.00833782460540533
1783003409979937000,1.56193701171875,-0.004451740067452192,0.0037590519059449434,0.006332464516162872
1783003409989988000,1.571988037109375,-0.005819273181259632,0.019164107739925385,0.012416988611221313
1783003410000040000,1.5820400390625,-0.01079645473510027,0.10780662298202515,0.0499449223279953
1783003410010091000,1.592091064453125,-0.006791859865188599,0.14427222311496735,0.06950051337480545
1783003410020142000,1.60214208984375,-0.0010524812387302518,-0.0407375767827034,0.007318366784602404
1783003410030193200,1.612193115234375,-0.0007904262165538967,0.05585527420043945,0.0260478463023901
1783003410040245000,1.622244873046875,-0.0022567627020180225,-0.030045516788959503,0.004532966297119856
1783003410050296000,1.632296142578125,-0.00871998816728592,0.025010278448462486,0.014240454882383347
1783003410060347100,1.64234716796875,-0.006434996146708727,-0.01864958368241787,0.004565989598631859
1783003410070398200,1.652398193359375,-0.008731706067919731,-0.0056949034333229065,0.0001531317684566602
1783003410080450000,1.662449951171875,-0.004884770140051842,-0.07747295498847961,-0.02828703075647354
1783003410090501000,1.672501220703125,-0.007062703371047974,-0.11404801160097122,-0.04273707792162895
1783003410100552200,1.68255224609375,-0.0008146609761752188,-0.06272809952497482,-0.020739100873470306
1783003410110603000,1.69260302734375,-0.0030924626626074314,0.03009079024195671,0.015504923649132252
1783003410120655000,1.702655029296875,-0.004797152243554592,0.10979866981506348,0.051895953714847565
1783003410130706200,1.7127060546875,-0.002359827049076557,0.13256070017814636,0.06263408809900284
1783003410140757000,1.722757080078125,-0.00660517206415534,0.06888532638549805,0.033418942242860794
1783003410150808000,1.73280810546875,-0.0029377329628914595,-0.018204037100076675,0.005691175349056721
1783003410160860200,1.742860107421875,-0.002496979897841811,0.030193587765097618,0.015751799568533897
1783003410170911000,1.752910888671875,-0.0036706349346786737,-0.014282000251114368,0.0049135321751236916
1783003410180962000,1.762962158203125,-0.0066650933586061,0.016343019902706146,0.007266168482601643
1783003410191013000,1.77301318359375,-0.0027321369852870703,-0.010046509094536304,0.006019809283316135
1783003410201065000,1.78306494140625,-0.006656304933130741,0.002971555106341839,0.0057471017353236675
1783003410211116000,1.793115966796875,-0.0028511802665889263,-0.0024405207950621843,0.003719370812177658
1783003410221167000,1.8031669921875,-0.005079979542642832,-0.020067451521754265,-0.004533765371888876
1783003410231218200,1.81321826171875,-0.0028868666850030422,-0.007155381143093109,0.0030892668291926384
1783003410241270000,1.82327001953125,-0.0038898130878806114,0.02455008402466774,0.016569921746850014
1783003410251321000,1.833321044921875,-0.003719370812177658,0.04424096271395683,0.025106951594352722
1783003410261372200,1.8433720703125,-0.004535097163170576,-0.0022740731947124004,0.001272990950383246
1783003410271423000,1.853423095703125,-0.006726878695189953,0.0025481125339865685,0.005233644042164087
1783003410281475000,1.86347509765625,-0.004555603489279747,0.006850981619209051,0.007605188991874456
1783003410291526100,1.873526123046875,-0.0040823593735694885,0.003959587775170803,0.008607336319983006
1783003410301577200,1.8835771484375,-0.003849865635856986,0.0012503541074693203,0.008094677701592445
1783003410311628000,1.8936279296875,-0.0032317459117621183,-0.0006828344776295125,0.006853911560028791
1783003410321680100,1.90368017578125,-0.00455879932269454,0.005717274267226458,0.009664079174399376
1783003410331731200,1.913731201171875,-0.003690076060593128,0.002810700098052621,0.006305832881480455
1783003410341782000,1.923781982421875,-0.0033848776947706938,0.006649646908044815,0.009530920535326004
1783003410351833000,1.9338330078125,-0.004218713380396366,0.00261841993778944,0.0064957160502672195
1783003410361885200,1.94388525390625,-0.006740194279700518,0.006421946454793215,0.007970042526721954
1783003410371936000,1.95393603515625,-0.004223507363349199,0.0027353328187018633,0.00890960544347763
1783003410381987000,1.963987060546875,-0.00048363005043938756,0.007285609841346741,0.009227320551872253
1783003410392038100,1.9740380859375,-0.003890611929818988,0.004511128645390272,0.007397995330393314
1783003410402089200,1.984089111328125,-0.0027888622134923935,0.005373460240662098,0.008272843435406685
1783003410412141000,1.99414111328125,-0.003023220458999276,0.003871171036735177,0.006108758971095085
1783003410422192000,2.004192138671875,-0.003296727081760764,0.0065199509263038635,0.007296795025467873
1783003410432243200,2.0142431640625,-0.0038719698786735535,0.007446997333317995,0.00598545465618372
1783003410442294000,2.0242939453125,-0.0022029669489711523,0.0039009982720017433,0.006155097857117653
1783003410452346000,2.03434619140625,-0.004568386357277632,0.0011033476330339909,0.006848052144050598
1783003410462397200,2.044397216796875,-0.0052352421917021275,0.0007853662245906889,0.005857356358319521
1783003410472448000,2.054447998046875,-0.0028093685396015644,-0.0028493159916251898,0.00589623861014843
1783003410482499000,2.0644990234375,-0.005846437532454729,-0.006139385048300028,0.004225371405482292
1783003410492551200,2.07455126953125,-0.006337524391710758,-0.04176928475499153,-0.00868989434093237
1783003410502602000,2.08460205078125,-0.005628857295960188,-0.0515204481780529,-0.012530439533293247
1783003410512653000,2.094653076171875,-0.005853095557540655,-0.02684253267943859,-0.005375057924538851
1783003410522704100,2.1047041015625,-0.008738097734749317,0.0017768610268831253,0.011152253486216068
1783003410532756000,2.114755859375,-0.005201153457164764,0.0004170510219410062,0.004935636185109615
1783003410542807000,2.12480712890625,-0.008464325219392776,-0.017645839601755142,0.0007344998302869499
1783003410552858000,2.134858154296875,-0.0007025419035926461,0.025917084887623787,0.01450171135365963
1783003410562909200,2.1449091796875,-0.005961219780147076,0.022976422682404518,0.017663149163126945
1783003410572961000,2.1549609375,-0.0011536814272403717,0.002213619416579604,0.004604339133948088
1783003410583012000,2.16501220703125,-0.005142297595739365,-0.008946357294917107,0.0037148434203118086
1783003410593063200,2.175063232421875,-0.0017291904659941792,-0.0063785370439291,0.0025923210196197033
1783003410603114000,2.185114013671875,-0.005986253265291452,0.0038059235084801912,0.007547931279987097
1783003410613166000,2.195166015625,-0.004095675423741341,0.003655987558886409,0.006696518510580063
1783003410623217200,2.205217041015625,-0.003507116809487343,-0.007949535734951496,-0.0001597896625753492
1783003410633268200,2.215268310546875,-0.002406698651611805,-0.0036727653350681067,0.0030186930671334267
1783003410643318800,2.22531884765625,-0.0037878139410167933,0.02081686444580555,0.012913667596876621
1783003410653371100,2.23537109375,-0.0034562505315989256,0.01744130812585354,0.0105314701795578
1783003410663422200,2.245422119140625,-0.005649896338582039,-0.012348811142146587,0.0022570290602743626
1783003410673473000,2.25547314453125,-0.006073605269193649,-0.01745222695171833,-0.0005994775565341115
1783003410683523800,2.26552392578125,-0.0040796962566673756,0.0138966403901577,0.011481686495244503
1783003410693575000,2.275574951171875,-0.005090632475912571,0.03518488630652428,0.021618742495775223
1783003410703627000,2.285626953125,-0.0028937908355146646,0.025916552171111107,0.01577470265328884
1783003410713678000,2.295677978515625,-0.002828276949003339,-0.0036514601670205593,0.0070371367037296295
1783003410723729000,2.30572900390625,-0.0028722193092107773,-0.02244911715388298,-0.00010359696898376569
1783003410733780000,2.315780029296875,-0.0007337008719332516,-0.024937307462096214,-0.003725496120750904
1783003410743832000,2.32583203125,-0.001100950757972896,-0.007509581744670868,0.0027377295773476362
1783003410753883100,2.335883056640625,-0.0052176653407514095,0.017046362161636353,0.013482519425451756
1783003410763934000,2.345933837890625,-0.0046506780199706554,0.03098667785525322,0.02100142277777195
1783003410773985000,2.355985107421875,-0.004769188817590475,0.0027654264122247696,0.009978065267205238
1783003410784037000,2.366037109375,-0.006834736559540033,-0.01122282724827528,0.0037297571543604136
1783003410794088200,2.376088134765625,-0.006116748321801424,0.00749014038592577,0.006370814051479101
1783003410804139000,2.386138916015625,-0.004793423693627119,0.017900170758366585,0.01408465951681137
1783003410814189800,2.39618994140625,-0.005571066867560148,0.013226855546236038,0.01161324605345726
1783003410824242200,2.4062421875,-0.002252768026664853,0.008896023035049438,0.00957086868584156
1783003410834293000,2.41629296875,-0.00571860559284687,0.01780083402991295,0.011718973517417908
1783003410844343800,2.42634375,-0.005120726302266121,0.024698421359062195,0.018131066113710403
1783003410854395000,2.436394775390625,-0.005015264730900526,0.030182136222720146,0.018062090501189232
1783003410864447200,2.446447265625,-0.002460228279232979,0.04062865301966667,0.022591594606637955
1783003410874497800,2.456497802734375,-0.0036706349346786737,0.03278804197907448,0.020009661093354225
1783003410884548900,2.466548828125,-0.0028644960839301348,0.021340709179639816,0.015083878301084042
1783003410894600000,2.476599853515625,-0.005331914871931076,0.01618429645895958,0.01176531333476305
1783003410904652000,2.486652099609375,-0.004372111521661282,0.025717347860336304,0.015932893380522728
1783003410914703600,2.49670361328125,-0.0019595539197325706,0.0024642229545861483,0.008971656672656536
1783003410924754700,2.506754638671875,-0.003198190126568079,0.012655607424676418,0.012040417641401291
1783003410934805500,2.516805419921875,-0.007933557033538818,0.0027145601343363523,0.005036570131778717
1783003410944856300,2.526856201171875,-0.0040914141573011875,0.009455020539462566,0.009549296461045742
1783003410954908700,2.53690869140625,-0.003368099918588996,0.0037955371662974358,0.006858438719063997
1783003410964959700,2.546959716796875,-0.005050684791058302,0.006869890261441469,0.0060203419998288155
1783003410975010300,2.55701025390625,-0.003855191869661212,0.00469435378909111,0.006088785361498594
1783003410985061400,2.567061279296875,-0.0037646444980055094,0.003026682650670409,0.006084524095058441
1783003410995113700,2.57711376953125,-0.00612313998863101,0.003507383167743683,0.006392385344952345
1783003411005164500,2.58716455078125,-0.003946538548916578,0.004553472623229027,0.007771636825054884
1783003411015215400,2.59721533203125,-0.004719387739896774,0.0033100428991019726,0.007125820033252239
1783003411025266400,2.607266357421875,-0.005033107940107584,0.002201635157689452,0.009303486905992031
1783003411035318500,2.617318603515625,-0.0026610305067151785,0.0021084246691316366,0.006984139792621136
1783003411045369600,2.62736962890625,-0.0027164241764694452,0.002983805723488331,0.007407582364976406
1783003411055420400,2.63742041015625,-0.003941478207707405,0.0038751657120883465,0.010101103223860264
1783003411065471500,2.647471435546875,-0.002587793627753854,0.0036048549227416515,0.006476807873696089
1783003411075523600,2.657523681640625,-0.006867227144539356,0.0057345847599208355,0.006219546310603619
1783003411085574400,2.667574462890625,-0.004340686369687319,0.001163268811069429,0.009747968055307865
1783003411095625500,2.67762548828125,-0.0057007623836398125,0.002417883835732937,0.00891146995127201
1783003411105676300,2.68767626953125,-0.002490055514499545,0.0046906257048249245,0.00815033819526434
1783003411115728600,2.697728759765625,-0.0038421424105763435,0.006942594423890114,0.007423827890306711
1783003411125779500,2.707779541015625,-0.0032264196779578924,0.004625111818313599,0.006135923322290182
1783003411135830500,2.71783056640625,-0.005396896041929722,0.004733502399176359,0.009660083800554276
1783003411145881300,2.72788134765625,-0.004216316621750593,0.0017134778900071979,0.009350358508527279
1783003411155933700,2.73793359375,-0.0044322991743683815,0.003103115363046527,0.008200138807296753
1783003411165984500,2.747984619140625,-0.004577707499265671,0.001728391507640481,0.006442985497415066
1783003411176035300,2.758035400390625,-0.005052016582340002,0.003276220755651593,0.0061508365906775
1783003411186086400,2.76808642578125,-0.0031076427549123764,0.006476807873696089,0.005573197267949581
1783003411196138500,2.778138427734375,-0.0029875340405851603,0.005283711478114128,0.007331149652600288
1783003411206189300,2.788189208984375,-0.005818740464746952,0.003547064261510968,0.005660016089677811
1783003411216240400,2.798240478515625,-0.003668504301458597,0.005193963181227446,0.00881799217313528
1783003411226291500,2.80829150390625,-0.005995041690766811,0.004289287142455578,0.006993194576352835
1783003411236342500,2.818342529296875,-0.002100701443850994,0.002691923175007105,0.004803809802979231
1783003411246394400,2.828394287109375,-0.004375307355076075,0.0030956584960222244,0.00817963294684887
1783003411256445400,2.838445556640625,-0.0017265273490920663,0.004006725735962391,0.009587380103766918
1783003411266496500,2.84849658203125,-0.00430260319262743,0.006381999235600233,0.007869907654821873
1783003411276547300,2.85854736328125,-0.005715143866837025,0.005212604999542236,0.007046990562230349
1783003411286599400,2.868599365234375,-0.002046639332547784,0.003373958868905902,0.00791704561561346
1783003411296650500,2.878650390625,-0.004205664154142141,0.0034269557800143957,0.00803262647241354
1783003411306701300,2.888701416015625,-0.0030250847339630127,0.006644054315984249,0.007469367701560259
1783003411316752400,2.89875244140625,-0.0033534523099660873,0.005007808096706867,0.008043012581765652
1783003411326804500,2.908804443359375,-0.005279450677335262,0.007993211969733238,0.009985522367060184
1783003411336855300,2.918855224609375,-0.004505269695073366,0.004224838688969612,0.009210809133946896
1783003411346906400,2.92890625,-0.005549495108425617,0.0031670311000198126,0.010130930691957474
1783003411356957400,2.93895751953125,-0.004068511072546244,0.001702026231214404,0.005252552684396505
1783003411367009300,2.94900927734375,-0.002674346324056387,0.0038093857001513243,0.007383613847196102
1783003411377060400,2.959060302734375,-0.002784601179882884,0.004400873556733131,0.008199607022106647
1783003411387111400,2.969111328125,-0.0016921724891290069,0.001662877737544477,0.008075237274169922
1783003411397162500,2.97916259765625,-0.00395799009129405,0.0008303736103698611,0.005693838465958834
1783003411407214300,2.98921435546875,-0.0041734399273991585,0.005483448505401611,0.008650213479995728
1783003411417265400,2.999265380859375,-0.005635248962789774,0.007845140062272549,0.009645969606935978
1783003411427316500,3.00931640625,-0.004614459350705147,0.006127933505922556,0.009728793986141682
1783003411437367600,3.019367431640625,-0.0046874298714101315,0.00637933611869812,0.0076422072015702724
1783003411447418400,3.02941845703125,-0.004968393128365278,0.0049436260014772415,0.008776713162660599
1783003411457470500,3.039470458984375,-0.003888215171173215,0.005114334635436535,0.007093063089996576
1783003411467521500,3.049521484375,-0.006774548906832933,0.004595817066729069,0.009148756973445415
1783003411477572400,3.059572265625,-0.004448277875781059,0.005769738461822271,0.00839721318334341
1783003411487623400,3.06962353515625,-0.006593720521777868,0.005881591234356165,0.007821970619261265
1783003411497675500,3.079675537109375,-0.0020623519085347652,0.002924150787293911,0.006675479467958212
1783003411507726300,3.089726318359375,-0.00558012118563056,0.0059774648398160934,0.007984955795109272
1783003411517777400,3.09977734375,-0.005283178761601448,0.005976399872452021,0.006126069463789463
1783003411527828500,3.109828369140625,-0.004524976946413517,0.004034689161926508,0.007846205495297909
1783003411537880300,3.11988037109375,-0.004600078333169222,0.0046882289461791515,0.01125372014939785
1783003411547931400,3.129931396484375,-0.005958290304988623,0.003963316325098276,0.007864315062761307
1783003411557982500,3.139982421875,-0.005092762876302004,0.00433163158595562,0.010034258477389812
1783003411568033500,3.150033447265625,-0.00347435986623168,0.005680788774043322,0.010421215556561947
1783003411578085400,3.16008544921875,-0.0046690539456903934,0.00299259414896369,0.009163404814898968
1783003411588136400,3.170136474609375,-0.003935087006539106,0.003203782718628645,0.0067481836304068565
1783003411598187500,3.1801875,-0.0035079156514257193,0.00072597770486027,0.0041673146188259125
1783003411608238300,3.19023828125,-0.004580370616167784,-0.0025774072855710983,0.009475527331233025
1783003411618289400,3.200289306640625,-0.005785451270639896,0.004442685283720493,0.007100253831595182
1783003411628341500,3.210341552734375,-0.002148105762898922,-0.001389637473039329,0.007218764163553715
1783003411638392600,3.220392578125,-0.004097007215023041,0.0014194648247212172,0.008823052980005741
1783003411648443400,3.230443359375,-0.00435986090451479,0.0029403960797935724,0.007337008602917194
1783003411658494500,3.240494384765625,-0.003500991500914097,0.0046389601193368435,0.007209177128970623
1783003411668546600,3.250546630859375,-0.0015550197567790747,0.002793922321870923,0.008976184763014317
1783003411678597400,3.260597412109375,-0.004697549622505903,0.003412308171391487,0.008953547105193138
1783003411688648400,3.2706484375,-0.0046477485448122025,0.003209908027201891,0.007614243775606155
1783003411698699500,3.280699462890625,-0.0017451694002375007,0.0020501012913882732,0.007521831896156073
1783003411708751400,3.29075146484375,-0.002895655110478401,0.004156128969043493,0.009439574554562569
1783003411718802400,3.300802490234375,-0.006880809087306261,0.000943025341257453,0.006383064668625593
1783003411728853500,3.310853515625,-0.005087969359010458,-0.0016194682102650404,0.004372910596430302
1783003411738904600,3.320904541015625,-0.003659449517726898,-0.00612393906340003,0.002829076023772359
1783003411748956400,3.330956298828125,-0.0041401502676308155,-0.044869471341371536,-0.013146162033081055
1783003411759007500,3.341007568359375,-0.003522296901792288,-0.04440847784280777,-0.011174890212714672
1783003411769058600,3.35105859375,-0.0028298748657107353,-0.0044080642983317375,0.002975283656269312
1783003411779109400,3.361109375,-0.003300189273431897,0.030858047306537628,0.017244501039385796
1783003411789160400,3.371160400390625,-0.007339938078075647,0.025071531534194946,0.01811269111931324
1783003411799212500,3.381212646484375,-0.0066637615673244,-0.0038546593859791756,0.005767075344920158
1783003411809263400,3.391263427734375,-0.0034176346380263567,-0.012175706215202808,0.0018152105621993542
1783003411819314400,3.401314453125,-0.00404480891302228,0.02510242350399494,0.015600531361997128
1783003411829365500,3.411365478515625,-0.004261057823896408,0.04838084802031517,0.026142122223973274
1783003411839417300,3.421417236328125,-0.00392762990668416,0.03867122903466225,0.023490678519010544
1783003411849468400,3.431468505859375,-0.0038509308360517025,0.021454691886901855,0.012853747233748436
1783003411859519500,3.44151953125,-0.0028778119012713432,0.004740426782518625,0.008776979520916939
1783003411869570600,3.451570556640625,-0.004249872639775276,0.014908641576766968,0.011700332164764404
1783003411879622400,3.461622314453125,-0.003916444722563028,0.002558498876169324,0.011186075396835804
1783003411889673500,3.471673583984375,-0.00782756321132183,0.01401754841208458,0.012179700657725334
1783003411899724500,3.481724609375,-0.003031742526218295,0.0018660769565030932,0.007502124644815922
1783003411909775400,3.491775390625,-0.003970772959291935,0.00887844618409872,0.007963917218148708
1783003411919827200,3.5018271484375,-0.005191300064325333,0.004253600724041462,0.005134308245033026
1783003411929878300,3.511878173828125,-0.0033894050866365433,0.006749781779944897,0.008104532025754452
1783003411939929300,3.521929443359375,-0.00504029868170619,0.0034314829390496016,0.007523696403950453
1783003411949980200,3.531980224609375,-0.0037526602391153574,0.005787581671029329,0.009675797075033188
1783003411960031200,3.54203125,-0.0037446708884090185,0.004315918777137995,0.00971654336899519
1783003411970083300,3.552083251953125,-0.0025278725661337376,0.0000857537888805382,0.0062547000125050545
1783003411980134100,3.562134033203125,-0.002983539365231991,0.002526274649426341,0.007214769721031189
1783003411990185200,3.572185302734375,-0.004619519226253033,-0.0003475425182841718,0.007932757958769798
1783003412000236300,3.582236328125,-0.00424374733120203,0.0030085730832070112,0.00669465446844697
1783003412010288000,3.5922880859375,-0.0027438548859208822,-0.0003656520275399089,0.00672181835398078
1783003412020339200,3.602339111328125,-0.004150536376982927,0.0003552656853571534,0.006900783162564039
1783003412030390300,3.612390380859375,-0.004021905828267336,0.0034469293896108866,0.009274991229176521
1783003412040441300,3.62244140625,-0.0035033884923905134,0.0034820830915123224,0.007833688519895077
1783003412050493200,3.6324931640625,-0.005119660869240761,0.004655738361179829,0.007808654569089413
1783003412060544300,3.642544189453125,-0.003166498616337776,0.00487278588116169,0.011011638678610325
1783003412070595300,3.65259521484375,-0.0034072482958436012,0.0030985879711806774,0.007191333919763565
1783003412080646400,3.662646484375,-0.006376939360052347,0.004621915984898806,0.008056594990193844
1783003412090698200,3.6726982421875,-0.00444055488333106,0.007685616612434387,0.006039250176399946
1783003412100749300,3.682749267578125,-0.004769188817590475,0.004120708908885717,0.008347944356501102
1783003412110800400,3.69280029296875,-0.00413509039208293,0.0036107138730585575,0.0037286917213350534
1783003412120851200,3.702851318359375,-0.004893558565527201,0.0027776770293712616,0.0086041409522295
1783003412130902300,3.71290234375,-0.004507932811975479,0.006623547989875078,0.007280283607542515
1783003412140954400,3.722954345703125,-0.0010996191995218396,0.006547914352267981,0.00615243474021554
1783003412151005200,3.733005126953125,-0.005586512852460146,0.004854409955441952,0.006177734583616257
1783003412161056300,3.74305615234375,-0.0037057886365801096,0.0068025123327970505,0.007851798087358475
1783003412171107300,3.753107421875,-0.0026439863722771406,0.003285009181126952,0.01013678964227438
1783003412181159200,3.7631591796875,-0.0054879761300981045,0.002429868094623089,0.00509995361790061
1783003412191210200,3.773210205078125,-0.002947586588561535,0.005482915788888931,0.008859537541866302
1783003412201261300,3.78326123046875,-0.006482666824012995,0.0089953588321805,0.008079764433205128
1783003412211312400,3.7933125,-0.004928978625684977,0.004396346397697926,0.007654723711311817
1783003412221364200,3.8033642578125,-0.002192846732214093,0.0021997711155563593,0.007203318178653717
1783003412231415300,3.813415283203125,-0.002865028567612171,0.007859254255890846,0.008298942819237709
1783003412241466400,3.82346630859375,-0.001871136948466301,0.004083424806594849,0.010520551353693008
1783003412251517200,3.83351708984375,-0.0015654060989618301,0.0030248183757066727,0.00933011807501316
1783003412261568300,3.843568359375,-0.004795021377503872,0.007108243182301521,0.008330900222063065
1783003412271620400,3.853620361328125,-0.002567553659901023,0.004957474302500486,0.008951683528721333
1783003412281671200,3.863671142578125,-0.005151352379471064,0.0054576159454882145,0.005328719038516283
1783003412291722200,3.87372216796875,-0.0057532270438969135,0.006161755882203579,0.008707737550139427
1783003412301773300,3.883773193359375,-0.005224322900176048,0.004166781902313232,0.010602843016386032
1783003412311825200,3.8938251953125,-0.004078364931046963,0.003829359309747815,0.008480037562549114
1783003412321876200,3.903876220703125,-0.0041497377678751945,0.0016828514635562897,0.003594468580558896
1783003412331927300,3.91392724609375,-0.004035487771034241,0.0029025792609900236,0.009119994938373566
1783003412341978400,3.923978271484375,-0.006046440917998552,0.004004062619060278,0.00635030772536993
1783003412352030200,3.9340302734375,-0.003082609036937356,0.004137753508985043,0.010153568349778652
1783003412362081300,3.944081298828125,-0.00430207047611475,0.0052323127165436745,0.008687764406204224
1783003412372132400,3.95413232421875,-0.0016647420125082135,0.003019491909071803,0.002810966456308961
1783003412382183400,3.964183349609375,-0.002171541564166546,0.005090099759399891,0.007412109989672899
1783003412392235300,3.9742353515625,-0.004058124963194132,0.0029755497816950083,0.006193713750690222
1783003412402286300,3.984286376953125,-0.0032117723021656275,0.0031649006996303797,0.007918376475572586
1783003412412337400,3.99433740234375,-0.0020690099336206913,0.0027984497137367725,0.006874417886137962
1783003412422388200,4.00438818359375,-0.004078098572790623,0.007194263394922018,0.010782873257994652
1783003412432439300,4.014439208984375,-0.0038136467337608337,0.004369182046502829,0.007798534352332354
1783003412442491400,4.024491455078125,-0.00669278996065259,0.002645051572471857,0.007626760751008987
1783003412452542200,4.034542236328125,-0.005112736485898495,0.0030184267088770866,0.006579073145985603
1783003412462593300,4.04459326171875,-0.0026431872975081205,0.0041558630764484406,0.008874451741576195
1783003412472644400,4.054644287109375,-0.0038426751270890236,0.0026069683954119682,0.007291468791663647
1783003412482696200,4.0646962890625,-0.004705006722360849,0.002514290390536189,0.00993279181420803
1783003412492747300,4.074747314453125,-0.006746585946530104,0.004857073072344065,0.008673116564750671
1783003412502798300,4.08479833984375,-0.003790477057918906,0.0029028456192463636,0.00890747457742691
1783003412512849400,4.094849365234375,-0.003993676509708166,0.0038120488170534372,0.0075964005663990974
1783003412522901200,4.1049013671875,-0.006608634255826473,0.004780107643455267,0.009786051698029041
1783003412532952300,4.114952392578125,-0.005624329671263695,0.005495699122548103,0.008758338168263435
1783003412543003400,4.12500341796875,-0.0032775523141026497,0.003772634081542492,0.006986536551266909
1783003412553054200,4.13505419921875,-0.003072755178436637,0.006651777308434248,0.008381500840187073
1783003412563106300,4.145106201171875,-0.004741758108139038,0.005913815461099148,0.01044225413352251
1783003412573157400,4.155157470703125,-0.003023753175511956,0.00646748673170805,0.00999218039214611
1783003412583208400,4.16520849609375,-0.005124454386532307,0.00330311874859035,0.00911227148026228
1783003412593259300,4.17525927734375,-0.0027023095171898603,0.005832589231431484,0.008835037238895893
1783003412603310300,4.185310302734375,-0.003878627670928836,0.005673332139849663,0.00720411678776145
1783003412613362400,4.195362548828125,-0.0043622576631605625,0.0031848743092268705,0.005642439238727093
1783003412623413200,4.205413330078125,-0.0037502634804695845,0.0035981968976557255,0.009560215286910534
1783003412633464300,4.21546435546875,-0.005860552191734314,0.001961684552952647,0.00818123109638691
1783003412643515400,4.225515380859375,-0.0016402408946305513,0.0030631679110229015,0.007435279432684183
1783003412653567200,4.235567138671875,-0.0019044264918193221,0.0024618261959403753,0.007171892561018467
1783003412663618300,4.245618408203125,-0.003382747294381261,0.0033129723742604256,0.007020358927547932
1783003412673669400,4.25566943359375,-0.003347327234223485,0.0022391858510673046,0.009247826412320137
1783003412683720400,4.265720458984375,-0.007919175550341606,0.003965979442000389,0.006530603393912315
1783003412693771300,4.275771240234375,-0.005152950529009104,0.0033816818613559008,0.007661914452910423
1783003412703823400,4.2858232421875,-0.004437625408172607,0.0031380027066916227,0.010933874174952507
1783003412713874400,4.29587451171875,-0.0049129994586110115,0.003477555699646473,0.008400408551096916
1783003412723925200,4.30592529296875,-0.007850999012589455,0.0027710190042853355,0.006586796138435602
1783003412733976300,4.315976318359375,-0.0030189594253897667,0.0036282907240092754,0.008788165636360645
1783003412744028400,4.3260283203125,-0.004253068007528782,0.001939846551977098,0.00612154183909297
1783003412754079200,4.336079345703125,-0.00509888818487525,0.002764893928542733,0.008730374276638031
1783003412764130300,4.34613037109375,-0.005603024736046791,0.004218713380396366,0.00824088603258133
1783003412774181400,4.356181396484375,-0.003427488263696432,0.0024341291282325983,0.006218214984983206
1783003412784233200,4.366233154296875,-0.0067838700488209724,0.002525475574657321,0.011064635589718819
1783003412794284300,4.3762841796875,-0.003561178920790553,0.0034615767654031515,0.007864315062761307
1783003412804335400,4.38633544921875,-0.0029028456192463636,-0.0020999026019126177,0.007017429452389479
1783003412814386400,4.396386474609375,-0.003308711340650916,-0.010142914950847626,0.0001728391507640481
1783003412824437500,4.4064375,-0.005179848056286573,-0.05270608887076378,-0.014007428660988808
1783003412834489300,4.4164892578125,-0.0033430662006139755,-0.014914234168827534,-0.001648230361752212
1783003412844540400,4.42654052734375,-0.003381948219612241,0.048828259110450745,0.02388296276330948
1783003412854591500,4.436591552734375,-0.006558300461620092,0.06602296233177185,0.03531138598918915
1783003412864642300,4.446642333984375,-0.004421379882842302,0.005882923025637865,0.004859203472733498
1783003412874694400,4.4566943359375,-0.008923187851905823,0.0001400822657160461,0.006898385938256979
1783003412884745500,4.466745361328125,-0.004811000544577837,0.010676346719264984,0.009699499234557152
1783003412894796300,4.47679638671875,-0.007390271872282028,0.00430020596832037,0.008595352061092854
1783003412904847400,4.486847412109375,-0.0025603631511330605,0.00646695401519537,0.010155964642763138
1783003412914900000,4.49689990234375,-0.002624811604619026,0.0020607539918273687,0.007453655358403921
1783003412924951000,4.506950927734375,-0.0032740901224315166,0.0035947347059845924,0.006355633959174156
1783003412935001900,4.517001953125,-0.0032290827948600054,0.0010154632618650794,0.007543137297034264
1783003412945053000,4.527052978515625,-0.004351605195552111,0.003885019337758422,0.00899908784776926
1783003412955105000,4.53710498046875,-0.005033107940107584,0.00555322365835309,0.007059507537633181
1783003412965156000,4.547156005859375,-0.0049375006929039955,0.003099919529631734,0.00649731419980526
1783003412975207000,4.55720703125,-0.004236822947859764,0.006579073145985603,0.010157030075788498
1783003412985258000,4.567258056640625,-0.0007896272582001984,0.003594202222302556,0.005620867945253849
1783003412995308800,4.577308837890625,-0.006884537637233734,0.006499977316707373,0.007029147353023291
1783003413005361200,4.587361083984375,-0.0028309402987360954,0.0032751555554568768,0.007928230799734592
1783003413015412000,4.597411865234375,-0.0032730249222368,0.00618199585005641,0.005092496518045664
1783003413025462800,4.607462890625,-0.0032530513126403093,0.0019036275334656239,0.008160457946360111
1783003413035513900,4.617513916015625,-0.001985120354220271,0.0049340385012328625,0.009070460684597492
1783003413045566200,4.627566162109375,-0.0031995216850191355,0.0017797905020415783,0.006705306936055422
1783003413055616800,4.63761669921875,-0.004606203176081181,0.0038743666373193264,0.007730624172836542
1783003413065667800,4.647667724609375,-0.00472498033195734,0.00564137427136302,0.006742857396602631
1783003413075719000,4.657718994140625,-0.00242107966914773,0.0016969662392511964,0.007809986360371113
1783003413085770000,4.66777001953125,-0.00344506511464715,0.0010338390711694956,0.006253368686884642
1783003413095821800,4.67782177734375,-0.003802194958552718,0.0022482406347990036,0.007273359224200249
1783003413105873000,4.687872802734375,-0.0033159018494188786,0.003375822911038995,0.007166566327214241
1783003413115924000,4.697924072265625,-0.007191333919763565,0.0013917679898440838,0.009215602651238441
1783003413125974800,4.707974853515625,-0.0033776871860027313,0.0005075985100120306,0.006440322380512953
1783003413136027000,4.71802685546875,-0.0044349622912704945,-0.0014559502014890313,0.008354336023330688
1783003413146078000,4.728077880859375,-0.0032439965289086103,0.002725212834775448,0.0054730623960494995
1783003413156128800,4.738128662109375,-0.00247567449696362,-0.001514273346401751,0.005204349290579557
1783003413166179800,4.748179931640625,-0.004210191313177347,-0.009439840912818909,0.0005158542771823704
1783003413176232000,4.75823193359375,-0.007476025726646185,0.005132177844643593,0.007849933579564095
1783003413186282800,4.76828271484375,-0.0063005066476762295,0.01607617177069187,0.012049738317728043
1783003413196333800,4.778333740234375,-0.0015456987312063575,0.013103284873068333,0.012135226279497147
1783003413206385000,4.788385009765625,-0.005441637244075537,0.011883823201060295,0.010908307507634163
1783003413216436000,4.79843603515625,-0.004569984506815672,0.006108758971095085,0.008449144661426544
1783003413226487800,4.80848779296875,-0.005334844347089529,0.003727093804627657,0.005310609471052885
1783003413236539000,4.818538818359375,-0.0044200485572218895,0.007674963679164648,0.007436610758304596
1783003413246590000,4.82858984375,-0.003043726785108447,0.004453337751328945,0.007068828213959932
1783003413256641000,4.83864111328125,-0.004235225263983011,0.012326174415647984,0.013085441663861275
1783003413266692900,4.84869287109375,-0.0032676986884325743,0.003876230912283063,0.007520766928792
1783003413276744000,4.858743896484375,-0.005687713157385588,0.008376440964639187,0.010582869872450829
1783003413286795000,4.868794921875,-0.004488225560635328,0.005179582163691521,0.007386011071503162
1783003413296845800,4.878845703125,-0.0035204326268285513,0.0054328483529388905,0.007469367701560259
1783003413306898000,4.88889794921875,-0.005929261911660433,0.005994509439915419,0.007299990858882666
1783003413316949000,4.898948974609375,-0.003231213428080082,0.003459978848695755,0.00827683787792921
1783003413326999800,4.908999755859375,-0.002374208066612482,0.006774548906832933,0.006783603690564632
1783003413337051000,4.91905078125,-0.001996571896597743,0.004590224474668503,0.00433189794421196
1783003413347102000,4.92910205078125,-0.005605687852948904,0.0029148298781365156,0.007680024020373821
1783003413357153800,4.93915380859375,-0.005505286622792482,0.004861600697040558,0.006371612660586834
1783003413367204900,4.949204833984375,-0.00424241553992033,0.004717257339507341,0.00896766223013401
1783003413377256000,4.959255859375,-0.004516188520938158,0.0026943201664835215,0.009562612511217594
1783003413387307000,4.96930712890625,-0.004336425103247166,0.005558017175644636,0.0057188719511032104
1783003413397358800,4.97935888671875,-0.0020764668006449938,0.005584648810327053,0.008278968743979931
1783003413407410000,4.989409912109375,-0.0057646785862743855,0.005263471510261297,0.007698932196944952
1783003413417461000,4.9994609375,-0.0030975225381553173,0.008754076436161995,0.007290403358638287
1783003413427511800,5.00951171875,-0.004454935900866985,0.003477022983133793,0.008982576429843903
1783003413437563000,5.01956298828125,-0.0027531760279089212,0.0038189729675650597,0.008953015320003033
1783003413447615000,5.029614990234375,-0.007419832982122898,0.005921804811805487,0.008123972453176975
1783003413457666000,5.039666015625,-0.0032895365729928017,0.0035987296141684055,0.008803611621260643
1783003413467716900,5.049716796875,-0.006019542925059795,0.0037760960403829813,0.007753527257591486
1783003413477768000,5.059767822265625,-0.005053347907960415,0.004575843457132578,0.008155664429068565
1783003413487820000,5.069820068359375,-0.004685831721872091,0.003958788700401783,0.008287491276860237
1783003413497870800,5.079870849609375,-0.005557484459131956,0.004996356554329395,0.009313073940575123
1783003413507922000,5.089921875,-0.002710299100726843,0.0041489386931061745,0.008095476776361465
1783003413517973000,5.099972900390625,-0.0041428133845329285,0.005456284619867802,0.00558065390214324
1783003413528024800,5.11002490234375,-0.0014674017438665032,0.004926847759634256,0.01011202298104763
1783003413538076000,5.120075927734375,-0.004674380179494619,0.007485346868634224,0.006580937188118696
1783003413548127000,5.130126953125,-0.003507383167743683,0.005416869651526213,0.006980943959206343
1783003413558178000,5.140177978515625,-0.004629373084753752,0.006119944155216217,0.0075822859071195126
1783003413568228900,5.150228759765625,-0.00615270109847188,0.003641073824837804,0.006646717432886362
1783003413578281000,5.160281005859375,-0.0052267201244831085,0.003547064261510968,0.007821704261004925
1783003413588332000,5.17033203125,-0.0062456452287733555,0.003531884169206023,0.0060142166912555695
1783003413598382800,5.1803828125,-0.004622981417924166,0.004758802708238363,0.005834719631820917
1783003413608434000,5.190433837890625,-0.0016498282784596086,0.0031166973058134317,0.008673649281263351
1783003413618486000,5.200486083984375,-0.0035899411886930466,0.00708720413967967,0.007199855986982584
1783003413628536800,5.210536865234375,-0.0036450685001909733,0.005537777207791805,0.008987103588879108
1783003413638588000,5.220587890625,-0.004304200876504183,0.004020041786134243,0.008402273058891296
1783003413648639000,5.230638916015625,-0.0031222901307046413,0.006353237200528383,0.007221161387860775
1783003413658690000,5.24068994140625,-0.005093295592814684,0.005631254054605961,0.009918676689267159
1783003413668742000,5.250741943359375,-0.004992628004401922,0.003801928833127022,0.008727977983653545
1783003413678793000,5.26079296875,-0.005351888481527567,0.00455879932269454,0.009544502943754196
1783003413688844000,5.270843994140625,-0.0028269453905522823,0.004235757514834404,0.007435013074427843
1783003413698895000,5.28089501953125,-0.004174771253019571,0.004966795444488525,0.005794771946966648
1783003413708947000,5.290947021484375,-0.00407516909763217,0.004503671545535326,0.008281099610030651
1783003413718998000,5.300998046875,-0.004625644534826279,0.0032751555554568768,0.009077384136617184
1783003413729049000,5.311049072265625,-0.0035694348625838757,0.004036020487546921,0.008036887273192406
1783003413739100000,5.321099853515625,-0.005660016089677811,0.005134840961545706,0.00851412583142519
1783003413749152000,5.331152099609375,-0.0030802120454609394,0.006038185209035873,0.007598265074193478
1783003413759203000,5.341203125,-0.005141498986631632,0.004875981714576483,0.008461395278573036
1783003413769254000,5.35125390625,-0.0046477485448122025,0.005873335525393486,0.007066431455314159
1783003413779305000,5.361304931640625,-0.0036876790691167116,0.0057492321357131,0.008707471191883087
1783003413789356000,5.37135595703125,-0.004490355961024761,0.0023100259713828564,0.010193249210715294
1783003413799407900,5.381407958984375,-0.003906324505805969,0.0016676714876666665,0.009010805748403072
1783003413809459000,5.391458984375,-0.003236006945371628,0.0034735610242933035,0.009678459726274014
1783003413819510000,5.401510009765625,-0.0036458675749599934,-0.0021699436474591494,0.008294414728879929
1783003413829561000,5.41156103515625,-0.00566853815689683,0.004846420604735613,0.006714628078043461
1783003413839613000,5.421613037109375,-0.0025209481827914715,0.00133877107873559,0.0049428269267082214
1783003413849664000,5.4316640625,-0.0057380469515919685,0.012891297228634357,0.010439058765769005
1783003413859715000,5.441715087890625,-0.0029614351224154234,0.004895955324172974,0.005667739547789097
1783003413869766000,5.451765869140625,-0.0016458334866911173,0.006420082412660122,0.01085877325385809
1783003413879817000,5.46181689453125,-0.002570749493315816,0.0005773733137175441,0.004069043789058924
1783003413889869000,5.471869140625,-0.003805124433711171,0.006985471583902836,0.00714526092633605
1783003413899920000,5.481919921875,-0.004280498716980219,0.0012447615154087543,0.007239536847919226
1783003413909970200,5.49197021484375,-0.0054304515942931175,0.007050186395645142,0.009631055407226086
1783003413920021200,5.502021240234375,-0.026993533596396446,0.07811584323644638,0.08282724022865295
1783003413930073300,5.5120732421875,0.008672317489981651,0.02773389220237732,0.0008189220097847283
1783003413940124200,5.522124267578125,0.009463543072342873,-0.016704678535461426,0.004035221878439188
1783003413950175200,5.53217529296875,0.004060255363583565,0.010367153212428093,0.010690727271139622
1783003413960226300,5.542226318359375,0.00014194648247212172,-0.007844340987503529,-0.0016351809026673436
1783003413970278100,5.552278076171875,-0.008952748961746693,0.010270214639604092,0.005819006823003292
1783003413980329200,5.5623291015625,-0.0038488004356622696,-0.0049215215258300304,0.004188885912299156
