time,seconds_elapsed,z,y,x
1783002721975681500,0.085681640625,0.1331815589994192,-1.0744248830020426,0.017144504231831524
1783002721985733600,0.095733642578125,0.1738981847912073,-1.202585691229999,0.16310058591766283
1783002721995785500,0.105785400390625,0.1705482898414135,-1.3705309589661656,0.19409242969918994
1783002722005836500,0.11583642578125,0.13337620478868484,-1.4899877978652716,0.16921631058529019
1783002722015887600,0.1258876953125,0.06662205142080783,-1.4941415565438567,0.1204645363706164
1783002722025939500,0.135939453125,0.19731179360449314,-1.4732302859403192,-0.05484430980295874
1783002722035991600,0.145991455078125,0.4386714032500982,-1.5358353568047285,-0.33989907699394967
1783002722046042400,0.15604248046875,0.6852566385895014,-1.5850727043129502,-0.43490324635561556
1783002722056094500,0.166094482421875,0.7413485281676053,-1.6042472142517565,-0.345685880234465
1783002722066145500,0.1761455078125,0.6569289542496204,-1.649450337807834,-0.21803567014345898
1783002722076197400,0.186197265625,0.6956260569125413,-1.8056052145071326,-0.03693630353547633
1783002722086248400,0.19624853515625,0.6079413437187672,-1.9577084777280687,0.10779502441165968
1783002722096300500,0.206300537109375,0.3838327286034822,-2.025692319021374,0.18504560174942017
1783002722106351600,0.2163515625,0.12818915753960608,-2.017691675656289,0.363936334130913
1783002722116403500,0.226403564453125,0.11274784277975558,-2.0424578681223093,0.38359102880209683
1783002722126454500,0.23645458984375,0.1605617333561182,-1.9943701290406286,0.08662879266636446
1783002722136506600,0.246506591796875,0.010447159734368324,-1.7714602221906184,-0.18202512141708282
1783002722146557700,0.2565576171875,-0.054633507463335985,-1.6664079023495315,-0.26489048816300925
1783002722156609500,0.266609619140625,0.01600947003662586,-1.6884679045967756,-0.23995438249018042
1783002722166660600,0.27666064453125,0.1269996554940939,-1.729912406271696,-0.14622933881939387
1783002722176712400,0.28671240234375,0.2409668109357357,-1.7235212439298628,-0.06453982918611727
1783002722186763500,0.296763427734375,0.29204174913465974,-1.7331946428127585,-0.022491991323186085
1783002722196815600,0.306815673828125,0.27460779925286766,-1.718628795713186,-0.03364897982734255
1783002722206866400,0.316866455078125,0.2709305720448494,-1.711425294075161,-0.05404556977385655
1783002722216918500,0.32691845703125,0.03440145129561424,-1.6841561788775026,-0.040685500001162285
1783002722226969600,0.336969482421875,-0.04044716120064258,-1.656072970817983,-0.04976906149843707
1783002722237021400,0.347021484375,0.20913667143285272,-1.6274129857838153,-0.1601305023320019
1783002722247073300,0.3570732421875,0.28349954623878,-1.5709569390684366,-0.2705995682585053
1783002722257125000,0.367125,0.10535714800655842,-1.4816449169337749,-0.29985430431542914
1783002722267176200,0.37717626953125,0.026371289575099943,-1.4449384035661816,-0.34727738720960916
1783002722277228000,0.38722802734375,0.07794599398970603,-1.4136189900644123,-0.4014375780727714
1783002722287279000,0.397279052734375,0.08137596843838692,-1.353359167151898,-0.39597098322995006
1783002722297331200,0.407331298828125,-0.010814239481091498,-1.308130909154564,-0.36598566787615416
1783002722307382000,0.417382080078125,-0.060817749056220054,-1.3167580138549209,-0.3694080435402691
1783002722317434400,0.427434326171875,-0.030965631628036498,-1.3128797111168502,-0.4878306440208107
1783002722327485400,0.4374853515625,-0.038947278031706806,-1.2287187881350516,-0.5782847123300656
1783002722337537300,0.447537353515625,-0.13949731801748275,-1.0984588156707584,-0.6607900866571813
1783002722347588400,0.45758837890625,-0.21510814705789089,-1.0526217781253158,-0.7046234562300145
1783002722357640200,0.46764013671875,-0.1909171241313219,-1.067715010099858,-0.7639824578452855
1783002722367691300,0.477691162109375,-0.010111059647798537,-1.1455047906145452,-0.8318957911856472
1783002722377743400,0.487743408203125,0.22871815473735332,-1.4055638400331139,-0.6711050713792442
1783002722387794200,0.497794189453125,0.5410340456157923,-1.7355676555544137,-0.2582065534196794
1783002722397846300,0.50784619140625,0.828780727905035,-1.710495758140087,0.0040700989831238986
1783002722407897300,0.5178974609375,1.126968724709749,-1.5650474227637052,-0.013315079853497445
1783002722417949200,0.52794921875,1.0021657024770974,-1.2528384993910788,-0.16461860753148794
1783002722428000300,0.538000244140625,0.20111060136556624,-0.7434817408040165,-0.3478448848992586
1783002722438052000,0.548052001953125,-0.8275789508998393,-0.35068010832518337,-0.5793112423662096
1783002722448103200,0.558103271484375,-1.6967220843315123,-0.1586269659012556,-0.6892150938916951
1783002722458155300,0.5681552734375,-2.1525047813802956,-0.012404139021039009,-0.6256947348132729
1783002722468206000,0.5782060546875,-2.208933355566859,0.06777706667482852,-0.7827952948648482
1783002722478258200,0.588258056640625,-2.054669261050224,0.18489947127699852,-0.9647742025200277
1783002722488309200,0.598309326171875,-1.85306999938488,0.5966138940185308,-0.9790206084068864
1783002722498361000,0.608361083984375,-1.901571287703514,1.0928984050646424,-0.8330702417925
1783002722508412200,0.618412109375,-2.017114314159751,1.288426237861812,-0.770187303834781
1783002722518464000,0.628464111328125,-1.9140625204861164,1.1314739271745085,-0.7533384603645652
1783002722528515000,0.63851513671875,-1.834596769583225,1.0743670153349638,-0.7559164210937916
1783002722538567400,0.6485673828125,-1.7495815678596496,1.0507046924576162,-0.7953649997111409
1783002722548618200,0.6586181640625,-1.5392612396001815,0.9022799716189503,-0.8366321720577776
1783002722558670300,0.66867041015625,-1.2285866861879824,0.6749906806409358,-0.8380631547089665
1783002722568721400,0.678721435546875,-1.0412544348061084,0.4997089325368404,-0.6673818130724132
1783002722578773200,0.688773193359375,-1.0263841979324817,0.24330986693054435,-0.24886722706304862
1783002722588824300,0.69882421875,-1.0600953288763761,0.001084288105368614,0.1014973125069402
1783002722598876200,0.708876220703125,-0.9838853648990392,-0.052576574933528894,0.2657925881018862
1783002722608928300,0.71892822265625,-0.9586673370122909,0.011458090342581271,0.40410665115155275
1783002722618979300,0.728979248046875,-0.9804881236761808,0.05206541054099798,0.5721785409420729
1783002722629031200,0.73903125,-0.8751976111650467,0.013334113347530364,0.7452541573040187
1783002722639082200,0.749082275390625,-0.7123316925197839,-0.006188917768001556,0.8842806429393589
1783002722649134000,0.759134033203125,-0.5455418784290552,0.0217655493453145,0.9484398113779723
1783002722659185200,0.76918505859375,-0.580029838964343,0.11164835710525511,0.9993488914906978
1783002722669237200,0.7792373046875,-0.6050935530722141,0.1986307672485709,1.0411591577380894
1783002722679288000,0.7892880859375,-0.5111579627901316,0.24423574960380792,0.9755965522423387
1783002722689340200,0.799340087890625,-0.44675183385312556,0.35009792452305555,0.8783619204148649
1783002722699391200,0.80939111328125,-0.37469197529256343,0.522999791753292,0.7928814392670989
1783002722709443000,0.819443115234375,-0.35742402962744235,0.7020344626501203,0.717889326646924
1783002722719494100,0.829494140625,-0.3666951313197613,0.7786445318609475,0.6674655458331108
1783002722729546200,0.839546142578125,-0.31325697112083434,0.7924445091545581,0.7071436223573982
1783002722739597300,0.849597412109375,-0.24707623372673987,0.7676078818008303,0.7441555484123528
1783002722749649400,0.8596494140625,0.051043958538770674,0.6737491561472415,0.7003763932447881
1783002722759700200,0.8697001953125,0.4906821609944105,0.5938827154889702,0.5810558940764516
1783002722769752300,0.87975244140625,0.7323755326390265,0.5649503432542086,0.49279473270159213
1783002722779803400,0.889803466796875,0.8412649464249611,0.4798565233364701,0.5644323837947101
1783002722789855200,0.899855224609375,1.130087148991227,0.31650428247898815,0.599972228003107
1783002722799906300,0.90990625,1.275932374730706,0.2593973706394434,0.4965070312229916
1783002722809958100,0.919958251953125,1.1147393577337263,0.3173199827760458,0.41995216279812153
1783002722820009200,0.93000927734375,1.0286819534808396,0.35050767436772584,0.3756647293148562
1783002722830061300,0.940061279296875,1.1068763692736625,0.30447774459868665,0.39620260002873836
1783002722840112000,0.950112060546875,1.1096142698049545,0.2474842300057411,0.5663909705165773
1783002722850164200,0.960164306640625,1.0929051270663737,0.14368570961803198,0.82768248433955
1783002722860215300,0.97021533203125,1.1496189479351042,0.01570318056643009,0.996190646655485
1783002722870267100,0.98026708984375,1.113497833240032,-0.0030409751310944556,1.083870829804614
1783002722880318200,0.990318115234375,1.0451888516455887,0.030999241636693476,1.084958332780376
1783002722890370000,1.0003701171875,1.0213812750786542,0.023663199660182,0.9371408571198582
1783002722900421000,1.010421142578125,0.8827326828449964,0.05186550405472517,0.8171327410135417
1783002722910473200,1.02047314453125,0.69728843716681,0.14473580319285392,0.8101755422867835
1783002722920524000,1.03052392578125,0.5495458533734083,0.18591507806032895,0.8582890003316104
1783002722930576400,1.040576416015625,0.4768208089023828,0.1574137907192111,0.8890520951248705
1783002722940627200,1.050627197265625,0.4362573278456926,0.11878478485643863,0.8619142781566828
1783002722950679300,1.06067919921875,0.3840887491911649,0.12023907531797885,0.8292219688665121
1783002722960730400,1.07073046875,0.2903226702570915,0.10317015935629606,0.8502401339106261
1783002722970782200,1.0807822265625,0.22959493757188318,0.012198679576814173,0.8242064057268201
1783002722980833300,1.090833251953125,0.21258301249444483,-0.052389235667884344,0.7953875038038939
1783002722990885400,1.100885498046875,0.23459435329437253,-0.06976239527314901,0.72467591804713
1783002723000936200,1.110936279296875,0.2759896090000868,-0.0755748809441924,0.5897845594551414
1783002723010988300,1.12098828125,0.20330314297378063,-0.11547113026380539,0.5766584263024851
1783002723021039400,1.131039306640625,0.16335340990126132,-0.17929653670340776,0.6209512666132301
1783002723031091200,1.14109130859375,0.19804770666360855,-0.2551274382352829,0.6553877892222255
1783002723041142300,1.151142333984375,0.2511947749614715,-0.34663901624083515,0.7242253978006541
1783002723051194000,1.161194091796875,0.3101478991895914,-0.4584124610304832,0.8245710012555122
1783002723061245200,1.1712451171875,0.2718056013137102,-0.6009463702648877,0.8964329991564154
1783002723071297300,1.18129736328125,0.15221885242462158,-0.7108893847569823,0.9690098673284053
1783002723081348000,1.19134814453125,0.1723737517029047,-0.7386459912106395,0.9678891927354037
1783002723091400200,1.201400146484375,0.22605448848605156,-0.7143456626906991,0.8314538926370442
1783002723101451300,1.211451171875,0.1638812331676483,-0.6880804638385772,0.7687514258127659
1783002723111503000,1.221503173828125,0.17372224370241166,-0.7131994152650236,0.7682873884975909
1783002723121555200,1.23155517578125,0.26799159598350525,-0.8083230462878942,0.7641787110697478
1783002723131606000,1.24160595703125,0.29726562126278877,-0.8778338048875332,0.7704359448336064
1783002723141658400,1.251658447265625,0.29445056384205814,-0.8945590219780802,0.7317627345029264
1783002723151709400,1.26170947265625,0.2502911041200161,-0.9006190526694059,0.7016749086227267
1783002723161761300,1.27176123046875,0.2626817991375923,-0.9124044752702116,0.7518184111904352
1783002723171812400,1.281812255859375,0.21254794118106363,-0.9117115245699882,0.7948826960869133
1783002723181864200,1.2918642578125,0.04171382013559341,-0.9052890903070568,0.8759197879597544
1783002723191915300,1.301915283203125,-0.06412965008318423,-0.8967351969733833,0.8921513763144612
1783002723201967400,1.31196728515625,-0.018596563920378683,-0.8564657304272055,0.7281649292066693
1783002723212018200,1.32201806640625,-0.009009820407629012,-0.7433399942457676,0.5230830861225724
1783002723222070300,1.3320703125,-0.04047463372945785,-0.7659682979002594,0.43438835563603784
1783002723232121300,1.342121337890625,0.10803250469565391,-1.3341086693674324,0.6411550465345383
1783002723242172700,1.352172607421875,0.2802121951311827,-1.803747750072181,0.9365568466868252
1783002723252223700,1.3622236328125,-0.043189737907052037,-1.3775021131530403,0.8790130047347396
1783002723262275800,1.37227587890625,-0.602236410075426,-0.8532742409095168,0.8654835880108177
1783002723272327000,1.382326904296875,-1.143571484464407,-0.7440402514696121,0.7925526457041502
1783002723282379000,1.39237890625,-1.4821078582704066,-0.6425166902765631,0.7755339986249804
1783002723292429800,1.402429931640625,-2.025669376537204,-0.3372054174631834,0.7264585636802017
1783002723302482000,1.41248193359375,-2.2687381281882524,0.005532207424938679,0.526725059354119
1783002723312533000,1.422532958984375,-2.2478531610697505,0.30228812559992074,0.27046196815241125
1783002723322584800,1.432584716796875,-2.1566870355010033,0.5239908486172556,0.048331448177061975
1783002723332636000,1.442635986328125,-1.8923615608096123,0.6643214025884866,-0.1281014792561531
1783002723342687700,1.452687744140625,-1.5111463212281464,0.7908437959596514,-0.2883364648759365
1783002723352738800,1.46273876953125,-1.1487912649393082,0.9605047815725207,-0.349997240627557
1783002723362791000,1.472791015625,-0.9259136529237031,1.1682082053318619,-0.4903694052508101
1783002723372841700,1.482841796875,-0.9577747720867394,1.3296081430777906,-0.5880619003809988
1783002723382893800,1.492893798828125,-0.7924100223630667,1.3555246746227145,-0.5424590369176119
1783002723392945000,1.50294482421875,-0.3409598015606403,1.2565730097442864,-0.4942728424301371
1783002723402996700,1.512996826171875,-0.14744506215155123,1.1722469593286513,-0.4646085391916334
1783002723413047800,1.5230478515625,-0.1442401286303997,1.1293141187921165,-0.4129821776550263
1783002723423099600,1.533099609375,-0.1321931324839592,1.1283841444656253,-0.4194827551880851
1783002723433150700,1.543150634765625,-0.1884936963766813,1.1719365782052278,-0.4705712469883263
1783002723443202800,1.553202880859375,-0.415627796792984,1.212738836453855,-0.5402466215651482
1783002723453253600,1.563253662109375,-0.5832546462297439,1.15876554646492,-0.579097891876474
1783002723463306000,1.573305908203125,-0.605657032173872,1.0688903374895453,-0.5960784354349598
1783002723473356800,1.583356689453125,-0.6077098730504512,1.0610939845249057,-0.6232087632164359
1783002723483409000,1.593408935546875,-0.5882540619522333,1.105148230306804,-0.7127572244554757
1783002723493460000,1.6034599609375,-0.4568938731610775,1.1115765097886323,-0.9013490474443883
1783002723503511800,1.61351171875,-0.47778351645469663,1.082175058737397,-1.0431955589365214
1783002723513563000,1.62356298828125,-0.37630642475187775,1.039724156498909,-1.0969764681585132
1783002723523615000,1.633614990234375,0.012400631889700888,0.9822811445727944,-1.2535017856054007
1783002723533665800,1.643665771484375,0.25370120482444763,0.9399094450503587,-1.3156062134712934
1783002723543718000,1.6537177734375,0.4502519509285688,0.8833186660394072,-1.1865659920603036
1783002723553769700,1.663769775390625,0.6482067186117172,0.7431430103689431,-1.0107054942201823
1783002723563820800,1.67382080078125,0.718415396347642,0.5521098586425185,-0.8041969062685966
1783002723573871900,1.683871826171875,0.7748428014904261,0.3759440211802721,-0.582412861643359
1783002723583923700,1.693923828125,0.7650871311515569,0.26139468193650245,-0.39327746982965617
1783002723593975800,1.703975830078125,0.7840139499396085,0.1706558418691158,-0.24460781605290247
1783002723604027000,1.71402685546875,0.8885562744319438,0.1016083168670535,-0.22323714777668938
1783002723614078700,1.72407861328125,0.8921545911848544,0.1013099184423685,-0.34283220783639695
1783002723624129800,1.7341298828125,0.7490174553602933,0.10078209517598151,-0.4325113097177818
1783002723634181600,1.744181640625,0.6873036342471838,0.041731940314173696,-0.49981440220531076
1783002723644232700,1.754232666015625,0.5360948356479406,0.009625906479358673,-0.5346984128534793
1783002723654284800,1.764284912109375,0.418289124956727,0.007688508675992489,-0.5875679428515955
1783002723664335600,1.774335693359375,0.5707043767362833,0.015609364803135394,-0.6599934563867748
1783002723674388000,1.784387939453125,0.687946608325839,0.07047346615195274,-0.7207710195630789
1783002723684439000,1.79443896484375,0.5978671089500188,0.11493278560340404,-0.731360218116641
1783002723694491000,1.804490966796875,0.4896066407173872,0.1456996797889471,-0.699122155399993
1783002723704542000,1.8145419921875,0.5186182156682014,0.12211509832292794,-0.6281603942744434
1783002723714593800,1.82459375,0.6806780786275863,0.07330196757614613,-0.5730612055281177
1783002723724644900,1.834644775390625,0.8149620459109544,0.06024608664810657,-0.5382608545754105
1783002723734697000,1.844697021484375,0.7199047581225633,0.07480038944035768,-0.48799599065035576
1783002723744747800,1.854747802734375,0.42780689488649365,0.08703443259149789,-0.4953139855135232
1783002723754799900,1.8647998046875,0.33720307937562466,0.06835369751900434,-0.5574518772576004
1783002723764851000,1.874850830078125,0.3339408627092838,0.05049070857018232,-0.6678257574476302
1783002723774902800,1.88490283203125,0.3227922767072916,-0.0024608371555805207,-0.689617098821327
1783002723784953900,1.894953857421875,0.2156511678934097,-0.10202128158211707,-0.6396055520702153
1783002723795005700,1.905005615234375,0.06623451340794563,-0.20288813243210316,-0.5686539470124989
1783002723805056800,1.915056884765625,0.18302432505488395,-0.33226913010478015,-0.6176438225656747
1783002723815108900,1.92510888671875,0.33609307230710983,-0.4184136281192302,-0.6363485961008817
1783002723825159700,1.93515966796875,0.3252706495195627,-0.49974663419872517,-0.5900390456728637
1783002723835211800,1.945211669921875,0.23454174632430075,-0.6188964529752731,-0.521051361099258
1783002723845262800,1.955262939453125,-0.005684475377202034,-0.6760445736080408,-0.45350013906955716
1783002723855314700,1.965314697265625,-0.19580781878232956,-0.7490829218119383,-0.3062985668176785
1783002723865365800,1.97536572265625,-0.10230302113294601,-0.8559589499488472,-0.2599660008402541
1783002723875417900,1.98541796875,-0.030697336080670354,-0.8564043556287885,-0.36154995045103133
1783002723885468700,1.99546875,-0.18463526738286018,-0.808577021048963,-0.4276965663798153
1783002723895521000,2.00552099609375,-0.29351474429666996,-0.8046265298575163,-0.4618324255418032
1783002723905571800,2.01557177734375,-0.08022095318436623,-0.8465969551026821,-0.5173960169294849
1783002723915624000,2.0256240234375,0.13799392771720886,-0.8823752477094531,-0.535155435905978
1783002723925675800,2.03567578125,0.1285895550340414,-0.8970780190616846,-0.46945064546056087
1783002723935726800,2.045726806640625,0.04301847299337387,-0.9114952514708041,-0.4018610276492312
1783002723945779000,2.055779052734375,0.0015256021320819854,-0.9636594462111592,-0.381627071785368
1783002723955829800,2.065829833984375,-0.011949965512752533,-1.0164125467553735,-0.38826680206079034
1783002723965881900,2.0758818359375,0.0049491468399763105,-1.0251672233581541,-0.36748149592448026
1783002723975933000,2.085932861328125,0.06330021352171898,-0.9807558347016573,-0.32736561250481755
1783002723985984800,2.09598486328125,0.08133797451555728,-0.9489283255472779,-0.30801768222786485
1783002723996035800,2.106035888671875,0.028518822997808453,-0.8987801468044518,-0.30149386994969096
1783002724006087700,2.116087646484375,-0.12170388717353343,-0.7978910841226577,-0.28289555246364323
1783002724016138800,2.126138671875,-0.2122580183237791,-0.6990282665714621,-0.3282928103523329
1783002724026190800,2.13619091796875,-0.22753858956396578,-0.5888426754951477,-0.4372644225290045
1783002724036241700,2.14624169921875,-0.22165946839749812,-0.5066550984129309,-0.5560139534089714
1783002724046293800,2.156293701171875,-0.27320494671761986,-0.47771688095927234,-0.5929247571770101
1783002724056344800,2.1663447265625,-0.33713702840209003,-0.5877914128765463,-0.44722515045329925
1783002724066397000,2.17639697265625,-0.0922252792328596,-0.9428846614688634,-0.2356377248674631
1783002724076447700,2.18644775390625,0.11772212406098842,-1.124689966122806,-0.0877837896540761
1783002724086499800,2.196499755859375,-0.19881109225153923,-0.9431386362299322,0.07479637085236608
1783002724096551000,2.206551025390625,-0.5107867913901806,-0.8368944762557744,0.12651932463124393
1783002724106603000,2.21660302734375,-0.5644844793081283,-0.8228720883831381,0.028215017745643854
1783002724116653800,2.22665380859375,-0.8135381505876779,-0.6095721597909927,-0.018872092926129697
1783002724126706000,2.236705810546875,-1.1854583230793476,-0.36078123110085725,-0.035671580829285086
1783002724136757000,2.246757080078125,-1.4672715236663818,-0.22385288678854703,-0.1709912113033235
1783002724146808800,2.256808837890625,-1.6464888576537369,-0.05532324329316616,-0.3173806634547189
1783002724156860000,2.26685986328125,-1.6090554913163184,0.237629775467515,-0.42444333673752843
1783002724166911700,2.276911865234375,-1.5536884088814258,0.5223576944574714,-0.486314138510637
1783002724176962800,2.286962890625,-1.547220089650154,0.715539256389439,-0.5232148227434605
1783002724187015000,2.297014892578125,-1.5654086572915316,0.8509346920460462,-0.5707025866379961
1783002724197065700,2.307065673828125,-1.3740624940931796,1.0466028100967406,-0.574555060815066
1783002724207117800,2.317117919921875,-1.0704711769402027,1.2547326425746081,-0.5304775437554344
1783002724217169700,2.327169677734375,-0.7779214782834053,1.4082929727360605,-0.4880751568337902
1783002724227220700,2.337220703125,-0.4703852228969335,1.4774980263873934,-0.41438882958255707
1783002724237272800,2.34727294921875,-0.03739537241458893,1.412803728158772,-0.29580274563599374
1783002724247323600,2.35732373046875,0.26230478251874445,1.3162477262452243,-0.014270115556009114
1783002724257375700,2.367375732421875,0.4188771539777517,1.1549845666214824,0.2940350053111091
1783002724267426800,2.3774267578125,0.4825999768257141,0.9373732045710086,0.533497768359445
1783002724277479000,2.38747900390625,0.4627472753643989,0.7809013708770275,0.6948067764189094
1783002724287530000,2.397530029296875,0.3453869703531265,0.7443737212076783,0.858165812343359
1783002724297581800,2.407581787109375,0.11493629273474215,0.6387529538288712,1.03104561387226
1783002724307633000,2.4176328125,-0.10662848311662673,0.5132026203602552,1.1105763197701424
1783002724317685000,2.42768505859375,-0.1811141075193882,0.49399347749948497,1.06860640598163
1783002724327735800,2.43773583984375,-0.3164969759553671,0.5858122217580676,0.9819266320466995
1783002724337788000,2.447787841796875,-0.6221037245839833,0.7195017302796244,0.9019294046156108
1783002724347839000,2.4578388671875,-0.6603121669471264,0.8247539566069841,0.7745789629224688
1783002724357890800,2.467890869140625,-0.5443155515044927,0.942016354201734,0.6294850670069456
1783002724367942000,2.47794189453125,-0.56024786465168,1.084849538643658,0.5740859819985926
1783002724377993700,2.48799365234375,-0.656633186173439,1.160240879714489,0.5239133994668722
1783002724388044800,2.498044921875,-0.7503688699692487,1.1636956963434815,0.4956385412927717
1783002724398097000,2.508096923828125,-0.6979974622189998,1.1440738810285924,0.4544678881231695
1783002724408147700,2.518147705078125,-0.5769429788649082,1.1280477521181105,0.3763877463597804
1783002724418199800,2.52819970703125,-0.5123427886605263,1.0666194699481129,0.3869305119557306
1783002724428251000,2.5382509765625,-0.3651449792683124,0.9990838108137249,0.3389128059029579
1783002724438302700,2.548302734375,-0.14670798004865646,0.9745043730914592,0.2265550584193319
1783002724448353800,2.558353759765625,0.09483692303597926,0.9348632675766945,0.16105207415632902
1783002724458405600,2.568405517578125,0.3467150040864944,0.8482990828454494,0.13666987603921443
1783002724468458000,2.5784580078125,0.5959960543811321,0.7177934650570154,0.13653890660330653
1783002724478509000,2.588509033203125,0.7350333536714315,0.635979981984198,0.1880885861745104
1783002724488561000,2.598560791015625,0.8064052299678325,0.5771718191847205,0.31016320635657757
1783002724498612000,2.608612060546875,0.804531837311387,0.4340025346562266,0.4298468397488817
1783002724508663800,2.618663818359375,0.7887310415893792,0.27034897276461123,0.5096281228743493
1783002724518715000,2.62871484375,0.715960988932848,0.17997428983449934,0.588358289511688
1783002724528767000,2.63876708984375,0.6202589735001325,0.14690174905508757,0.6762204416316002
1783002724538817800,2.64881787109375,0.591191868969798,0.16019202326089144,0.6229597568914294
1783002724548870000,2.658869873046875,0.5577513716608286,0.2467752049535513,0.43565622014738614
1783002724558921000,2.6689208984375,0.3371300141394138,0.36379093431085346,0.3291305763507262
1783002724568972800,2.678972900390625,0.26439444827437397,0.38919571694135663,0.263787276161462
1783002724579024000,2.68902392578125,0.34489714100956914,0.3632268706873059,0.2480594726104289
1783002724589075700,2.69907568359375,0.4403314454168081,0.3365036989346146,0.2923362385692075
1783002724599126800,2.709126708984375,0.44855449936091896,0.2892497803285718,0.31664135286211964
1783002724609179000,2.719178955078125,0.45555765612125393,0.23492548494488,0.28706355886328966
1783002724619229700,2.729229736328125,0.43917584564089773,0.20363544366806743,0.24068496178705243
1783002724629281800,2.73928173828125,0.3166822693943977,0.1762123069524765,0.26075536111965775
1783002724639332900,2.749332763671875,0.3057207303971052,0.10130904165953397,0.30133455120213326
1783002724649384700,2.759384765625,0.486382417973876,-0.028059681053459642,0.23381003451626747
1783002724659435800,2.769435791015625,0.578983544781804,-0.11491524994671344,0.22565748852510004
1783002724669487600,2.779487548828125,0.5536936207026243,-0.19948563051223753,0.3060061962749809
1783002724679538700,2.78953857421875,0.5899895074427127,-0.3243091110110283,0.3895983063928783
1783002724689591000,2.799591064453125,0.6397966176629066,-0.4327738696441054,0.4335614398252219
1783002724699643000,2.809642822265625,0.5614028799057007,-0.4840352703258395,0.463508030603826
1783002724709694000,2.81969384765625,0.6068640698760748,-0.5398252543479204,0.48075876940581946
1783002724719745800,2.829745849609375,0.7762555908977985,-0.6287985460475087,0.41193062277548015
1783002724729796900,2.839796875,0.7232113984525204,-0.6749018333137035,0.33534787996299564
1783002724739849000,2.849848876953125,0.3734522043645382,-0.7171499064564705,0.32784323995392767
1783002724749899800,2.859899658203125,0.12498773114979267,-0.8332555352315306,0.3524279018405825
1783002724759952000,2.869951904296875,0.21162205850780008,-0.9440539975091814,0.32402203769795596
1783002724770003000,2.8800029296875,0.2164659914076328,-0.9559232990011572,0.30412301287688315
1783002724780054800,2.8900546875,0.01225683950483799,-0.935772491376102,0.35991632136721163
1783002724790105900,2.90010595703125,-0.19003508059978483,-0.9856690334454178,0.37008075517006217
1783002724800157700,2.91015771484375,-0.3053115650743246,-1.0480544702097774,0.3928549701012671
1783002724810208800,2.920208740234375,-0.2351975798845291,-1.0573749640017747,0.3657687006572261
1783002724820260900,2.9302607421875,-0.12432137619554996,-1.0299921592965722,0.28474958283249285
1783002724830311700,2.940311767578125,-0.2524550041556358,-1.001875779619813,0.2906513542221859
1783002724840363800,2.95036376953125,-0.35826749471426006,-1.0584899395063518,0.36198556538932025
1783002724850414800,2.960414794921875,-0.25199206281900405,-1.1408160482764242,0.4466950256319716
1783002724860466700,2.970466796875,-0.06622983723282813,-1.136705982609093,0.5260002156782895
1783002724870517800,2.980517822265625,0.03509820138812065,-1.0681500405162572,0.5930911267198622
1783002724880569900,2.99056982421875,0.07478548413217068,-1.0272834848597645,0.6744010441847145
1783002724890621000,3.000620849609375,0.17220540939867496,-1.0019526442483067,0.7733595771953463
1783002724900673000,3.010673095703125,0.2537310154408216,-1.032907462221384,0.9158885910589247
1783002724910724900,3.020724853515625,0.3516530450105667,-1.3845926559358834,1.233681817369908
1783002724920776000,3.03077587890625,0.2952425910025835,-1.5462138352170585,1.4855461621560155
1783002724930827800,3.040827880859375,-0.11311083087325095,-1.065045352499187,1.4025760563939809
1783002724940878800,3.05087890625,-0.543013236734271,-0.665281187531352,1.3997826262831687
1783002724950931000,3.060930908203125,-0.7332721892178058,-0.7322881466165184,1.0517818201698361
1783002724960981800,3.070981689453125,-0.8731243120223283,-0.6824731453508138,0.882298967602849
1783002724971033900,3.081033935546875,-1.1627017168700695,-0.4014277142658829,0.9041656392350792
1783002724981085000,3.0910849609375,-1.3209154257953166,-0.18067191670984029,0.7928400112781673
1783002724991136800,3.10113671875,-1.3045353688806294,-0.03223579769432545,0.5033725696109235
1783002725001187800,3.111187744140625,-1.2892968832165002,0.2515098322600126,0.24025029669683426
1783002725011239700,3.12123974609375,-1.2131430333405733,0.5450228229910135,-0.00048445904869586225
1783002725021290800,3.131290771484375,-1.0325514883905649,0.6553156738340854,-0.24945282666496932
1783002725031342800,3.1413427734375,-0.762722155585885,0.7092816572993993,-0.40762828593906014
1783002725041393700,3.1513935546875,-0.6849129397183656,0.8239514080524444,-0.46640495762173084
1783002725051445800,3.16144580078125,-0.8011322580009699,0.8801300991311669,-0.3631220220733434
1783002725061496800,3.171496826171875,-0.762201931104064,0.7702271243885159,-0.3235650146454572
1783002725071549000,3.181548828125,-0.5512596715539694,0.6612959172874688,-0.36740375451315194
1783002725081600000,3.19160009765625,-0.3693769177496433,0.684333970786631,-0.4203228227414191
1783002725091651800,3.20165185546875,-0.2516016021966934,0.6990887645870447,-0.4858845514543354
1783002725101703000,3.211702880859375,-0.19252572837173937,0.6510030713319778,-0.48749432473853227
1783002725111755000,3.221755126953125,-0.02028466313779354,0.5762775006935,-0.4703342233620584
1783002725121806800,3.231806884765625,0.18914193115234373,0.46765959732532497,-0.4602660895405337
1783002725131858000,3.24185791015625,0.2820487629085779,0.42857992508560416,-0.4065100224988535
1783002725141909800,3.25190966796875,0.0808276869058609,0.49485243241637944,-0.32018023104537274
1783002725151960800,3.2619609375,-0.23504735775887964,0.5324427428811789,-0.28453678033202884
1783002725162013000,3.272012939453125,-0.3697381522774696,0.5432999447211623,-0.35029604091104116
1783002725172063700,3.282063720703125,-0.44683775857090946,0.6257742297902703,-0.5063258299259469
1783002725182115800,3.29211572265625,-0.7648457236111164,0.8071165931075811,-0.6478537404555827
1783002725192167000,3.3021669921875,-1.0558633903950452,0.9225523597970604,-0.7750310175389051
1783002725202218800,3.31221875,-1.0818997489273547,0.9457491109892725,-0.9127603029705583
1783002725212269800,3.322269775390625,-1.0678285534769296,1.017170671646297,-0.9687714554626494
1783002725222321700,3.33232177734375,-1.0767167933315038,1.0926982063174246,-0.9572736176315695
1783002725232372700,3.342372802734375,-0.9901631299942731,1.0293088532075285,-0.9029370472881942
1783002725242424600,3.352424560546875,-0.9239619343340396,0.9263324628576636,-0.7724328908044844
1783002725252475400,3.362475341796875,-0.8778899189889431,0.8412924189537763,-0.6100067518159746
1783002725262527500,3.372527587890625,-0.840159031009674,0.8192918918088078,-0.497467510285601
1783002725272578600,3.38257861328125,-0.8601251297175884,0.7712538370877504,-0.42006778853442517
1783002725282630400,3.39263037109375,-0.6335095002174377,0.7048863449499011,-0.4368211722735315
1783002725292681500,3.402681396484375,-0.27015724958479403,0.6813990863785148,-0.5326284747116268
1783002725302733300,3.4127333984375,-0.01737666673660278,0.6672329061210155,-0.5918395192235708
1783002725312785400,3.422785400390625,0.14417641574442386,0.6048769877120852,-0.5571281617285684
1783002725322836500,3.43283642578125,0.2458808864623308,0.4688870932936668,-0.4613420847415924
1783002725332888600,3.442888671875,0.4502262319654226,0.2981596474930644,-0.41145281266327943
1783002725342939600,3.452939697265625,0.6425567300260067,0.18441227228194473,-0.3487888146858662
1783002725352991500,3.462991455078125,0.6823691004544497,0.1321297118589282,-0.26134724433189255
1783002725363042600,3.47304248046875,0.6920709947794675,0.031204993341863153,-0.1842105208984576
1783002725373094700,3.4830947265625,0.6576069996416568,-0.09953297189772128,-0.15906705608526245
1783002725383145500,3.4931455078125,0.5757645827353001,-0.16677753913104534,-0.12836208468740806
1783002725393197600,3.503197509765625,0.6178285314828157,-0.1673755050241947,-0.16888791888114063
1783002725403248600,3.51324853515625,0.6678261958390473,-0.09920651642233133,-0.23911320069199427
1783002725413300500,3.523300537109375,0.5625187321931123,-0.04121054678857326,-0.3276752995084971
1783002725423351600,3.5333515625,0.30744740805923937,-0.018066987088322637,-0.5164981182416901
1783002725433403400,3.5434033203125,0.04994447286427021,-0.028104981499910354,-0.6885669321812689
1783002725443454500,3.553454345703125,-0.11701894422769546,-0.10699117894917726,-0.670133157607168
1783002725453506600,3.563506591796875,-0.06990589539706707,-0.2504372345924377,-0.8217022408861666
1783002725463557400,3.573557373046875,0.1910299368560314,-0.3269055572450161,-1.0227322512961923
1783002725473609500,3.583609375,0.25861820296049115,-0.21244068141430617,-1.0665881980270147
1783002725483661300,3.593661376953125,0.1574421400308609,-0.01693944436311722,-1.1252834019713103
1783002725493712400,3.60371240234375,0.283743876388669,0.020966215661168096,-1.2920539268396793
1783002725503764500,3.613764404296875,0.39622459266483784,-0.003347264601290226,-1.3949205732047556
1783002725513815300,3.623815185546875,0.3388070074409246,-0.02615881586819887,-1.2302683556646108
1783002725523867600,3.63386767578125,0.356102425634861,-0.1101022967070341,-0.9931463835887611
1783002725533918500,3.64391845703125,0.5562549956232309,-0.2862552746877074,-0.6645397215142845
1783002725543970600,3.653970458984375,0.7287275315254926,-0.5046653859004379,-0.45079073398038744
1783002725554021600,3.664021728515625,0.702269732710719,-0.7200663784250617,-0.34267288908883925
1783002725564073500,3.674073486328125,0.7425666717857122,-0.8839788835138082,-0.295297536060214
1783002725574124500,3.68412451171875,0.7674585364580154,-0.8621431915417314,-0.3271124049287289
1783002725584176600,3.6941767578125,0.7604314143002032,-0.7452049113348126,-0.46587775540985166
1783002725594227500,3.7042275390625,0.7773831336230039,-0.6852130917087197,-0.6398553621128201
1783002725604279600,3.714279541015625,0.8458329849928617,-0.7028823116511106,-0.7410334708690642
1783002725614330600,3.72433056640625,0.7729933742314576,-0.678420070567727,-0.7219082068994641
1783002725624382500,3.734382568359375,0.648788902413845,-0.6582374064996838,-0.5665864930886775
1783002725634434600,3.7444345703125,0.5956166996747255,-0.7399632112890482,-0.4173851618543267
1783002725644485400,3.7544853515625,0.5308084196776152,-0.8137102922841906,-0.25209676530249414
1783002725654537500,3.764537353515625,0.4672749819219112,-0.858370979526639,-0.20169044708013534
1783002725664588500,3.774588623046875,0.2441518707126379,-0.8466516078993678,-0.2565654351491481
1783002725674640400,3.784640380859375,-0.06448328582644462,-0.7860577307268977,-0.4230002983223647
1783002725684691500,3.79469140625,-0.09741524909138678,-0.8004983440116047,-0.5831232749350369
1783002725694743300,3.804743408203125,0.05027063607871532,-0.8059352743685245,-0.6143002842914312
1783002725704794400,3.81479443359375,0.05398059651255607,-0.7906795453086495,-0.6143841631826013
1783002725714846700,3.8248466796875,-0.13812076896727085,-0.7382070152714848,-0.5402223639067262
1783002725724897300,3.834897216796875,-0.3834925368636846,-0.6926181072682142,-0.40760194592140614
1783002725734949600,3.84494970703125,-0.4113619560420513,-0.6741156513720751,-0.2817755719903856
1783002725745000700,3.855000732421875,-0.39030221687853334,-0.6136717040643096,-0.17928345802612602
1783002725755052500,3.865052490234375,-0.41936347618997094,-0.4581809903621673,-0.20725809114463625
1783002725765103600,3.875103515625,-0.2653969033151865,-0.34641894374936816,-0.41082499962113794
1783002725775155500,3.885155517578125,-0.19798691638708113,-0.3943754576668143,-0.5321824845097959
1783002725785206500,3.89520654296875,-0.10776245558261871,-0.7592378206014633,-0.40726116965971887
1783002725795258600,3.905258544921875,-0.15902502530813217,-0.9614166357204318,-0.06995265714824199
1783002725805310500,3.915310546875,-0.46185704852640624,-0.9471601468309759,0.32403124391771854
1783002725815361500,3.925361572265625,-0.7455652690798044,-1.0882876963987946,0.48670843505784867
1783002725825413400,3.935413330078125,-0.9821002350479364,-1.1391752953320742,0.41158933505713935
1783002725835464400,3.94546435546875,-1.3878157096356152,-0.9127247932657598,0.4091531208861619
1783002725845516500,3.9555166015625,-1.7721967197716235,-0.6998816685304046,0.3880904591131955
1783002725855567400,3.9655673828125,-2.0292542492866517,-0.47790363570302724,0.16139438478797674
1783002725865619500,3.975619384765625,-2.18384684510529,-0.07048164945840835,0.0199650757946074
1783002725875670500,3.98567041015625,-2.0798270831823347,0.2653159470334649,-0.014455226331949234
1783002725885722400,3.995722412109375,-1.8407687362164258,0.36684710701107975,-0.0752879537615925
1783002725895773400,4.0057734375,-1.4947224251717328,0.4316922118872404,-0.08670118204914033
1783002725905825500,4.015825439453125,-1.3127040622889994,0.7175488426461816,-0.19405249954760073
1783002725915876400,4.02587646484375,-1.3672761949539183,1.1310878504663706,-0.23865853399336337
1783002725925928700,4.0359287109375,-1.4433756842941046,1.3983943867951631,-0.44889549481831487
1783002725935979500,4.0459794921875,-1.2158704124778508,1.4594412684321403,-0.5469149934131652
1783002725946031600,4.056031494140625,-0.7477391059875488,1.4459972649693489,-0.4889409433502704
1783002725956082700,4.066082763671875,-0.28374972160756584,1.3637784159660338,-0.40642676466219124
1783002725966134500,4.076134521484375,0.12444237222671509,1.1880810727983713,-0.24488486116230487
1783002725976186600,4.0861865234375,0.42931086970865723,1.0049366284951566,0.019051906472444532
1783002725986237400,4.096237548828125,0.7084674183070659,0.8183689317449927,0.36543417147323487
1783002725996289500,4.10628955078125,0.72878832180202,0.6902434870913624,0.6606804888028651
1783002726006340600,4.116340576171875,0.689326664507389,0.6215525204420089,0.8025644827611744
1783002726016392400,4.126392333984375,0.7342612002551555,0.6157406192928552,0.8560256585095077
1783002726026443500,4.136443603515625,0.6188152044326066,0.6504179649204015,1.0142330838244409
1783002726036495400,4.146495361328125,0.30272622475624084,0.5947343638822435,1.1830766155745833
1783002726046546400,4.15654638671875,0.14509703772068022,0.49065790333598847,1.3001976319372652
1783002726056598500,4.1665986328125,0.338621714001894,0.43838352621942756,1.2278291458189488
1783002726066649300,4.1766494140625,0.38758302104771136,0.5583522601634263,1.0575056777093559
1783002726076701400,4.186701416015625,0.045344870114326474,0.7558893869563936,0.9571390314664691
1783002726086752500,4.19675244140625,-0.21203765357136725,0.8608990366995334,0.8647150878563523
1783002726096804400,4.206804443359375,-0.1944195792943239,0.9089698246464133,0.8176050347004086
1783002726106855400,4.21685546875,-0.1825000089198351,1.0664017355442046,0.8098677915118634
1783002726116907500,4.226907470703125,-0.279791923892498,1.2790987298071383,0.7757907498650253
1783002726126959600,4.236959716796875,-0.4128337821602821,1.4259718372896313,0.753302000811696
1783002726137010700,4.2470107421875,-0.45577451374232764,1.4082602395102382,0.7025412431284784
1783002726147062500,4.2570625,-0.3247211989432573,1.3081871693864464,0.5877585335202514
1783002726157113600,4.267113525390625,-0.04719195928573608,1.2265811915844678,0.3533419479455799
1783002726167165400,4.27716552734375,0.11148059932291507,1.1805328493759035,0.16358736478760838
1783002726177216500,4.287216552734375,0.18959844274818896,1.1231474128559231,0.07568878964744508
1783002726187268600,4.2972685546875,0.27540157997906206,1.0333616357296704,0.19246091950722038
1783002726197319400,4.3073193359375,0.40167233667671676,0.8800631713747977,0.4319621879350394
1783002726207371500,4.31737158203125,0.5345043515861034,0.6463187129080296,0.6141113375905901
1783002726217422600,4.327422607421875,0.5624994429707527,0.5008654090955853,0.7485860051404685
1783002726227474400,4.337474365234375,0.6134621529668569,0.44087242042571306,0.7992283240757883
1783002726237525500,4.347525390625,0.5932721823751926,0.36245617857575413,0.7514593686196953
1783002726247578000,4.357578125,0.4416331756651401,0.29078473481088873,0.7319185095865279
1783002726257629200,4.367629150390625,0.3840250363051891,0.2878101029142737,0.6315136502251029
1783002726267681000,4.377680908203125,0.5843658223420382,0.2841068644821644,0.5586879218585789
1783002726277733000,4.387733154296875,0.701661829945445,0.22021569932997226,0.5729216143943369
1783002726287784200,4.3977841796875,0.6291717632740735,0.1203027882039547,0.6752559074483812
1783002726297836000,4.4078359375,0.5730015477627516,0.013617898724973201,0.7930928169954568
1783002726307887000,4.41788720703125,0.5388455956608057,-0.04714665883928537,0.7403012110717594
1783002726317939000,4.42793896484375,0.4351771313935518,-0.014798632942140101,0.712001437652111
1783002726327990000,4.437989990234375,0.3007505407691002,0.01804565203934908,0.6575992547266185
1783002726338042000,4.4480419921875,0.22913141171336174,-0.024340368269383905,0.5331874603012576
1783002726348093000,4.458093017578125,0.20154490112960338,-0.06193389360457659,0.4396432074243203
1783002726358145000,4.46814501953125,0.18582476942837237,-0.09542845918834209,0.3034476708985865
1783002726368196000,4.478196044921875,0.2341647297054529,-0.09145020320713519,0.21888646002020687
1783002726378248000,4.488248046875,0.3896411226212978,-0.12518296146094798,0.2112927534881979
1783002726388299000,4.498299072265625,0.37355624926090236,-0.1329074182331562,0.2589229215281084
1783002726398351000,4.50835107421875,0.3153670951426029,-0.1634215067014098,0.33821908801775424
1783002726408402000,4.51840185546875,0.43345220729708667,-0.3293745777070522,0.37605244999080895
1783002726418454300,4.528454345703125,0.5048100550681353,-0.4609942942172289,0.41362299630921334
1783002726428506000,4.538506103515625,0.39508945115506644,-0.50908144877702,0.4236540129907429
1783002726438557200,4.54855712890625,0.11978665537536144,-0.5720493616044521,0.41012339069042353
1783002726448609000,4.558609130859375,-0.07559972312450408,-0.6514250961363315,0.40109650955013926
1783002726458660000,4.56866015625,-0.14108312590420247,-0.6549462559998035,0.3595557444265112
1783002726468712200,4.578712158203125,-0.12570377046465872,-0.6296978329747915,0.31212098936084653
1783002726478763000,4.588762939453125,-0.08930559239387512,-0.6107984867155551,0.284802993520163
1783002726488815000,4.598815185546875,0.02539163088798523,-0.6423191218778491,0.2549655622044578
1783002726498866200,4.6088662109375,0.07714636804461479,-0.6201958451360464,0.23157738009337334
1783002726508918000,4.61891796875,0.05224982719719409,-0.6407607865199446,0.229341182006523
1783002726518969000,4.628968994140625,0.19385083949565887,-0.7877050595425069,0.21782628344278782
1783002726529021000,4.63902099609375,0.3237982388794422,-0.957364291589707,0.23750720853377133
1783002726539072000,4.649072021484375,0.27330197735130785,-1.0645675058543682,0.35461226014234126
1783002726549124000,4.6591240234375,0.3083259444594383,-1.1251622598096727,0.4252382865075022
1783002726559175000,4.6691748046875,0.35895196984708305,-1.1344897678643464,0.49531358365472405
1783002726569227000,4.67922705078125,0.35770635370016096,-1.1745122739121316,0.6145207221090794
1783002726579279000,4.689279052734375,0.33726503869593144,-1.2021408700719476,0.693436291783303
1783002726589330200,4.699330078125,0.30035657301545143,-1.1679629983991384,0.697350834878534
1783002726599382300,4.70938232421875,0.28240356769561764,-1.126577095043659,0.6558655628018081
1783002726609433000,4.71943310546875,0.10455869110524654,-1.0458826791286469,0.6658874828614294
1783002726619485200,4.729485107421875,-0.01610416258275509,-0.9852589913398027,0.5954571982640773
1783002726629536300,4.739536376953125,-0.021365444111824033,-0.9478802777990698,0.4254286945130676
1783002726639588000,4.749588134765625,0.07774141132831573,-0.8131284007430076,0.2647877036419697
1783002726649639200,4.75963916015625,0.10520575683712959,-0.7121252101622522,0.29525731364768
1783002726659691000,4.76969091796875,0.023247604596614835,-0.8164560838609933,0.4886832422621548
1783002726669742000,4.7797421875,0.06618132191598415,-1.3401060100860893,0.9449101028818636
1783002726679794200,4.789794189453125,0.08264087380766869,-1.5336330244548617,1.2891060368195175
1783002726689845000,4.799844970703125,-0.26275311080813407,-0.8857375637494027,1.1777273635011165
1783002726699897000,4.80989697265625,-0.7572644747018814,-0.42316184555962677,0.8972019377022981
1783002726709948200,4.8199482421875,-1.1275789655625819,-0.6254216169603168,0.6544518966116011
1783002726720000000,4.83,-1.2778040138214826,-0.8354461771436035,0.540763631176576
1783002726730052000,4.840052001953125,-1.3267881172209977,-0.5397375760644674,0.5010645118642598
1783002726740103000,4.85010302734375,-1.277542148014903,-0.1788701279848814,0.22920690636867655
1783002726750155000,4.860155029296875,-1.3983558083504437,0.12333747972473501,-0.14413342598606832
1783002726760206000,4.8702060546875,-1.3213579088658094,0.3547371286310255,-0.4641436616262421
1783002726770258200,4.880258056640625,-0.8939724542617797,0.5392623597681522,-0.6870578427925705
1783002726780309200,4.890309326171875,-0.5262754524230957,0.590453325562179,-0.7582290088851005
1783002726790361000,4.900361083984375,-0.3678735274493694,0.5800799617163837,-0.5834469173988327
1783002726800412200,4.910412109375,-0.41515901023745533,0.6396433267973363,-0.28338054123530165
1783002726810464300,4.92046435546875,-0.5769137527704239,0.7273924835294485,-0.1288239848444238
1783002726820515000,4.93051513671875,-0.6201350548595189,0.763305070040375,-0.12235159222623333
1783002726830567200,4.940567138671875,-0.4519470644086599,0.7762491611570119,-0.20563794259689747
1783002726840618200,4.9506181640625,-0.43172552963495253,0.8076439779825508,-0.32210403871480375
1783002726850670000,4.960670166015625,-0.5221054732620716,0.8289119530692696,-0.3783898434298113
1783002726860722200,4.97072216796875,-0.4580775299876928,0.8436331368610263,-0.38633155968189237
1783002726870773000,4.98077294921875,-0.31272739428877827,0.8854109621435403,-0.4070671814575791
1783002726880825000,4.9908251953125,-0.2803150709837675,0.937069399318844,-0.46923579713348296
1783002726890876200,5.000876220703125,-0.25803952628970145,0.8674974120512604,-0.4888467257281765
1783002726900928000,5.010927978515625,-0.19673545502126216,0.8250719365149736,-0.43493776967972514
1783002726910979000,5.02097900390625,-0.11289280420839785,0.8942632539018988,-0.4133025687158107
1783002726921031000,5.031031005859375,-0.18966098659038544,1.0261401600435376,-0.4133688754176721
1783002726931082000,5.04108203125,-0.2838508438944816,1.117842730576545,-0.4810138036128133
1783002726941134000,5.051134033203125,-0.5188087698042393,1.2301903219923376,-0.5514692957166581
1783002726951185000,5.061184814453125,-0.7955494894325733,1.3726172637209295,-0.6920410380326211
1783002726961237200,5.0712373046875,-0.857110165810585,1.5161413530364631,-0.8309425090488046
1783002726971288000,5.0812880859375,-0.6553291178375482,1.6398403595499693,-0.927115137667954
1783002726981340200,5.091340087890625,-0.32758126454949377,1.680029015944898,-0.995600425677374
1783002726991392300,5.101392333984375,-0.17676292657256126,1.6509150035329163,-0.9242661779776215
1783002727001443000,5.111443115234375,-0.10725976675748825,1.499567527115345,-0.7519017786249518
1783002727011495200,5.1214951171875,0.009262918385863303,1.3964770088665186,-0.5303178596816956
1783002727021546200,5.131546142578125,0.16169395225644112,1.3035212234020233,-0.32604462956674396
1783002727031598000,5.14159814453125,0.11522095489501953,1.186446165072918,-0.1947043145198375
1783002727041649200,5.151649169921875,-0.08810849156379699,1.1261886802479624,-0.23406452073398976
1783002727051701000,5.161700927734375,-0.19453122297525405,0.9898131475128232,-0.3245214385874569
1783002727061752000,5.171751953125,-0.09558628009855746,0.8118871685102581,-0.3869803789794445
1783002727071804200,5.18180419921875,-0.08152385247647762,0.7278432960368693,-0.33529355595987287
1783002727081855000,5.19185498046875,-0.007166822889447212,0.6477788485884666,-0.3272828661248088
1783002727091907000,5.201906982421875,0.08227028692960739,0.5481120211780071,-0.2829091973965056
1783002727101958100,5.211958251953125,0.18820961873829364,0.40587841006442904,-0.27322246410800144
1783002727112010000,5.222010009765625,0.34316286456286904,0.33896541287302967,-0.27842090953392906
1783002727122061000,5.23206103515625,0.36981004846990106,0.3079005586542189,-0.233982815533597
1783002727132113000,5.24211279296875,0.2716612244069576,0.2096232859060168,-0.25186754139019174
1783002727142165200,5.252165283203125,0.21165771434307099,0.12139116796255112,-0.2806454719819128
1783002727152216300,5.26221630859375,0.29435470225214955,0.14173048389703036,-0.26343844445748255
1783002727162268200,5.27226806640625,0.4158651126801967,0.21964783631414173,-0.27056014956356955
1783002727172319200,5.2823193359375,0.36437399489581584,0.2388315524727106,-0.2693173281619325
1783002727182371000,5.29237109375,0.25694179418087004,0.18174246855080126,-0.30903993794769047
1783002727192422100,5.302422119140625,0.2245095971316099,0.15172843855917453,-0.3069366089928895
1783002727202474200,5.31247412109375,0.17074644276201725,0.15073840460851787,-0.3042641931795515
1783002727212525000,5.322525146484375,0.10781564707458019,0.1171272269077599,-0.3763456973163411
1783002727222577200,5.3325771484375,0.03318973741829395,0.09035232496783137,-0.4876869612338021
1783002727232628200,5.342628173828125,-0.045565234866738316,0.1186819090038538,-0.5008811911866069
1783002727242680000,5.35268017578125,-0.10223170946240424,0.1878049834601581,-0.479474903607741
1783002727252731000,5.36273095703125,-0.10857669457495212,0.2111165932036936,-0.4313971744634211
1783002727262782700,5.37278271484375,-0.11601122848987579,0.19819982848539947,-0.399917382768169
1783002727272834800,5.382834716796875,-0.18830431128442288,0.19928645467832684,-0.4092218022082001
1783002727282886000,5.392885986328125,-0.17325579523444173,0.1822118396282196,-0.5001144811304286
1783002727292937700,5.402937744140625,-0.12262860080301762,0.12513941458016634,-0.5799596232723444
1783002727302988800,5.41298876953125,-0.15667174018025398,0.016477818200737238,-0.5409279548928141
1783002727313040600,5.42304052734375,-0.11722294236719608,-0.09179434046968817,-0.5119434871446341
1783002727323091700,5.433091796875,0.09992167895436287,-0.20424919165223834,-0.5272449915749952
1783002727333144000,5.44314404296875,0.22101357170939445,-0.24687413528338073,-0.503180371507071
1783002727343194600,5.453194580078125,0.32993338063359257,-0.2651598796889186,-0.3997490404639393
1783002727353247000,5.4632470703125,0.5150146382182836,-0.3160254129208624,-0.22222608930431306
1783002727363298000,5.473298095703125,0.673362202656269,-0.3893364405862987,-0.0023607012493535875
1783002727373350000,5.483349853515625,0.8399450959980488,-0.5369552518695593,-0.03187492849268019
1783002727383401000,5.49340087890625,0.9873404737889766,-0.6567264174148439,-0.2157522901803255
1783002727393452800,5.503452880859375,1.0381921246260404,-0.7008611810870469,-0.2572677016669884
1783002727403505000,5.5135048828125,0.9693775315970182,-0.7533160293370484,-0.16322941819541156
1783002727413556000,5.523555908203125,0.8785615346401929,-0.8135903191663324,-0.02056139771994203
1783002727423607800,5.53360791015625,0.7649059293657541,-0.7676647265546024,0.12743983700964598
1783002727433659000,5.543658935546875,0.6962088252365589,-0.6738423873886465,0.14946096855122595
1783002727443710700,5.553710693359375,0.5464782824963331,-0.6148227737955748,0.09164353382214903
1783002727453761800,5.56376171875,0.36191374226212497,-0.5807761272870003,0.020552228032797572
1783002727463814000,5.57381396484375,0.20840894168019294,-0.5100469328083098,-0.07073584341518581
1783002727473864700,5.58386474609375,-0.07429097861349582,-0.3467546054445207,-0.19260241033714265
1783002727483916800,5.593916748046875,-0.4813368250221014,-0.2534936995536089,-0.31726463585961606
1783002727493968000,5.6039677734375,-0.6211836871296167,-0.3017328298047185,-0.3897036664634943
1783002727504019700,5.614019775390625,-0.6285755509465932,-0.24297113649547097,-0.28784144790060817
1783002727514070800,5.62407080078125,-0.7467530175596475,-0.14544906602874397,-0.1968815124284476
1783002727524122600,5.63412255859375,-0.8458487670838832,-0.09727043379321694,-0.17532945970334113
1783002727534175000,5.644175048828125,-0.8776052568286656,-0.0322604937441647,-0.12384937476962804
1783002727544226000,5.65422607421875,-0.8388327508419752,-0.030289047540724277,-0.07561565134599804
1783002727554278000,5.66427783203125,-0.8580261116117238,-0.22920842247232792,-0.009837576468661426
1783002727564329000,5.674328857421875,-0.7255956632405519,-0.4228656390920281,0.02202200832441449
1783002727574380800,5.684380859375,-0.6678373017549515,-0.24385128033086656,0.13326105397641658
1783002727584431900,5.694431884765625,-0.8714905733406543,0.12611322804838418,0.231755403541401
1783002727594484000,5.70448388671875,0.8241267646193504,0.4400748403072357,0.696393241892755
1783002727604534800,5.71453466796875,-0.44773207706213,0.22334216078743338,0.7305233289010822
1783002727614587000,5.7245869140625,-2.80819513374567,0.19918343269526959,0.2690868438743055
1783002727624638000,5.734637939453125,-2.248639343011379,0.6140818923003971,0.09214534586444496
1783002727634689800,5.744689697265625,-1.5095891549140215,0.9040819064743816,-0.1498630830787122
1783002727644740900,5.754740966796875,-1.6747013911813498,0.8709881767764687,-0.5133936128877103
1783002727654792700,5.764792724609375,-1.5354460652261972,0.8492916010141373,-0.5499836602687835
1783002727664843800,5.77484375,-1.3448749780535698,0.8909928539291023,-0.43694823271930217
1783002727674896000,5.784895751953125,-1.164836390811205,0.9709218384295701,-0.09324965384453535
1783002727684947700,5.79494775390625,-0.8204711647212505,0.9690230190709233,0.11592398859784006
