time,seconds_elapsed,z,y,x
1783002721961862700,0.071862548828125,-0.952728271484375,-0.341827392578125,-0.0063629150390625
1783002721971913500,0.08191357421875,-0.95758056640625,-0.3470916748046875,0.0083770751953125
1783002721981965600,0.091965576171875,-0.95452880859375,-0.358245849609375,0.0193634033203125
1783002721992017400,0.102017333984375,-0.95672607421875,-0.3714599609375,0.0177154541015625
1783002722002068500,0.112068359375,-0.963409423828125,-0.3768157958984375,0.013824462890625
1783002722012119600,0.12211962890625,-0.9673919677734375,-0.3710174560546875,0.0053558349609375
1783002722022171400,0.13217138671875,-0.9511260986328125,-0.366455078125,-0.01544189453125
1783002722032223500,0.142223388671875,-0.925018310546875,-0.3709259033203125,-0.04095458984375
1783002722042274600,0.152274658203125,-0.90423583984375,-0.37158203125,-0.04119873046875
1783002722052326400,0.162326416015625,-0.9051055908203125,-0.371795654296875,-0.028717041015625
1783002722062377500,0.17237744140625,-0.911285400390625,-0.3770904541015625,-0.012969970703125
1783002722072429300,0.18242919921875,-0.9080810546875,-0.39385986328125,0.0059967041015625
1783002722082480400,0.19248046875,-0.92193603515625,-0.4055023193359375,0.017608642578125
1783002722092532500,0.202532470703125,-0.9471435546875,-0.4090728759765625,0.0256195068359375
1783002722102583300,0.212583251953125,-0.9702606201171875,-0.406158447265625,0.0432281494140625
1783002722112635600,0.2226357421875,-0.9660491943359375,-0.4077911376953125,0.03558349609375
1783002722122686500,0.2326865234375,-0.9665985107421875,-0.3955230712890625,0.0027313232421875
1783002722132738600,0.242738525390625,-0.9830169677734375,-0.3719940185546875,-0.0190277099609375
1783002722142789600,0.25278955078125,-0.98565673828125,-0.3643035888671875,-0.0225982666015625
1783002722152841500,0.262841552734375,-0.9766082763671875,-0.36761474609375,-0.0165252685546875
1783002722162892500,0.272892578125,-0.9649200439453125,-0.3704376220703125,-0.004150390625
1783002722172944600,0.282944580078125,-0.953765869140625,-0.3708343505859375,0.0048370361328125
1783002722182995500,0.292995361328125,-0.9512176513671875,-0.37274169921875,0.0093231201171875
1783002722193047600,0.303047607421875,-0.9516448974609375,-0.3725433349609375,0.008148193359375
1783002722203098600,0.3130986328125,-0.9562225341796875,-0.373046875,0.007659912109375
1783002722213150500,0.323150390625,-0.9815826416015625,-0.3716278076171875,0.009246826171875
1783002722223201500,0.333201416015625,-0.97869873046875,-0.371429443359375,0.0081787109375
1783002722233253400,0.34325341796875,-0.9514312744140625,-0.3706207275390625,-0.003692626953125
1783002722243305200,0.35330517578125,-0.95306396484375,-0.366455078125,-0.009735107421875
1783002722253357000,0.363357177734375,-0.970001220703125,-0.36077880859375,-0.010345458984375
1783002722263408000,0.373408203125,-0.97357177734375,-0.3602142333984375,-0.014068603515625
1783002722273460200,0.383460205078125,-0.966827392578125,-0.358978271484375,-0.0178680419921875
1783002722283511000,0.393510986328125,-0.9687042236328125,-0.3557586669921875,-0.015380859375
1783002722293563100,0.403563232421875,-0.9782562255859375,-0.3556365966796875,-0.012420654296875
1783002722303614200,0.4136142578125,-0.979461669921875,-0.361175537109375,-0.0157928466796875
1783002722313666000,0.423666015625,-0.9750518798828125,-0.3631744384765625,-0.02862548828125
1783002722323717000,0.433717041015625,-0.9776763916015625,-0.3576507568359375,-0.036529541015625
1783002722333769200,0.443769287109375,-0.987152099609375,-0.3499755859375,-0.044586181640625
1783002722343820000,0.453820068359375,-0.99188232421875,-0.3521270751953125,-0.046600341796875
1783002722353872400,0.463872314453125,-0.98394775390625,-0.3596649169921875,-0.0536041259765625
1783002722363923200,0.473923095703125,-0.9627685546875,-0.3748779296875,-0.0548858642578125
1783002722373975300,0.483975341796875,-0.93426513671875,-0.4123992919921875,-0.028533935546875
1783002722384026400,0.4940263671875,-0.9011993408203125,-0.4446563720703125,0.0163726806640625
1783002722394078200,0.504078125,-0.8688812255859375,-0.442779541015625,0.037567138671875
1783002722404129300,0.51412939453125,-0.8414154052734375,-0.4327545166015625,0.03302001953125
1783002722414181000,0.52418115234375,-0.87042236328125,-0.4010467529296875,0.01715087890625
1783002722424232200,0.534232177734375,-0.9622344970703125,-0.35302734375,-0.0043182373046875
1783002722434284300,0.5442841796875,-1.065216064453125,-0.319976806640625,-0.031463623046875
1783002722444335000,0.554335205078125,-1.14666748046875,-0.30157470703125,-0.041778564453125
1783002722454387200,0.56438720703125,-1.1808624267578125,-0.28369140625,-0.0435638427734375
1783002722464438300,0.574438232421875,-1.183013916015625,-0.27532958984375,-0.069183349609375
1783002722474490000,0.584489990234375,-1.162078857421875,-0.25543212890625,-0.08770751953125
1783002722484541200,0.594541259765625,-1.14776611328125,-0.206695556640625,-0.0858154296875
1783002722494593000,0.604593017578125,-1.156890869140625,-0.1618499755859375,-0.07366943359375
1783002722504644000,0.61464404296875,-1.1640167236328125,-0.1549224853515625,-0.0720977783203125
1783002722514696200,0.6246962890625,-1.15020751953125,-0.1741180419921875,-0.0745391845703125
1783002722524747000,0.6347470703125,-1.1434478759765625,-0.1781005859375,-0.0793914794921875
1783002722534799000,0.644799072265625,-1.1314849853515625,-0.1844024658203125,-0.08892822265625
1783002722544850200,0.65485009765625,-1.106109619140625,-0.2039947509765625,-0.0958404541015625
1783002722554902300,0.66490234375,-1.0751800537109375,-0.22705078125,-0.09564208984375
1783002722564953000,0.674953125,-1.0607757568359375,-0.2448883056640625,-0.0725250244140625
1783002722575005200,0.685005126953125,-1.0628509521484375,-0.2730865478515625,-0.0272979736328125
1783002722585056300,0.69505615234375,-1.064727783203125,-0.2913055419921875,0.002899169921875
1783002722595108400,0.7051083984375,-1.0559539794921875,-0.291473388671875,0.01898193359375
1783002722605160200,0.71516015625,-1.057342529296875,-0.2811737060546875,0.033721923828125
1783002722615211300,0.725211181640625,-1.0575714111328125,-0.277618408203125,0.0514068603515625
1783002722625263000,0.73526318359375,-1.045257568359375,-0.2799835205078125,0.068023681640625
1783002722635314200,0.745314208984375,-1.0276641845703125,-0.2797088623046875,0.0795745849609375
1783002722645366300,0.7553662109375,-1.0145416259765625,-0.27557373046875,0.083160400390625
1783002722655417000,0.7654169921875,-1.0214691162109375,-0.265533447265625,0.0875091552734375
1783002722665469200,0.77546923828125,-1.019317626953125,-0.2595367431640625,0.087066650390625
1783002722675520300,0.785520263671875,-1.0091400146484375,-0.256805419921875,0.076568603515625
1783002722685572000,0.795572021484375,-1.0016937255859375,-0.246368408203125,0.0656280517578125
1783002722695623200,0.805623046875,-0.9940185546875,-0.23028564453125,0.0562286376953125
1783002722705675000,0.815675048828125,-0.9936370849609375,-0.216094970703125,0.04742431640625
1783002722715726000,0.82572607421875,-0.9922943115234375,-0.2122955322265625,0.04400634765625
1783002722725778200,0.835778076171875,-0.98681640625,-0.212310791015625,0.0482025146484375
1783002722735829000,0.8458291015625,-0.975921630859375,-0.2173004150390625,0.0497894287109375
1783002722745881300,0.85588134765625,-0.938873291015625,-0.228179931640625,0.042510986328125
1783002722755932200,0.86593212890625,-0.8959808349609375,-0.23583984375,0.0298614501953125
1783002722765984300,0.875984375,-0.8773040771484375,-0.240631103515625,0.0255126953125
1783002722776035300,0.886035400390625,-0.8622283935546875,-0.25494384765625,0.0367584228515625
1783002722786087200,0.896087158203125,-0.830413818359375,-0.2735748291015625,0.039276123046875
1783002722796138200,0.90613818359375,-0.824066162109375,-0.279052734375,0.03125
1783002722806190300,0.9161904296875,-0.8417205810546875,-0.2745819091796875,0.0291595458984375
1783002722816241200,0.9262412109375,-0.8438720703125,-0.276153564453125,0.0283203125
1783002722826293200,0.936293212890625,-0.8359375,-0.28289794921875,0.0363922119140625
1783002722836344300,0.94634423828125,-0.8370361328125,-0.2908935546875,0.0589141845703125
1783002722846396200,0.956396240234375,-0.83648681640625,-0.3043212890625,0.0838775634765625
1783002722856447200,0.966447265625,-0.830352783203125,-0.317596435546875,0.095977783203125
1783002722866499000,0.9764990234375,-0.83709716796875,-0.3187408447265625,0.1009674072265625
1783002722876550100,0.986550048828125,-0.83984375,-0.3185577392578125,0.094696044921875
1783002722886602200,0.996602294921875,-0.8439788818359375,-0.322418212890625,0.076446533203125
1783002722896653000,1.006653076171875,-0.85943603515625,-0.3193511962890625,0.0656890869140625
1783002722906705200,1.016705078125,-0.877288818359375,-0.3128204345703125,0.06585693359375
1783002722916756200,1.026756103515625,-0.8899078369140625,-0.3123626708984375,0.069000244140625
1783002722926808000,1.03680810546875,-0.895172119140625,-0.3177947998046875,0.0696258544921875
1783002722936859100,1.046859130859375,-0.89935302734375,-0.3214874267578125,0.0643768310546875
1783002722946911000,1.056910888671875,-0.9051361083984375,-0.3216094970703125,0.0608062744140625
1783002722956962000,1.066962158203125,-0.9150390625,-0.3253631591796875,0.0621337890625
1783002722967014400,1.077014404296875,-0.918731689453125,-0.3357391357421875,0.0568389892578125
1783002722977065200,1.087065185546875,-0.920257568359375,-0.3419036865234375,0.0538482666015625
1783002722987117300,1.097117431640625,-0.91558837890625,-0.343780517578125,0.0439605712890625
1783002722997168400,1.10716845703125,-0.9135894775390625,-0.346160888671875,0.0322265625
1783002723007220200,1.11722021484375,-0.9218597412109375,-0.3517303466796875,0.03460693359375
1783002723017271300,1.127271240234375,-0.923126220703125,-0.3594207763671875,0.039581298828125
1783002723027323100,1.1373232421875,-0.91876220703125,-0.367919921875,0.0442657470703125
1783002723037374200,1.147374267578125,-0.91339111328125,-0.3774261474609375,0.0532684326171875
1783002723047426300,1.15742626953125,-0.908233642578125,-0.389190673828125,0.063995361328125
1783002723057477000,1.16747705078125,-0.9160308837890625,-0.4033660888671875,0.07122802734375
1783002723067529200,1.177529296875,-0.92657470703125,-0.412353515625,0.079498291015625
1783002723077580300,1.187580322265625,-0.9209747314453125,-0.4132537841796875,0.0755462646484375
1783002723087632100,1.197632080078125,-0.9187469482421875,-0.4105682373046875,0.062591552734375
1783002723097683200,1.20768310546875,-0.925079345703125,-0.408782958984375,0.0601959228515625
1783002723107735000,1.217735107421875,-0.9205474853515625,-0.4140777587890625,0.0607452392578125
1783002723117787100,1.227787109375,-0.911224365234375,-0.4250030517578125,0.0617523193359375
1783002723127838200,1.237838134765625,-0.909210205078125,-0.4312286376953125,0.0626068115234375
1783002723137890000,1.24789013671875,-0.9109344482421875,-0.4334564208984375,0.058746337890625
1783002723147941000,1.257941162109375,-0.9136962890625,-0.4347076416015625,0.0580291748046875
1783002723157993200,1.2679931640625,-0.912567138671875,-0.4368133544921875,0.064208984375
1783002723168044000,1.2780439453125,-0.920684814453125,-0.437103271484375,0.068817138671875
1783002723178096400,1.288096435546875,-0.9385528564453125,-0.4367828369140625,0.0768585205078125
1783002723188147200,1.298147216796875,-0.944305419921875,-0.4371185302734375,0.0727691650390625
1783002723198199300,1.30819921875,-0.93841552734375,-0.4322967529296875,0.052154541015625
1783002723208250400,1.31825048828125,-0.93853759765625,-0.4228057861328125,0.0316314697265625
1783002723218302200,1.32830224609375,-0.9390106201171875,-0.4385986328125,0.02703857421875
1783002723228353300,1.338353271484375,-0.916534423828125,-0.509765625,0.055816650390625
1783002723238404900,1.34840478515625,-0.9083404541015625,-0.5386199951171875,0.07525634765625
1783002723248455700,1.35845556640625,-0.9500885009765625,-0.4852294921875,0.065032958984375
1783002723258507800,1.3685078125,-1.00811767578125,-0.445068359375,0.0611724853515625
1783002723268558800,1.378558837890625,-1.05584716796875,-0.4410247802734375,0.049041748046875
1783002723278611000,1.38861083984375,-1.09295654296875,-0.425872802734375,0.0457611083984375
1783002723288661800,1.398661865234375,-1.147247314453125,-0.3922576904296875,0.0341033935546875
1783002723298713900,1.4087138671875,-1.1613311767578125,-0.3574981689453125,0.008514404296875
1783002723308765000,1.418764892578125,-1.1589813232421875,-0.32611083984375,-0.0166473388671875
1783002723318817000,1.428817138671875,-1.1467742919921875,-0.303314208984375,-0.0372467041015625
1783002723328867800,1.438867919921875,-1.1175079345703125,-0.2859344482421875,-0.05224609375
1783002723338920000,1.448919921875,-1.0795440673828125,-0.2679595947265625,-0.0626220703125
1783002723348971000,1.458970947265625,-1.04638671875,-0.2454833984375,-0.0647125244140625
1783002723359022800,1.46902294921875,-1.032470703125,-0.2198333740234375,-0.077545166015625
1783002723369074000,1.479073974609375,-1.0376739501953125,-0.2025146484375,-0.07958984375
1783002723379125800,1.489125732421875,-1.010986328125,-0.2013092041015625,-0.07098388671875
1783002723389176800,1.4991767578125,-0.9675750732421875,-0.2117919921875,-0.0642547607421875
1783002723399229000,1.50922900390625,-0.9559783935546875,-0.21929931640625,-0.0588531494140625
1783002723409279700,1.51927978515625,-0.95458984375,-0.2251129150390625,-0.0531005859375
1783002723419331800,1.529331787109375,-0.953369140625,-0.2259368896484375,-0.0559539794921875
1783002723429383000,1.5393828125,-0.9623870849609375,-0.2234954833984375,-0.06292724609375
1783002723439434800,1.549434814453125,-0.9864349365234375,-0.2225494384765625,-0.07220458984375
1783002723449485800,1.55948583984375,-0.99896240234375,-0.231414794921875,-0.078369140625
1783002723459537700,1.56953759765625,-0.9990234375,-0.23944091796875,-0.083587646484375
1783002723469588700,1.579588623046875,-0.9996337890625,-0.2378692626953125,-0.0912628173828125
1783002723479640800,1.589640869140625,-0.994873046875,-0.233489990234375,-0.1055908203125
1783002723489691600,1.599691650390625,-0.982757568359375,-0.2333831787109375,-0.1283416748046875
1783002723499744000,1.609743896484375,-0.987548828125,-0.2360687255859375,-0.1385955810546875
1783002723509795000,1.619795166015625,-0.9676971435546875,-0.2403717041015625,-0.1446685791015625
1783002723519847000,1.629846923828125,-0.92864990234375,-0.24560546875,-0.157958984375
1783002723529898000,1.63989794921875,-0.9083709716796875,-0.249603271484375,-0.1561126708984375
1783002723539949800,1.64994970703125,-0.8864593505859375,-0.25787353515625,-0.1363067626953125
1783002723550002000,1.660001953125,-0.8695068359375,-0.27459716796875,-0.11572265625
1783002723560053000,1.670052978515625,-0.863128662109375,-0.2955169677734375,-0.090850830078125
1783002723570103800,1.680103759765625,-0.85791015625,-0.312713623046875,-0.067413330078125
1783002723580156000,1.690156005859375,-0.8599395751953125,-0.323822021484375,-0.048309326171875
1783002723590207700,1.700207763671875,-0.855194091796875,-0.33270263671875,-0.0338134765625
1783002723600258800,1.7102587890625,-0.8446197509765625,-0.3391571044921875,-0.0364990234375
1783002723610311000,1.720310791015625,-0.8495025634765625,-0.3373565673828125,-0.04876708984375
1783002723620361700,1.73036181640625,-0.8637237548828125,-0.3390960693359375,-0.0570831298828125
1783002723630413800,1.740413818359375,-0.86920166015625,-0.344573974609375,-0.0626983642578125
1783002723640465000,1.75046484375,-0.888641357421875,-0.34588623046875,-0.0659027099609375
1783002723650516700,1.760516845703125,-0.8933868408203125,-0.3459014892578125,-0.071014404296875
1783002723660567800,1.77056787109375,-0.8753204345703125,-0.3435516357421875,-0.076873779296875
1783002723670619600,1.78061962890625,-0.8682403564453125,-0.337890625,-0.080322265625
1783002723680670700,1.790670654296875,-0.880889892578125,-0.33355712890625,-0.0789337158203125
1783002723690722800,1.800722900390625,-0.8886566162109375,-0.331787109375,-0.0732879638671875
1783002723700773600,1.810773681640625,-0.8816986083984375,-0.3363037109375,-0.0644683837890625
1783002723710826000,1.820825927734375,-0.8639373779296875,-0.34063720703125,-0.058746337890625
1783002723720877000,1.830876953125,-0.8533935546875,-0.3421630859375,-0.053314208984375
1783002723730929000,1.840928955078125,-0.8719635009765625,-0.3396453857421875,-0.0488739013671875
1783002723740980000,1.85097998046875,-0.898712158203125,-0.3382720947265625,-0.05035400390625
1783002723751031800,1.86103173828125,-0.90423583984375,-0.3388214111328125,-0.0583038330078125
1783002723761083000,1.871082763671875,-0.904998779296875,-0.3392791748046875,-0.0672149658203125
1783002723771135000,1.881135009765625,-0.9079742431640625,-0.3441619873046875,-0.065948486328125
1783002723781185800,1.891185791015625,-0.9231719970703125,-0.35333251953125,-0.058319091796875
1783002723791238000,1.90123779296875,-0.9336090087890625,-0.362548828125,-0.051300048828125
1783002723801289000,1.9112890625,-0.91693115234375,-0.3755035400390625,-0.0556793212890625
1783002723811340800,1.9213408203125,-0.9058380126953125,-0.382659912109375,-0.0531768798828125
1783002723821392000,1.931391845703125,-0.909088134765625,-0.3922576904296875,-0.045684814453125
1783002723831443700,1.941443603515625,-0.9214019775390625,-0.403533935546875,-0.0371551513671875
1783002723841494800,1.951494873046875,-0.9491729736328125,-0.4072113037109375,-0.028106689453125
1783002723851547000,1.961546875,-0.9613037109375,-0.415679931640625,-0.0116119384765625
1783002723861597700,1.97159765625,-0.949127197265625,-0.4238433837890625,-0.0106964111328125
1783002723871649800,1.98164990234375,-0.9472503662109375,-0.4207000732421875,-0.0193634033203125
1783002723881700900,1.991700927734375,-0.96612548828125,-0.4157562255859375,-0.022308349609375
1783002723891752700,2.001752685546875,-0.9696044921875,-0.4170989990234375,-0.0230712890625
1783002723901803800,2.0118037109375,-0.9425506591796875,-0.422119140625,-0.0255126953125
1783002723911855900,2.02185595703125,-0.9256591796875,-0.4270172119140625,-0.020965576171875
1783002723921908000,2.031907958984375,-0.929412841796875,-0.4295654296875,-0.0099945068359375
1783002723931959000,2.041958984375,-0.9366455078125,-0.43402099609375,-0.0010833740234375
1783002723942011000,2.052010986328125,-0.9394989013671875,-0.4409332275390625,0.0025177001953125
1783002723952062000,2.06206201171875,-0.9393768310546875,-0.447509765625,0.005035400390625
1783002723962113800,2.07211376953125,-0.9361724853515625,-0.4475860595703125,0.01092529296875
1783002723972164900,2.082164794921875,-0.929046630859375,-0.4452667236328125,0.0184478759765625
1783002723982217000,2.092217041015625,-0.9284515380859375,-0.4429168701171875,0.02294921875
1783002723992267800,2.102267822265625,-0.935516357421875,-0.438873291015625,0.0272216796875
1783002724002320000,2.11231982421875,-0.950225830078125,-0.429962158203125,0.030181884765625
1783002724012371000,2.122370849609375,-0.9557952880859375,-0.4218292236328125,0.0250091552734375
1783002724022422800,2.1324228515625,-0.95556640625,-0.413543701171875,0.0145721435546875
1783002724032473900,2.142473876953125,-0.9543609619140625,-0.409271240234375,0.0045166015625
1783002724042525700,2.152525634765625,-0.9603729248046875,-0.41180419921875,0.0062408447265625
1783002724052576800,2.16257666015625,-0.9598236083984375,-0.4332733154296875,0.026336669921875
1783002724062628900,2.17262890625,-0.926727294921875,-0.4756622314453125,0.0478057861328125
1783002724072679700,2.1826796875,-0.9166717529296875,-0.487030029296875,0.0626983642578125
1783002724082731800,2.192731689453125,-0.9538726806640625,-0.4706878662109375,0.0776214599609375
1783002724092782800,2.202782958984375,-0.9761199951171875,-0.4686126708984375,0.0753936767578125
1783002724102835000,2.2128349609375,-0.981201171875,-0.4664154052734375,0.061737060546875
1783002724112886000,2.222885986328125,-1.0130615234375,-0.4429168701171875,0.0554046630859375
1783002724122937900,2.232937744140625,-1.0481719970703125,-0.4213714599609375,0.046722412109375
1783002724132989000,2.242989013671875,-1.0761871337890625,-0.4080657958984375,0.0272369384765625
1783002724143040800,2.253040771484375,-1.08929443359375,-0.386138916015625,0.0109405517578125
1783002724153091800,2.263091796875,-1.0843505859375,-0.353240966796875,-0.0009765625
1783002724163144000,2.27314404296875,-1.08013916015625,-0.323760986328125,-0.0069580078125
1783002724173195000,2.283195068359375,-1.0825958251953125,-0.30426025390625,-0.0108184814453125
1783002724183246800,2.293246826171875,-1.0813446044921875,-0.28790283203125,-0.0150146484375
1783002724193298000,2.3032978515625,-1.0574188232421875,-0.26568603515625,-0.012664794921875
1783002724203349800,2.313349853515625,-1.025787353515625,-0.2455902099609375,-0.007568359375
1783002724213401900,2.32340185546875,-0.9969482421875,-0.2321624755859375,-0.0015869140625
1783002724223453000,2.333452880859375,-0.9602813720703125,-0.23150634765625,0.0072174072265625
1783002724233504800,2.3435048828125,-0.9163665771484375,-0.242706298828125,0.022705078125
1783002724243555800,2.353555908203125,-0.8883819580078125,-0.257232666015625,0.0543670654296875
1783002724253607700,2.363607666015625,-0.874114990234375,-0.2794647216796875,0.0833892822265625
1783002724263658800,2.37365869140625,-0.867828369140625,-0.304473876953125,0.10516357421875
1783002724273710800,2.3837109375,-0.8717803955078125,-0.31915283203125,0.1186065673828125
1783002724283761700,2.39376171875,-0.8862762451171875,-0.323211669921875,0.134124755859375
1783002724293814000,2.40381396484375,-0.9116363525390625,-0.33599853515625,0.14697265625
1783002724303864800,2.41386474609375,-0.9316864013671875,-0.3452301025390625,0.148712158203125
1783002724313917000,2.4239169921875,-0.93841552734375,-0.3419952392578125,0.1390228271484375
1783002724323968000,2.433968017578125,-0.9594879150390625,-0.3287506103515625,0.1273193359375
1783002724334019800,2.444019775390625,-0.9889984130859375,-0.312713623046875,0.1158447265625
1783002724344071000,2.45407080078125,-0.9852142333984375,-0.3010406494140625,0.1001739501953125
1783002724354122800,2.464122802734375,-0.9770965576171875,-0.2861480712890625,0.08624267578125
1783002724364173800,2.474173828125,-0.98150634765625,-0.2712554931640625,0.08148193359375
1783002724374226000,2.484225830078125,-0.993408203125,-0.2646636962890625,0.0763397216796875
1783002724384277000,2.494277099609375,-1.0007781982421875,-0.2635650634765625,0.0743255615234375
1783002724394328800,2.504328857421875,-0.992279052734375,-0.263885498046875,0.069000244140625
1783002724404380000,2.5143798828125,-0.98223876953125,-0.2649688720703125,0.064300537109375
1783002724414431700,2.524431640625,-0.9748077392578125,-0.271392822265625,0.06707763671875
1783002724424482800,2.53448291015625,-0.957763671875,-0.2775421142578125,0.06170654296875
1783002724434535000,2.544534912109375,-0.9335174560546875,-0.2804718017578125,0.0531768798828125
1783002724444585700,2.554585693359375,-0.90814208984375,-0.287200927734375,0.05078125
1783002724454637800,2.564637939453125,-0.8808135986328125,-0.2996368408203125,0.0514373779296875
1783002724464689700,2.574689697265625,-0.856109619140625,-0.3151702880859375,0.054412841796875
1783002724474740700,2.58474072265625,-0.8432159423828125,-0.3247528076171875,0.06329345703125
1783002724484792800,2.594792724609375,-0.83721923828125,-0.334503173828125,0.0770111083984375
1783002724494843600,2.60484375,-0.83660888671875,-0.3525390625,0.088623046875
1783002724504896000,2.61489599609375,-0.839569091796875,-0.3694610595703125,0.095794677734375
1783002724514946800,2.62494677734375,-0.8475341796875,-0.3766326904296875,0.1039886474609375
1783002724524999000,2.6349990234375,-0.856719970703125,-0.379058837890625,0.1106414794921875
1783002724535050000,2.645050048828125,-0.85772705078125,-0.3753662109375,0.0990142822265625
1783002724545101800,2.655101806640625,-0.8666229248046875,-0.3638153076171875,0.0802001953125
1783002724555153000,2.66515283203125,-0.88922119140625,-0.352294921875,0.070098876953125
1783002724565204700,2.675204833984375,-0.8921356201171875,-0.3509674072265625,0.0635986328125
1783002724575255800,2.685255859375,-0.8823089599609375,-0.3525238037109375,0.063232421875
1783002724585308000,2.695307861328125,-0.874908447265625,-0.354888916015625,0.0678253173828125
1783002724595359000,2.70535888671875,-0.8757781982421875,-0.35955810546875,0.06915283203125
1783002724605410800,2.715410888671875,-0.874481201171875,-0.3634490966796875,0.0651702880859375
1783002724615462000,2.7254619140625,-0.8797760009765625,-0.36474609375,0.06121826171875
1783002724625513700,2.735513671875,-0.8931427001953125,-0.3664703369140625,0.0656890869140625
1783002724635564800,2.745564697265625,-0.8886871337890625,-0.3742218017578125,0.0671844482421875
1783002724645617000,2.755616943359375,-0.8700103759765625,-0.3858642578125,0.0609893798828125
1783002724655667700,2.765667724609375,-0.865997314453125,-0.392181396484375,0.0641021728515625
1783002724665719800,2.7757197265625,-0.8684539794921875,-0.400848388671875,0.073699951171875
1783002724675771000,2.78577099609375,-0.86383056640625,-0.4121551513671875,0.0823516845703125
1783002724685822700,2.79582275390625,-0.8621368408203125,-0.42034912109375,0.0855865478515625
1783002724695874800,2.805874755859375,-0.870941162109375,-0.4227294921875,0.08941650390625
1783002724705926000,2.81592578125,-0.8615570068359375,-0.427886962890625,0.089569091796875
1783002724715978000,2.82597802734375,-0.84759521484375,-0.43450927734375,0.0811920166015625
1783002724726028800,2.83602880859375,-0.862640380859375,-0.436126708984375,0.0744476318359375
1783002724736081000,2.846080810546875,-0.901641845703125,-0.43994140625,0.0746307373046875
1783002724746132000,2.856132080078125,-0.918792724609375,-0.450347900390625,0.07586669921875
1783002724756183800,2.866183837890625,-0.908172607421875,-0.45733642578125,0.071136474609375
1783002724766235000,2.87623486328125,-0.915008544921875,-0.454345703125,0.070953369140625
1783002724776286700,2.88628662109375,-0.938446044921875,-0.4520721435546875,0.075592041015625
1783002724786337800,2.896337890625,-0.95794677734375,-0.4564208984375,0.074981689453125
1783002724796390000,2.906389892578125,-0.9666748046875,-0.4600677490234375,0.076751708984375
1783002724806440700,2.916440673828125,-0.955291748046875,-0.458648681640625,0.070892333984375
1783002724816492800,2.926492919921875,-0.9496307373046875,-0.4544525146484375,0.0634307861328125
1783002724826543900,2.9365439453125,-0.9664154052734375,-0.4521026611328125,0.0658721923828125
1783002724836595700,2.946595703125,-0.97222900390625,-0.4593505859375,0.073486328125
1783002724846646800,2.956646728515625,-0.95758056640625,-0.4660491943359375,0.0815277099609375
1783002724856698600,2.96669873046875,-0.9397430419921875,-0.4630584716796875,0.0888214111328125
1783002724866749700,2.976749755859375,-0.9318389892578125,-0.4567718505859375,0.0948028564453125
1783002724876801800,2.9868017578125,-0.926422119140625,-0.454803466796875,0.1032257080078125
1783002724886852900,2.996852783203125,-0.915435791015625,-0.453521728515625,0.1125030517578125
1783002724896905000,3.006905029296875,-0.9068145751953125,-0.4650726318359375,0.129669189453125
1783002724906956800,3.016956787109375,-0.8961639404296875,-0.5073394775390625,0.1637725830078125
1783002724917008000,3.0270078125,-0.912078857421875,-0.5069732666015625,0.1768035888671875
1783002724927060000,3.03706005859375,-0.957000732421875,-0.4512176513671875,0.1673126220703125
1783002724937110800,3.04711083984375,-0.997467041015625,-0.4224395751953125,0.1568756103515625
1783002724947163000,3.057162841796875,-1.0125579833984375,-0.4296417236328125,0.1168212890625
1783002724957214000,3.0672138671875,-1.0328521728515625,-0.4118804931640625,0.1056976318359375
1783002724967265800,3.077265869140625,-1.0638885498046875,-0.3784637451171875,0.1044921875
1783002724977316900,3.08731689453125,-1.0757904052734375,-0.353515625,0.0863494873046875
1783002724987368700,3.09736865234375,-1.0750274658203125,-0.33148193359375,0.0538482666015625
1783002724997419800,3.107419677734375,-1.0748138427734375,-0.2940521240234375,0.028533935546875
1783002725007471900,3.117471923828125,-1.0664825439453125,-0.263580322265625,0.001251220703125
1783002725017522700,3.127522705078125,-1.045928955078125,-0.252044677734375,-0.02264404296875
1783002725027574800,3.13757470703125,-1.0214691162109375,-0.242431640625,-0.0379180908203125
1783002725037625900,3.1476259765625,-1.0209197998046875,-0.2287750244140625,-0.0397796630859375
1783002725047677700,3.157677734375,-1.0328521728515625,-0.2252655029296875,-0.0292205810546875
1783002725057728800,3.167728759765625,-1.023040771484375,-0.23846435546875,-0.0290985107421875
1783002725067780600,3.177780517578125,-1.00079345703125,-0.2454376220703125,-0.0340576171875
1783002725077831700,3.187831787109375,-0.983734130859375,-0.2414703369140625,-0.0413055419921875
1783002725087884000,3.197884033203125,-0.9739227294921875,-0.24267578125,-0.047576904296875
1783002725097934800,3.207934814453125,-0.9661865234375,-0.2494659423828125,-0.04644775390625
1783002725107987000,3.217987060546875,-0.9449920654296875,-0.2602081298828125,-0.0457916259765625
1783002725118038800,3.228038818359375,-0.924285888671875,-0.2729034423828125,-0.0442047119140625
1783002725128089900,3.23808984375,-0.920257568359375,-0.2761077880859375,-0.0381927490234375
1783002725138142000,3.248141845703125,-0.946746826171875,-0.2710418701171875,-0.03143310546875
1783002725148192800,3.25819287109375,-0.97576904296875,-0.2694854736328125,-0.0322265625
1783002725158244900,3.268244873046875,-0.9842987060546875,-0.2683258056640625,-0.0445098876953125
1783002725168296000,3.2782958984375,-0.9972381591796875,-0.2561798095703125,-0.06292724609375
1783002725178347800,3.28834765625,-1.0336761474609375,-0.2369537353515625,-0.078216552734375
1783002725188398800,3.29839892578125,-1.0571441650390625,-0.227020263671875,-0.09271240234375
1783002725198450700,3.30845068359375,-1.056488037109375,-0.2227630615234375,-0.1052703857421875
1783002725208501800,3.318501708984375,-1.05767822265625,-0.2124176025390625,-0.1070098876953125
1783002725218553900,3.328553955078125,-1.0567169189453125,-0.20538330078125,-0.103607177734375
1783002725228604700,3.338604736328125,-1.047882080078125,-0.2128753662109375,-0.0933990478515625
1783002725238656500,3.348656494140625,-1.0428466796875,-0.2210540771484375,-0.0767059326171875
1783002725248707600,3.35870751953125,-1.037994384765625,-0.2268524169921875,-0.05859375
1783002725258759400,3.368759521484375,-1.03729248046875,-0.227752685546875,-0.0470123291015625
1783002725268810500,3.378810546875,-1.0359039306640625,-0.2331085205078125,-0.038726806640625
1783002725278862600,3.388862548828125,-1.005035400390625,-0.24041748046875,-0.042388916015625
1783002725288913400,3.398913330078125,-0.9703521728515625,-0.24371337890625,-0.0510101318359375
1783002725298965500,3.408965576171875,-0.94482421875,-0.2494049072265625,-0.0537261962890625
1783002725309017300,3.419017333984375,-0.930389404296875,-0.2610931396484375,-0.0471343994140625
1783002725319068400,3.429068359375,-0.9167633056640625,-0.280487060546875,-0.0378875732421875
1783002725329120500,3.43912060546875,-0.892669677734375,-0.3016357421875,-0.033935546875
1783002725339171300,3.44917138671875,-0.875762939453125,-0.31494140625,-0.0269927978515625
1783002725349223700,3.4592236328125,-0.8718719482421875,-0.3240203857421875,-0.0195465087890625
1783002725359274500,3.4692744140625,-0.8708038330078125,-0.339141845703125,-0.0134429931640625
1783002725369326600,3.47932666015625,-0.8748321533203125,-0.353912353515625,-0.0120697021484375
1783002725379377700,3.489377685546875,-0.8809661865234375,-0.3612518310546875,-0.009368896484375
1783002725389429500,3.499429443359375,-0.87298583984375,-0.360809326171875,-0.014556884765625
1783002725399480600,3.50948046875,-0.87127685546875,-0.35504150390625,-0.0192108154296875
1783002725409532700,3.51953271484375,-0.886077880859375,-0.34967041015625,-0.0276336669921875
1783002725419583500,3.52958349609375,-0.9142303466796875,-0.346435546875,-0.044281005859375
1783002725429635600,3.539635498046875,-0.9405517578125,-0.345123291015625,-0.0519561767578125
1783002725439686700,3.549686767578125,-0.954559326171875,-0.35003662109375,-0.041412353515625
1783002725449738500,3.559738525390625,-0.9448089599609375,-0.35870361328125,-0.0537872314453125
1783002725459789600,3.56978955078125,-0.9203948974609375,-0.3556365966796875,-0.05511474609375
1783002725469841400,3.57984130859375,-0.922882080078125,-0.333221435546875,-0.04583740234375
1783002725479893500,3.5898935546875,-0.9302215576171875,-0.3106689453125,-0.0401611328125
1783002725489944600,3.599944580078125,-0.913726806640625,-0.305999755859375,-0.04730224609375
1783002725499996400,3.609996337890625,-0.9079132080078125,-0.304443359375,-0.0403289794921875
1783002725510047500,3.620047607421875,-0.914154052734375,-0.305694580078125,-0.01397705078125
1783002725520099300,3.630099365234375,-0.9076385498046875,-0.3154296875,0.017242431640625
1783002725530150400,3.640150390625,-0.88409423828125,-0.334747314453125,0.0518646240234375
1783002725540202500,3.650202392578125,-0.8723602294921875,-0.357208251953125,0.070556640625
1783002725550253300,3.66025341796875,-0.87542724609375,-0.3795013427734375,0.0799713134765625
1783002725560305700,3.6703056640625,-0.8697052001953125,-0.3929290771484375,0.0818023681640625
1783002725570356500,3.6803564453125,-0.86859130859375,-0.387237548828125,0.0758056640625
1783002725580408600,3.69040869140625,-0.869171142578125,-0.376617431640625,0.0589599609375
1783002725590459600,3.700459716796875,-0.865234375,-0.373199462890625,0.0424652099609375
1783002725600511500,3.710511474609375,-0.85980224609375,-0.3750762939453125,0.0346527099609375
1783002725610562600,3.7205625,-0.8715057373046875,-0.3712310791015625,0.0410614013671875
1783002725620614700,3.73061474609375,-0.881591796875,-0.3713836669921875,0.0579376220703125
1783002725630666500,3.74066650390625,-0.8880462646484375,-0.3801727294921875,0.0722198486328125
1783002725640717600,3.750717529296875,-0.8939361572265625,-0.386444091796875,0.0867767333984375
1783002725650769400,3.760769287109375,-0.903289794921875,-0.3889923095703125,0.08734130859375
1783002725660820500,3.770820556640625,-0.9315032958984375,-0.3844757080078125,0.0781402587890625
1783002725670872600,3.78087255859375,-0.9594268798828125,-0.378173828125,0.05865478515625
1783002725680923400,3.79092333984375,-0.9546966552734375,-0.3791961669921875,0.0467071533203125
1783002725690975500,3.8009755859375,-0.9416351318359375,-0.3782501220703125,0.0469512939453125
1783002725701026600,3.811026611328125,-0.9465484619140625,-0.3751220703125,0.0504913330078125
1783002725711078400,3.821078369140625,-0.969390869140625,-0.36859130859375,0.0631866455078125
1783002725721129500,3.83112939453125,-0.991424560546875,-0.36358642578125,0.0774993896484375
1783002725731181300,3.841181396484375,-0.9882659912109375,-0.3614654541015625,0.0936737060546875
1783002725741232400,3.851232421875,-0.9903411865234375,-0.352264404296875,0.1020965576171875
1783002725751284500,3.861284423828125,-0.9880218505859375,-0.337005615234375,0.0958404541015625
1783002725761335600,3.87133544921875,-0.9715576171875,-0.32977294921875,0.0749359130859375
1783002725771387600,3.8813876953125,-0.964996337890625,-0.34619140625,0.069854736328125
1783002725781438500,3.8914384765625,-0.9546356201171875,-0.388641357421875,0.0892486572265625
1783002725791490600,3.901490478515625,-0.9661102294921875,-0.4043121337890625,0.127410888671875
1783002725801542400,3.91154248046875,-0.99798583984375,-0.4085845947265625,0.16314697265625
1783002725811593500,3.921593505859375,-1.023956298828125,-0.427093505859375,0.1707611083984375
1783002725821645600,3.9316455078125,-1.0506134033203125,-0.425201416015625,0.16064453125
1783002725831696400,3.9416962890625,-1.0958099365234375,-0.39788818359375,0.1620941162109375
1783002725841748500,3.95174853515625,-1.13177490234375,-0.37567138671875,0.152679443359375
1783002725851799600,3.961799560546875,-1.158477783203125,-0.3431243896484375,0.1272125244140625
1783002725861851400,3.971851318359375,-1.1698150634765625,-0.295623779296875,0.116119384765625
1783002725871902500,3.98190234375,-1.1559906005859375,-0.26214599609375,0.110931396484375
1783002725881954300,3.991954345703125,-1.12994384765625,-0.25225830078125,0.1049652099609375
1783002725892005400,4.00200537109375,-1.095672607421875,-0.239044189453125,0.1027679443359375
1783002725902057500,4.012057373046875,-1.0848846435546875,-0.2029876708984375,0.09161376953125
1783002725912108500,4.022108642578125,-1.0941925048828125,-0.161041259765625,0.0852203369140625
1783002725922160400,4.032160400390625,-1.0970306396484375,-0.13946533203125,0.061859130859375
1783002725932211500,4.04221142578125,-1.0646820068359375,-0.1362762451171875,0.0574493408203125
1783002725942263600,4.052263671875,-1.0153350830078125,-0.1409759521484375,0.0641632080078125
1783002725952314600,4.062314697265625,-0.96795654296875,-0.1553802490234375,0.0742340087890625
1783002725962366500,4.072366455078125,-0.927825927734375,-0.17864990234375,0.0931243896484375
1783002725972418600,4.08241845703125,-0.8951873779296875,-0.2028656005859375,0.123291015625
1783002725982469600,4.0924697265625,-0.8696441650390625,-0.2272491455078125,0.1586456298828125
1783002725992521500,4.102521484375,-0.87066650390625,-0.243988037109375,0.18511962890625
1783002726002572500,4.112572509765625,-0.8704376220703125,-0.2552032470703125,0.1939697265625
1783002726012624400,4.122624267578125,-0.8663787841796875,-0.2573089599609375,0.19952392578125
1783002726022675500,4.132675537109375,-0.88433837890625,-0.25762939453125,0.2136993408203125
1783002726032727600,4.1427275390625,-0.917327880859375,-0.265716552734375,0.22613525390625
1783002726042778400,4.1527783203125,-0.923614501953125,-0.2756805419921875,0.229644775390625
1783002726052830500,4.16283056640625,-0.902740478515625,-0.27606201171875,0.21435546875
1783002726062881500,4.172881591796875,-0.9090728759765625,-0.258636474609375,0.1932525634765625
1783002726072933400,4.182933349609375,-0.9492034912109375,-0.23724365234375,0.182373046875
1783002726082984400,4.192984375,-0.967742919921875,-0.22747802734375,0.1690673828125
1783002726093036300,4.203036376953125,-0.9646453857421875,-0.2183990478515625,0.1646575927734375
1783002726103087400,4.21308740234375,-0.9668426513671875,-0.1972808837890625,0.1602935791015625
1783002726113139500,4.223139404296875,-0.9804229736328125,-0.1736602783203125,0.155517578125
1783002726123191600,4.233191650390625,-0.9931182861328125,-0.1605072021484375,0.1488494873046875
1783002726133242600,4.24324267578125,-0.994781494140625,-0.1641845703125,0.141326904296875
1783002726143294500,4.25329443359375,-0.9762725830078125,-0.1741180419921875,0.1239013671875
1783002726153345500,4.263345458984375,-0.948974609375,-0.1812744140625,0.099517822265625
1783002726163397600,4.273397705078125,-0.9360504150390625,-0.186737060546875,0.082916259765625
1783002726173448400,4.283448486328125,-0.9275970458984375,-0.1951904296875,0.0788726806640625
1783002726183500500,4.29350048828125,-0.9170989990234375,-0.2073211669921875,0.0962982177734375
1783002726193551600,4.303551513671875,-0.90264892578125,-0.228118896484375,0.1210784912109375
1783002726203603500,4.313603515625,-0.8902740478515625,-0.25341796875,0.13739013671875
1783002726213654500,4.323654541015625,-0.88824462890625,-0.266754150390625,0.1497650146484375
1783002726223706400,4.333706298828125,-0.882110595703125,-0.2733306884765625,0.150146484375
1783002726233757400,4.34375732421875,-0.8886260986328125,-0.2815704345703125,0.1458587646484375
1783002726243810300,4.353810302734375,-0.9055633544921875,-0.2855377197265625,0.142303466796875
1783002726253861000,4.363861083984375,-0.904266357421875,-0.283477783203125,0.1307373046875
1783002726263913200,4.373913330078125,-0.88330078125,-0.283477783203125,0.1259307861328125
1783002726273965000,4.383965087890625,-0.8769989013671875,-0.2902984619140625,0.1278533935546875
1783002726284016000,4.39401611328125,-0.8868408203125,-0.3006591796875,0.1391754150390625
1783002726294068200,4.404068115234375,-0.890777587890625,-0.3106231689453125,0.1444549560546875
1783002726304119000,4.414119140625,-0.8958740234375,-0.314178466796875,0.134521484375
1783002726314171100,4.424171142578125,-0.9085235595703125,-0.3085479736328125,0.1299896240234375
1783002726324222200,4.43422216796875,-0.922607421875,-0.3050079345703125,0.117889404296875
1783002726334274000,4.444274169921875,-0.9287872314453125,-0.307373046875,0.1040802001953125
1783002726344325000,4.4543251953125,-0.932586669921875,-0.307037353515625,0.092681884765625
1783002726354377000,4.464376953125,-0.935028076171875,-0.3051910400390625,0.0789947509765625
1783002726364428000,4.474427978515625,-0.928070068359375,-0.30108642578125,0.07318115234375
1783002726374480100,4.484480224609375,-0.9149169921875,-0.3000335693359375,0.07470703125
1783002726384531000,4.494531005859375,-0.9221649169921875,-0.2963409423828125,0.080963134765625
1783002726394583000,4.5045830078125,-0.925079345703125,-0.2991790771484375,0.0878143310546875
1783002726404634000,4.514634033203125,-0.9122467041015625,-0.3146209716796875,0.08990478515625
1783002726414686000,4.52468603515625,-0.9101104736328125,-0.3220672607421875,0.0914154052734375
1783002726424738000,4.534738037109375,-0.9271392822265625,-0.324310302734375,0.0898284912109375
1783002726434789000,4.5447890625,-0.956695556640625,-0.3284149169921875,0.08612060546875
1783002726444841200,4.55484130859375,-0.973846435546875,-0.3321380615234375,0.083831787109375
1783002726454892000,4.56489208984375,-0.9788818359375,-0.3275299072265625,0.0768890380859375
1783002726464944000,4.574944091796875,-0.977386474609375,-0.3213043212890625,0.0718841552734375
1783002726474995200,4.5849951171875,-0.9731292724609375,-0.3182373046875,0.0674896240234375
1783002726485047000,4.595047119140625,-0.9614410400390625,-0.31842041015625,0.06365966796875
1783002726495098000,4.60509814453125,-0.96014404296875,-0.313446044921875,0.0602264404296875
1783002726505150000,4.61514990234375,-0.9612579345703125,-0.3166656494140625,0.0593109130859375
1783002726515201000,4.625200927734375,-0.9435272216796875,-0.331756591796875,0.0561370849609375
1783002726525253000,4.635253173828125,-0.9364776611328125,-0.3457489013671875,0.061492919921875
1783002726535304200,4.64530419921875,-0.941619873046875,-0.3536224365234375,0.0732574462890625
1783002726545356000,4.65535595703125,-0.936737060546875,-0.3560943603515625,0.0792388916015625
1783002726555407000,4.665406982421875,-0.9333038330078125,-0.3550872802734375,0.08782958984375
1783002726565459000,4.675458984375,-0.9347381591796875,-0.358489990234375,0.098846435546875
1783002726575511000,4.685510986328125,-0.937957763671875,-0.35760498046875,0.1041717529296875
1783002726585562000,4.69556201171875,-0.9408111572265625,-0.3525238037109375,0.100799560546875
1783002726595614200,4.7056142578125,-0.9464874267578125,-0.346160888671875,0.095794677734375
1783002726605665000,4.7156650390625,-0.9664306640625,-0.3356781005859375,0.0945892333984375
1783002726615717000,4.725717041015625,-0.9753570556640625,-0.330322265625,0.0829620361328125
1783002726625768200,4.735768310546875,-0.9733734130859375,-0.3234710693359375,0.0636138916015625
1783002726635820000,4.745820068359375,-0.9625244140625,-0.308624267578125,0.0511627197265625
1783002726645871000,4.75587109375,-0.9641265869140625,-0.3021240234375,0.0586090087890625
1783002726655923200,4.765923095703125,-0.9715423583984375,-0.3237762451171875,0.0830230712890625
1783002726665974000,4.77597412109375,-0.9620819091796875,-0.3830718994140625,0.1311798095703125
1783002726676026000,4.786026123046875,-0.9697723388671875,-0.3795166015625,0.151458740234375
1783002726686077200,4.7960771484375,-1.0103302001953125,-0.307891845703125,0.1268768310546875
1783002726696129000,4.80612890625,-1.0614471435546875,-0.276824951171875,0.0935516357421875
1783002726706180000,4.81618017578125,-1.0928192138671875,-0.3045806884765625,0.06488037109375
1783002726716232000,4.82623193359375,-1.106719970703125,-0.309173583984375,0.053619384765625
1783002726726284000,4.836283935546875,-1.1083984375,-0.2688446044921875,0.042816162109375
1783002726736335000,4.846335205078125,-1.1075592041015625,-0.229400634765625,0.0084991455078125
1783002726746387000,4.856386962890625,-1.12115478515625,-0.1964263916015625,-0.028900146484375
1783002726756438000,4.86643798828125,-1.103118896484375,-0.1698150634765625,-0.0577850341796875
1783002726766489900,4.87648974609375,-1.0581817626953125,-0.1512603759765625,-0.0752410888671875
1783002726776541000,4.886541015625,-1.02581787109375,-0.147216796875,-0.07342529296875
1783002726786593300,4.89659326171875,-1.0151519775390625,-0.14697265625,-0.0480499267578125
1783002726796644000,4.90664404296875,-1.024505615234375,-0.1386871337890625,-0.01788330078125
1783002726806696200,4.9166962890625,-1.0410614013671875,-0.1308135986328125,-0.0070037841796875
1783002726816747300,4.926747314453125,-1.0381317138671875,-0.128692626953125,-0.0092315673828125
1783002726826799000,4.936799072265625,-1.0213470458984375,-0.127532958984375,-0.0207061767578125
1783002726836850200,4.94685009765625,-1.0246124267578125,-0.1254425048828125,-0.0328369140625
1783002726846902000,4.956902099609375,-1.0314788818359375,-0.1243896484375,-0.039276123046875
1783002726856954000,4.9669541015625,-1.0201873779296875,-0.1248321533203125,-0.0414276123046875
1783002726867005200,4.977005126953125,-1.0067596435546875,-0.1212921142578125,-0.0463409423828125
1783002726877057000,4.98705712890625,-1.0048065185546875,-0.1214141845703125,-0.054473876953125
1783002726887108000,4.997108154296875,-1.0009613037109375,-0.1327056884765625,-0.05487060546875
1783002726897160000,5.007159912109375,-0.9924163818359375,-0.1371307373046875,-0.05108642578125
1783002726907211000,5.0172109375,-0.986480712890625,-0.1307220458984375,-0.0513153076171875
1783002726917263000,5.02726318359375,-0.99554443359375,-0.1199951171875,-0.054779052734375
1783002726927314000,5.03731396484375,-1.0057830810546875,-0.1133880615234375,-0.0644683837890625
1783002726937366000,5.047365966796875,-1.034576416015625,-0.1006927490234375,-0.07373046875
1783002726947417000,5.0574169921875,-1.0579376220703125,-0.08575439453125,-0.0902862548828125
1783002726957469000,5.067468994140625,-1.05841064453125,-0.0697174072265625,-0.1016082763671875
1783002726967520000,5.07752001953125,-1.032257080078125,-0.057769775390625,-0.109161376953125
1783002726977571800,5.08757177734375,-1.00140380859375,-0.0543060302734375,-0.1092987060546875
1783002726987624200,5.097624267578125,-0.990509033203125,-0.0602569580078125,-0.0947723388671875
1783002726997675300,5.10767529296875,-0.98321533203125,-0.075775146484375,-0.071563720703125
1783002727007727000,5.11772705078125,-0.96868896484375,-0.0850067138671875,-0.0458221435546875
1783002727017778200,5.127778076171875,-0.9565887451171875,-0.0955810546875,-0.0225830078125
1783002727027830000,5.137830078125,-0.9669647216796875,-0.10577392578125,-0.0126800537109375
1783002727037881000,5.147881103515625,-0.988922119140625,-0.1112213134765625,-0.0173187255859375
1783002727047933200,5.15793310546875,-0.9927520751953125,-0.1269989013671875,-0.0262603759765625
1783002727057984000,5.16798388671875,-0.983795166015625,-0.1413726806640625,-0.0275115966796875
1783002727068036000,5.1780361328125,-0.9825897216796875,-0.1491851806640625,-0.02056884765625
1783002727078087200,5.188087158203125,-0.97308349609375,-0.1578369140625,-0.0181427001953125
1783002727088139000,5.198138916015625,-0.9644622802734375,-0.1700897216796875,-0.0115509033203125
1783002727098190000,5.208190185546875,-0.951202392578125,-0.1847381591796875,-0.0106048583984375
1783002727108242000,5.218241943359375,-0.9371337890625,-0.1903076171875,-0.008758544921875
1783002727118293000,5.22829296875,-0.9384765625,-0.1954803466796875,-0.004180908203125
1783002727128345000,5.238344970703125,-0.94903564453125,-0.205657958984375,-0.007171630859375
1783002727138397000,5.24839697265625,-0.9523468017578125,-0.21209716796875,-0.0079803466796875
1783002727148448000,5.258447998046875,-0.9406280517578125,-0.206512451171875,-0.0060272216796875
1783002727158500000,5.2685,-0.9315185546875,-0.1984100341796875,-0.0059356689453125
1783002727168551000,5.278551025390625,-0.9410247802734375,-0.1979522705078125,-0.0058746337890625
1783002727178603300,5.288603271484375,-0.949798583984375,-0.2037811279296875,-0.0089569091796875
1783002727188654000,5.298654052734375,-0.9538116455078125,-0.2038116455078125,-0.0069580078125
1783002727198706200,5.3087060546875,-0.9597015380859375,-0.2035064697265625,-0.006805419921875
1783002727208757200,5.31875732421875,-0.966583251953125,-0.2059783935546875,-0.0150299072265625
1783002727218809000,5.32880908203125,-0.9748687744140625,-0.2061004638671875,-0.0224609375
1783002727228860200,5.338860107421875,-0.982757568359375,-0.2005615234375,-0.020904541015625
1783002727238912000,5.348912109375,-0.9871368408203125,-0.1932830810546875,-0.016326904296875
1783002727248962800,5.358962890625,-0.9875335693359375,-0.192413330078125,-0.0106201171875
1783002727259015000,5.369014892578125,-0.98919677734375,-0.193634033203125,-0.0074615478515625
1783002727269066800,5.379066650390625,-0.9967498779296875,-0.1941680908203125,-0.0093841552734375
1783002727279117800,5.389117919921875,-0.991485595703125,-0.196380615234375,-0.019561767578125
1783002727289169700,5.399169677734375,-0.9892425537109375,-0.2038116455078125,-0.0233001708984375
1783002727299220700,5.409220703125,-0.9928436279296875,-0.214111328125,-0.0171661376953125
1783002727309272800,5.41927294921875,-0.983489990234375,-0.2259063720703125,-0.013214111328125
1783002727319324000,5.429323974609375,-0.961395263671875,-0.2360076904296875,-0.01214599609375
1783002727329375700,5.439375732421875,-0.951202392578125,-0.24041748046875,-0.004730224609375
1783002727339426800,5.4494267578125,-0.9366455078125,-0.2448577880859375,0.0100250244140625
1783002727349478700,5.459478759765625,-0.917816162109375,-0.2530975341796875,0.0324249267578125
1783002727359529700,5.46952978515625,-0.9004364013671875,-0.2657928466796875,0.0521697998046875
1783002727369581800,5.479581787109375,-0.883209228515625,-0.284515380859375,0.044158935546875
1783002727379633000,5.4896328125,-0.86871337890625,-0.2979888916015625,0.0279541015625
1783002727389685000,5.49968505859375,-0.866424560546875,-0.30364990234375,0.0297698974609375
1783002727399736800,5.50973681640625,-0.8743438720703125,-0.311737060546875,0.0416259765625
1783002727409788000,5.519787841796875,-0.8839874267578125,-0.31671142578125,0.0578155517578125
1783002727419839700,5.52983984375,-0.8950347900390625,-0.3096160888671875,0.071044921875
1783002727429890800,5.539890869140625,-0.9021759033203125,-0.3005218505859375,0.0700225830078125
1783002727439943000,5.54994287109375,-0.9199981689453125,-0.294921875,0.063140869140625
1783002727449993700,5.55999365234375,-0.9384765625,-0.290252685546875,0.055023193359375
1783002727460045800,5.5700458984375,-0.9544677734375,-0.2805328369140625,0.0442047119140625
1783002727470097000,5.580096923828125,-0.9901885986328125,-0.2609710693359375,0.0321807861328125
1783002727480148700,5.590148681640625,-1.0274505615234375,-0.2560272216796875,0.0206451416015625
1783002727490199800,5.60019970703125,-1.035186767578125,-0.258819580078125,0.0212860107421875
1783002727500251600,5.610251708984375,-1.03753662109375,-0.2497100830078125,0.038970947265625
1783002727510302700,5.620302734375,-1.0505828857421875,-0.2412872314453125,0.051849365234375
1783002727520354800,5.630354736328125,-1.0581207275390625,-0.2364654541015625,0.0606689453125
1783002727530407000,5.640406982421875,-1.0586700439453125,-0.230255126953125,0.0737457275390625
1783002727540457700,5.650457763671875,-1.0548095703125,-0.2346038818359375,0.0852813720703125
1783002727550509800,5.660509765625,-1.0546417236328125,-0.2591705322265625,0.100677490234375
1783002727560561000,5.670560791015625,-1.035797119140625,-0.2725982666015625,0.1120452880859375
1783002727570613000,5.680613037109375,-1.04046630859375,-0.246246337890625,0.13385009765625
1783002727580663800,5.690663818359375,-1.0307769775390625,-0.2115936279296875,0.154205322265625
1783002727590716000,5.7007158203125,-0.8610076904296875,-0.1938018798828125,0.21368408203125
1783002727600767000,5.71076708984375,-1.088134765625,-0.22344970703125,0.194854736328125
1783002727610818800,5.72081884765625,-1.2562255859375,-0.212615966796875,0.1518707275390625
1783002727620870000,5.730869873046875,-1.1615142822265625,-0.167449951171875,0.136962890625
1783002727630921700,5.740921630859375,-1.116363525390625,-0.148345947265625,0.103790283203125
1783002727640972800,5.750972900390625,-1.1334991455078125,-0.1549530029296875,0.0726165771484375
1783002727651025000,5.76102490234375,-1.1104888916015625,-0.1565704345703125,0.07476806640625
1783002727661075700,5.77107568359375,-1.0958709716796875,-0.1525726318359375,0.089630126953125
1783002727671127800,5.7811279296875,-1.0706024169921875,-0.145538330078125,0.1275482177734375
1783002727681179600,5.7911796875,-1.04095458984375,-0.1530609130859375,0.135498046875
