time,seconds_elapsed,z,y,x
1783002721975681500,0.085681640625,-0.13885334134101868,-0.17088158428668976,-0.2863306701183319
1783002721985733600,0.095733642578125,-0.16233070194721222,-0.22456824779510498,-0.3670196533203125
1783002721995785500,0.105785400390625,-0.1806439608335495,-0.24266250431537628,-0.4011676609516144
1783002722005836500,0.11583642578125,-0.19857315719127655,-0.21674089133739471,-0.41345202922821045
1783002722015887600,0.1258876953125,-0.21007588505744934,-0.09001936763525009,-0.4176064133644104
1783002722025939500,0.135939453125,-0.17924074828624725,0.08165891468524933,-0.39004987478256226
1783002722035991600,0.145991455078125,-0.1162349283695221,0.21804970502853394,-0.32482317090034485
1783002722046042400,0.15604248046875,-0.058422770351171494,0.2470882683992386,-0.25028979778289795
1783002722056094500,0.166094482421875,-0.029567191377282143,0.19404785335063934,-0.18948261439800262
1783002722066145500,0.1761455078125,-0.01378476619720459,0.10744106024503708,-0.1402900367975235
1783002722076197400,0.186197265625,-0.0027043167501688004,-0.007884858176112175,-0.12467262893915176
1783002722086248400,0.19624853515625,-0.025522014126181602,-0.11301474273204803,-0.13022825121879578
1783002722096300500,0.206300537109375,-0.08286522328853607,-0.16470873355865479,-0.15772977471351624
1783002722106351600,0.2163515625,-0.1385982632637024,-0.10836397111415863,-0.17543260753154755
1783002722116403500,0.226403564453125,-0.15799757838249207,-0.0196628849953413,-0.1692541539669037
1783002722126454500,0.23645458984375,-0.1350770890712738,0.03016858734190464,-0.1612955629825592
1783002722136506600,0.246506591796875,-0.0963696539402008,0.0657266229391098,-0.14646834135055542
1783002722146557700,0.2565576171875,-0.05052759498357773,0.11992647498846054,-0.10449212789535522
1783002722156609500,0.266609619140625,-0.021282978355884552,0.17570674419403076,-0.042444922029972076
1783002722166660600,0.27666064453125,-0.011417030356824398,0.20321667194366455,0.03096112050116062
1783002722176712400,0.28671240234375,-0.009154580533504486,0.183534175157547,0.09009911864995956
1783002722186763500,0.296763427734375,-0.012999651953577995,0.12653960287570953,0.13327428698539734
1783002722196815600,0.306815673828125,-0.018772169947624207,0.08031345903873444,0.1528160721063614
1783002722206866400,0.316866455078125,-0.033436067402362823,0.044565048068761826,0.15733970701694489
1783002722216918500,0.32691845703125,-0.053019046783447266,0.048724737018346786,0.18551965057849884
1783002722226969600,0.336969482421875,-0.0525474026799202,0.12880359590053558,0.24016185104846954
1783002722237021400,0.347021484375,-0.03758304566144943,0.20647180080413818,0.2785496115684509
1783002722247073300,0.3570732421875,-0.02631894312798977,0.23122267425060272,0.2814130485057831
1783002722257125000,0.367125,-0.013605210930109024,0.20381157100200653,0.26097574830055237
1783002722267176200,0.37717626953125,0.003442215733230114,0.15874476730823517,0.2573080360889435
1783002722277228000,0.38722802734375,0.0038959207013249397,0.09943976253271103,0.2713225781917572
1783002722287279000,0.397279052734375,-0.0016216165386140347,0.029749102890491486,0.30156517028808594
1783002722297331200,0.407331298828125,-0.004547512158751488,-0.01451018638908863,0.347381055355072
1783002722307382000,0.417382080078125,-0.0012276158668100834,-0.008170531131327152,0.4010845124721527
1783002722317434400,0.427434326171875,0.00970279611647129,0.013691890984773636,0.4564090073108673
1783002722327485400,0.4374853515625,0.020689934492111206,0.02918163314461708,0.49314841628074646
1783002722337537300,0.447537353515625,0.028677329421043396,0.06007440388202667,0.4895096719264984
1783002722347588400,0.45758837890625,0.045340728014707565,0.11539411544799805,0.46192467212677
1783002722357640200,0.46764013671875,0.08459010720252991,0.16826432943344116,0.45009106397628784
1783002722367691300,0.477691162109375,0.15352630615234375,0.2296680361032486,0.47723451256752014
1783002722377743400,0.487743408203125,0.2036755234003067,0.2848179340362549,0.5312386155128479
1783002722387794200,0.497794189453125,0.23656103014945984,0.2955877482891083,0.6195093393325806
1783002722397846300,0.50784619140625,0.2642362415790558,0.31723347306251526,0.719123363494873
1783002722407897300,0.5178974609375,0.26421093940734863,0.2718854248523712,0.7414307594299316
1783002722417949200,0.52794921875,0.21258912980556488,0.08332428336143494,0.6155314445495605
1783002722428000300,0.538000244140625,0.10506372153759003,-0.19867490231990814,0.3489495813846588
1783002722438052000,0.548052001953125,-0.06804052740335464,-0.4767838716506958,0.029139582067728043
1783002722448103200,0.558103271484375,-0.2890639901161194,-0.6757616400718689,-0.22469109296798706
1783002722458155300,0.5681552734375,-0.5047274231910706,-0.7714222073554993,-0.3200007677078247
1783002722468206000,0.5782060546875,-0.7045121788978577,-0.6833066940307617,-0.25427794456481934
1783002722478258200,0.588258056640625,-0.8691996932029724,-0.5563453435897827,-0.11696125566959381
1783002722488309200,0.598309326171875,-0.9802119731903076,-0.5066270232200623,0.025706414133310318
1783002722498361000,0.608361083984375,-0.9965813159942627,-0.5404074192047119,0.13719114661216736
1783002722508412200,0.618412109375,-0.8939145803451538,-0.5641308426856995,0.2002313733100891
1783002722518464000,0.628464111328125,-0.693350076675415,-0.5937328934669495,0.20456528663635254
1783002722528515000,0.63851513671875,-0.4286036193370819,-0.5799515247344971,0.17865964770317078
1783002722538567400,0.6485673828125,-0.1352348029613495,-0.4934763014316559,0.1459537148475647
1783002722548618200,0.6586181640625,0.13570880889892578,-0.31168732047080994,0.10707317292690277
1783002722558670300,0.66867041015625,0.31998011469841003,-0.10367611050605774,0.04848861321806908
1783002722568721400,0.678721435546875,0.4053424298763275,0.05805526673793793,-0.025755256414413452
1783002722578773200,0.688773193359375,0.4230037331581116,0.15662752091884613,-0.10250644385814667
1783002722588824300,0.69882421875,0.3813723921775818,0.18893511593341827,-0.16187629103660583
1783002722598876200,0.708876220703125,0.29847100377082825,0.16002009809017181,-0.20384150743484497
1783002722608928300,0.71892822265625,0.18845342099666595,0.08784522861242294,-0.2329820841550827
1783002722618979300,0.728979248046875,0.0761985033750534,0.0009922152385115623,-0.22276383638381958
1783002722629031200,0.73903125,-0.021281186491250992,-0.07113843411207199,-0.169009268283844
1783002722639082200,0.749082275390625,-0.09023988991975784,-0.12932530045509338,-0.09281421452760696
1783002722649134000,0.759134033203125,-0.13303954899311066,-0.20348447561264038,-0.010673805139958858
1783002722659185200,0.76918505859375,-0.14215338230133057,-0.25475844740867615,0.07539401203393936
1783002722669237200,0.7792373046875,-0.11736521869897842,-0.2436152547597885,0.16611965000629425
1783002722679288000,0.7892880859375,-0.0646623820066452,-0.19960442185401917,0.23652949929237366
1783002722689340200,0.799340087890625,-0.005835013464093208,-0.14561282098293304,0.275130957365036
1783002722699391200,0.80939111328125,0.03663939982652664,-0.10269355773925781,0.26421090960502625
1783002722709443000,0.819443115234375,0.06197458505630493,-0.07116252928972244,0.21417011320590973
1783002722719494100,0.829494140625,0.06506223231554031,-0.057488713413476944,0.14429931342601776
1783002722729546200,0.839546142578125,0.0658784955739975,-0.06408509612083435,0.07682385295629501
1783002722739597300,0.849597412109375,0.08358690142631531,-0.04657530412077904,0.05206611752510071
1783002722749649400,0.8596494140625,0.12303204834461212,0.015549054369330406,0.0797257050871849
1783002722759700200,0.8697001953125,0.15703198313713074,0.08710698783397675,0.1371936947107315
1783002722769752300,0.87975244140625,0.1826004683971405,0.1682921200990677,0.21454520523548126
1783002722779803400,0.889803466796875,0.19653823971748352,0.29636311531066895,0.29280781745910645
1783002722789855200,0.899855224609375,0.2141084372997284,0.41589269042015076,0.33452674746513367
1783002722799906300,0.90990625,0.2133149653673172,0.46775397658348083,0.3252984285354614
1783002722809958100,0.919958251953125,0.2111934870481491,0.4618721008300781,0.2784979045391083
1783002722820009200,0.93000927734375,0.20865455269813538,0.4167073667049408,0.2143806517124176
1783002722830061300,0.940061279296875,0.19951511919498444,0.3070487678050995,0.16181039810180664
1783002722840112000,0.950112060546875,0.19139544665813446,0.1296090930700302,0.1411583423614502
1783002722850164200,0.960164306640625,0.1765592396259308,-0.05101367086172104,0.1592598557472229
1783002722860215300,0.97021533203125,0.13788320124149323,-0.19137410819530487,0.19721198081970215
1783002722870267100,0.98026708984375,0.09177374839782715,-0.249811589717865,0.23919804394245148
1783002722880318200,0.990318115234375,0.049554359167814255,-0.21815314888954163,0.2687534987926483
1783002722890370000,1.0003701171875,0.023864975199103355,-0.16882048547267914,0.27637171745300293
1783002722900421000,1.010421142578125,0.008250649087131023,-0.14739368855953217,0.26118096709251404
1783002722910473200,1.02047314453125,0.005979239009320736,-0.1565549671649933,0.22408099472522736
1783002722920524000,1.03052392578125,0.012824906036257744,-0.16159771382808685,0.17799411714076996
1783002722930576400,1.040576416015625,0.02019786648452282,-0.14895275235176086,0.1309794783592224
1783002722940627200,1.050627197265625,0.030691049993038177,-0.13765054941177368,0.08778788894414902
1783002722950679300,1.06067919921875,0.03523413464426994,-0.12683412432670593,0.05214201286435127
1783002722960730400,1.07073046875,0.04487163946032524,-0.10858077555894852,0.039190396666526794
1783002722970782200,1.0807822265625,0.05297829955816269,-0.07992995530366898,0.05709908902645111
1783002722980833300,1.090833251953125,0.058105047792196274,-0.02468363381922245,0.0868200957775116
1783002722990885400,1.100885498046875,0.05718758702278137,0.04360194876790047,0.11010171473026276
1783002723000936200,1.110936279296875,0.049783721566200256,0.07451682537794113,0.11696645617485046
1783002723010988300,1.12098828125,0.03716060519218445,0.08099496364593506,0.09820874780416489
1783002723021039400,1.131039306640625,0.022863678634166718,0.08504647016525269,0.06343406438827515
1783002723031091200,1.14109130859375,0.006547024939209223,0.08572877198457718,0.019427986815571785
1783002723041142300,1.151142333984375,-0.0024669524282217026,0.08501970022916794,-0.01895000785589218
1783002723051194000,1.161194091796875,-0.00536766741424799,0.06324142962694168,-0.043516337871551514
1783002723061245200,1.1712451171875,-0.018369285389780998,0.04764600098133087,-0.047652751207351685
1783002723071297300,1.18129736328125,-0.03394771367311478,0.06587987393140793,-0.03127191588282585
1783002723081348000,1.19134814453125,-0.039649445563554764,0.08909586071968079,-0.003647870384156704
1783002723091400200,1.201400146484375,-0.03362511098384857,0.09289512783288956,0.02017303928732872
1783002723101451300,1.211451171875,-0.01769167371094227,0.08891420066356659,0.046683140099048615
1783002723111503000,1.221503173828125,0.010080569423735142,0.10093331336975098,0.07079433649778366
1783002723121555200,1.23155517578125,0.03954697772860527,0.12000368535518646,0.09003875404596329
1783002723131606000,1.24160595703125,0.07701259106397629,0.12308469414710999,0.08865151554346085
1783002723141658400,1.251658447265625,0.10582787543535233,0.11636548489332199,0.08712822198867798
1783002723151709400,1.26170947265625,0.12026035040616989,0.102664053440094,0.07973875105381012
1783002723161761300,1.27176123046875,0.12864863872528076,0.0757184699177742,0.07840705662965775
1783002723171812400,1.281812255859375,0.11744897812604904,0.0198751762509346,0.07275902479887009
1783002723181864200,1.2918642578125,0.10396468639373779,-0.03497140482068062,0.08372046798467636
1783002723191915300,1.301915283203125,0.10126370936632156,-0.06662493944168091,0.11980630457401276
1783002723201967400,1.31196728515625,0.11674492061138153,-0.08226883411407471,0.16676855087280273
1783002723212018200,1.32201806640625,0.15437352657318115,-0.08553706854581833,0.21642719209194183
1783002723222070300,1.3320703125,0.23652319610118866,-0.025842618197202682,0.2841629683971405
1783002723232121300,1.342121337890625,0.31097158789634705,0.04131697863340378,0.3491179943084717
1783002723242172700,1.352172607421875,0.3444291055202484,-0.01919708400964737,0.37005576491355896
1783002723252223700,1.3622236328125,0.3135252594947815,-0.1677524596452713,0.32941538095474243
1783002723262275800,1.37227587890625,0.23343747854232788,-0.2783895432949066,0.2635837495326996
1783002723272327000,1.382326904296875,0.1046142578125,-0.31693851947784424,0.1728341281414032
1783002723282379000,1.39237890625,-0.05015431344509125,-0.37931177020072937,0.07473281025886536
1783002723292429800,1.402429931640625,-0.20517292618751526,-0.3821485638618469,-0.02268429473042488
1783002723302482000,1.41248193359375,-0.330343633890152,-0.2987805902957916,-0.14218175411224365
1783002723312533000,1.422532958984375,-0.4083678722381592,-0.15745437145233154,-0.2779678404331207
1783002723322584800,1.432584716796875,-0.4178641736507416,0.012467077001929283,-0.3788062036037445
1783002723332636000,1.442635986328125,-0.35492488741874695,0.18051201105117798,-0.437574177980423
1783002723342687700,1.452687744140625,-0.24412938952445984,0.3188765048980713,-0.4647528827190399
1783002723352738800,1.46273876953125,-0.09322189539670944,0.396419495344162,-0.4717676639556885
1783002723362791000,1.472791015625,0.059498388320207596,0.3949681222438812,-0.44732746481895447
1783002723372841700,1.482841796875,0.18886995315551758,0.39409247040748596,-0.3646051585674286
1783002723382893800,1.492893798828125,0.305036723613739,0.41952234506607056,-0.21289020776748657
1783002723392945000,1.50294482421875,0.40194252133369446,0.4050126373767853,-0.036382291465997696
1783002723402996700,1.512996826171875,0.4710119366645813,0.33382120728492737,0.12153800576925278
1783002723413047800,1.5230478515625,0.5055955052375793,0.23975221812725067,0.22485347092151642
1783002723423099600,1.533099609375,0.49438729882240295,0.13786104321479797,0.26343289017677307
1783002723433150700,1.543150634765625,0.4557421803474426,0.010106549598276615,0.2334076166152954
1783002723443202800,1.553202880859375,0.4008778929710388,-0.12445516139268875,0.16508127748966217
1783002723453253600,1.563253662109375,0.3422239124774933,-0.23278695344924927,0.09169653803110123
1783002723463306000,1.573305908203125,0.2745983898639679,-0.30391383171081543,0.029183246195316315
1783002723473356800,1.583356689453125,0.19957235455513,-0.30566486716270447,-0.019151795655488968
1783002723483409000,1.593408935546875,0.13928277790546417,-0.23942618072032928,-0.041772764176130295
1783002723493460000,1.6034599609375,0.07703937590122223,-0.12487190216779709,-0.06080824136734009
1783002723503511800,1.61351171875,0.031405970454216,0.03387994319200516,-0.08090589940547943
1783002723513563000,1.62356298828125,0.011323340237140656,0.20752176642417908,-0.06285446137189865
1783002723523615000,1.633614990234375,0.017479801550507545,0.321694016456604,-0.02542182244360447
1783002723533665800,1.643665771484375,0.027213923633098602,0.3745042383670807,0.025573717430233955
1783002723543718000,1.6537177734375,0.045558903366327286,0.3756326138973236,0.06658968329429626
1783002723553769700,1.663769775390625,0.06567695736885071,0.3304273188114166,0.08579134196043015
1783002723563820800,1.67382080078125,0.07872240990400314,0.253314346075058,0.08228638768196106
1783002723573871900,1.683871826171875,0.07019869983196259,0.16890519857406616,0.0709538385272026
1783002723583923700,1.693923828125,0.04305515065789223,0.10585059970617294,0.04872197285294533
1783002723593975800,1.703975830078125,0.013839473947882652,0.07493023574352264,0.03151955083012581
1783002723604027000,1.71402685546875,-0.013017016462981701,0.036058396100997925,0.01667722687125206
1783002723614078700,1.72407861328125,-0.03760731220245361,-0.005611286498606205,-0.01130700297653675
1783002723624129800,1.7341298828125,-0.05169510841369629,-0.011484607122838497,-0.03891083970665932
1783002723634181600,1.744181640625,-0.06579495221376419,-0.002255422296002507,-0.07296468317508698
1783002723644232700,1.754232666015625,-0.0813150629401207,0.02557598426938057,-0.07854579389095306
1783002723654284800,1.764284912109375,-0.08825872093439102,0.09158802777528763,-0.05186331644654274
1783002723664335600,1.774335693359375,-0.08291356265544891,0.14590294659137726,-0.00907006673514843
1783002723674388000,1.784387939453125,-0.0865945890545845,0.13817179203033447,0.017258476465940475
1783002723684439000,1.79443896484375,-0.09737616032361984,0.10606250166893005,0.0292067751288414
1783002723694491000,1.804490966796875,-0.117265984416008,0.08759693801403046,0.03239724412560463
1783002723704542000,1.8145419921875,-0.12874580919742584,0.08451247215270996,0.04779563844203949
1783002723714593800,1.82459375,-0.1183520182967186,0.07954434305429459,0.05882618576288223
1783002723724644900,1.834644775390625,-0.11627368628978729,0.0586121566593647,0.025454383343458176
1783002723734697000,1.844697021484375,-0.10581572353839874,0.023873884230852127,-0.046048298478126526
1783002723744747800,1.854747802734375,-0.08755941689014435,0.011472316458821297,-0.12031132727861404
1783002723754799900,1.8647998046875,-0.05855999141931534,0.03678220137953758,-0.17349490523338318
1783002723764851000,1.874850830078125,-0.026446785777807236,0.08605756610631943,-0.19038501381874084
1783002723774902800,1.88490283203125,0.005507419817149639,0.1280106008052826,-0.18763503432273865
1783002723784953900,1.894953857421875,0.024383649230003357,0.16474008560180664,-0.16451221704483032
1783002723795005700,1.905005615234375,0.04703543335199356,0.21808452904224396,-0.10779967904090881
1783002723805056800,1.915056884765625,0.06700818985700607,0.24750395119190216,-0.049739107489585876
1783002723815108900,1.92510888671875,0.07889468222856522,0.24114593863487244,-0.006600427906960249
1783002723825159700,1.93515966796875,0.07942162454128265,0.21936088800430298,-0.004421232268214226
1783002723835211800,1.945211669921875,0.0699026882648468,0.166384756565094,-0.04933890327811241
1783002723845262800,1.955262939453125,0.040796779096126556,0.12016886472702026,-0.09367877244949341
1783002723855314700,1.965314697265625,0.015634434297680855,0.1323235183954239,-0.1066369116306305
1783002723865365800,1.97536572265625,0.0005666208453476429,0.1764778196811676,-0.0978158488869667
1783002723875417900,1.98541796875,-0.010244481265544891,0.20890767872333527,-0.08177642524242401
1783002723885468700,1.99546875,-0.010195234790444374,0.24416008591651917,-0.04283543676137924
1783002723895521000,2.00552099609375,0.006282808259129524,0.32284584641456604,0.03172588348388672
1783002723905571800,2.01557177734375,0.03301374986767769,0.4001739025115967,0.11507053673267365
1783002723915624000,2.0256240234375,0.05529508739709854,0.4147419035434723,0.16731296479701996
1783002723925675800,2.03567578125,0.06886343657970428,0.3798803389072418,0.18011777102947235
1783002723935726800,2.045726806640625,0.06327692419290543,0.33759626746177673,0.1694568693637848
1783002723945779000,2.055779052734375,0.05097245052456856,0.3175237476825714,0.15065160393714905
1783002723955829800,2.065829833984375,0.03185148909687996,0.31727129220962524,0.14475376904010773
1783002723965881900,2.0758818359375,0.0011632509995251894,0.3361998498439789,0.15900081396102905
1783002723975933000,2.085932861328125,-0.022982563823461533,0.361406147480011,0.17498083412647247
1783002723985984800,2.09598486328125,-0.028501782566308975,0.34470677375793457,0.18528428673744202
1783002723996035800,2.106035888671875,-0.014943362213671207,0.28523918986320496,0.1924617737531662
1783002724006087700,2.116087646484375,0.01154203899204731,0.21627484261989594,0.20212091505527496
1783002724016138800,2.126138671875,0.04902710020542145,0.16881944239139557,0.23501761257648468
1783002724026190800,2.13619091796875,0.08298557996749878,0.15755482017993927,0.28326693177223206
1783002724036241700,2.14624169921875,0.11840429157018661,0.1692194640636444,0.3257049322128296
1783002724046293800,2.156293701171875,0.16082663834095,0.20456922054290771,0.3549289405345917
1783002724056344800,2.1663447265625,0.22764775156974792,0.2649585008621216,0.4071948230266571
1783002724066397000,2.17639697265625,0.2875114977359772,0.25516387820243835,0.4591831862926483
1783002724076447700,2.18644775390625,0.30762502551078796,0.11245626211166382,0.4597017168998718
1783002724086499800,2.196499755859375,0.3004316985607147,-0.05509062856435776,0.4252323508262634
1783002724096551000,2.206551025390625,0.25808024406433105,-0.17916543781757355,0.36935684084892273
1783002724106603000,2.21660302734375,0.1864663064479828,-0.3005986213684082,0.2922360897064209
1783002724116653800,2.22665380859375,0.08736981451511383,-0.40580040216445923,0.18306565284729004
1783002724126706000,2.236705810546875,-0.004573100246489048,-0.45747315883636475,0.05510755255818367
1783002724136757000,2.246757080078125,-0.09210987389087677,-0.43678784370422363,-0.0689970925450325
1783002724146808800,2.256808837890625,-0.1650100201368332,-0.3466844856739044,-0.15780726075172424
1783002724156860000,2.26685986328125,-0.21910440921783447,-0.2505430281162262,-0.2089032083749771
1783002724166911700,2.276911865234375,-0.2421296387910843,-0.1603880524635315,-0.23147107660770416
1783002724176962800,2.286962890625,-0.2280534952878952,-0.0880344957113266,-0.2231644093990326
1783002724187015000,2.297014892578125,-0.19083885848522186,-0.0191224105656147,-0.17094260454177856
1783002724197065700,2.307065673828125,-0.1395684778690338,0.04683130607008934,-0.08390676230192184
1783002724207117800,2.317117919921875,-0.059488557279109955,0.08056742697954178,0.02256402000784874
1783002724217169700,2.327169677734375,0.04968320578336716,0.09766039252281189,0.154014453291893
1783002724227220700,2.337220703125,0.17155152559280396,0.12114520370960236,0.270281046628952
1783002724237272800,2.34727294921875,0.27562785148620605,0.1387566775083542,0.3537333309650421
1783002724247323600,2.35732373046875,0.34871745109558105,0.1290065348148346,0.38456085324287415
1783002724257375700,2.367375732421875,0.4047383964061737,0.09579823911190033,0.36501646041870117
1783002724267426800,2.3774267578125,0.4270666241645813,0.05251513421535492,0.2918725907802582
1783002724277479000,2.38747900390625,0.4004776179790497,-0.021578269079327583,0.1717168688774109
1783002724287530000,2.397530029296875,0.3475905954837799,-0.12369111180305481,0.0334613099694252
1783002724297581800,2.407581787109375,0.26735007762908936,-0.2252369076013565,-0.09920565038919449
1783002724307633000,2.4176328125,0.17850758135318756,-0.28329774737358093,-0.1854487657546997
1783002724317685000,2.42768505859375,0.09327045828104019,-0.31030434370040894,-0.22955045104026794
1783002724327735800,2.43773583984375,0.014796157367527485,-0.31658488512039185,-0.24982856214046478
1783002724337788000,2.447787841796875,-0.03511201590299606,-0.25854501128196716,-0.2307153195142746
1783002724347839000,2.4578388671875,-0.05242014303803444,-0.16835680603981018,-0.19154371321201324
1783002724357890800,2.467890869140625,-0.04587941989302635,-0.09445701539516449,-0.15037310123443604
1783002724367942000,2.47794189453125,-0.02218693308532238,-0.037956006824970245,-0.13809001445770264
1783002724377993700,2.48799365234375,0.013927929103374481,0.015496033243834972,-0.15532758831977844
1783002724388044800,2.498044921875,0.05993657931685448,0.07118365913629532,-0.16896945238113403
1783002724398097000,2.508096923828125,0.09566767513751984,0.13307152688503265,-0.17024511098861694
1783002724408147700,2.518147705078125,0.11876099556684494,0.1790330857038498,-0.1329469531774521
1783002724418199800,2.52819970703125,0.12811961770057678,0.23313121497631073,-0.06435724347829819
1783002724428251000,2.5382509765625,0.12631739675998688,0.29390063881874084,0.022170377895236015
1783002724438302700,2.548302734375,0.12610754370689392,0.33911898732185364,0.11144859343767166
1783002724448353800,2.558353759765625,0.1386636346578598,0.3516784906387329,0.19272732734680176
1783002724458405600,2.568405517578125,0.1651647537946701,0.3426210880279541,0.2537288963794708
1783002724468458000,2.5784580078125,0.18205752968788147,0.29544439911842346,0.2807508111000061
1783002724478509000,2.588509033203125,0.18532949686050415,0.21587981283664703,0.2737991511821747
1783002724488561000,2.598560791015625,0.1762624830007553,0.12780192494392395,0.2393168956041336
1783002724498612000,2.608612060546875,0.15355263650417328,0.06277339160442352,0.17405186593532562
1783002724508663800,2.618663818359375,0.1073102280497551,0.01666588895022869,0.09445402771234512
1783002724518715000,2.62871484375,0.044969625771045685,-0.03219326585531235,0.019292958080768585
1783002724528767000,2.63876708984375,-0.01230698637664318,-0.07442323118448257,-0.032283343374729156
1783002724538817800,2.64881787109375,-0.05407733842730522,-0.10354623198509216,-0.07123686373233795
1783002724548870000,2.658869873046875,-0.08513543754816055,-0.13720795512199402,-0.10940510034561157
1783002724558921000,2.6689208984375,-0.10552326589822769,-0.1464611142873764,-0.12659820914268494
1783002724568972800,2.678972900390625,-0.11299487948417664,-0.12311933189630508,-0.12317702919244766
1783002724579024000,2.68902392578125,-0.11146755516529083,-0.08420495688915253,-0.09181778132915497
1783002724589075700,2.69907568359375,-0.1027001217007637,-0.05166129022836685,-0.07615974545478821
1783002724599126800,2.709126708984375,-0.08356478065252304,-0.025311175733804703,-0.08609413355588913
1783002724609179000,2.719178955078125,-0.06790821999311447,-0.018176496028900146,-0.11458490788936615
1783002724619229700,2.729229736328125,-0.06594040989875793,-0.02884751558303833,-0.158552885055542
1783002724629281800,2.73928173828125,-0.07230735570192337,-0.01992640644311905,-0.17614738643169403
1783002724639332900,2.749332763671875,-0.08586817234754562,0.02880384773015976,-0.16908414661884308
1783002724649384700,2.759384765625,-0.10138218104839325,0.0655159205198288,-0.15182530879974365
1783002724659435800,2.769435791015625,-0.1150607094168663,0.053947146981954575,-0.14357057213783264
1783002724669487600,2.779487548828125,-0.12578892707824707,0.021075189113616943,-0.14956294000148773
1783002724679538700,2.78953857421875,-0.14259134232997894,-0.010752249509096146,-0.1599239706993103
1783002724689591000,2.799591064453125,-0.1608555167913437,-0.04433354735374451,-0.18326525390148163
1783002724699643000,2.809642822265625,-0.17242775857448578,-0.04979116469621658,-0.19551819562911987
1783002724709694000,2.81969384765625,-0.1644238382577896,-0.038387492299079895,-0.18199563026428223
1783002724719745800,2.829745849609375,-0.15243269503116608,-0.05766637995839119,-0.1880388706922531
1783002724729796900,2.839796875,-0.15145261585712433,-0.11712972819805145,-0.22034679353237152
1783002724739849000,2.849848876953125,-0.16591836512088776,-0.14832386374473572,-0.25519293546676636
1783002724749899800,2.859899658203125,-0.1774127036333084,-0.13305148482322693,-0.2481730580329895
1783002724759952000,2.869951904296875,-0.2006535828113556,-0.12304359674453735,-0.22259020805358887
1783002724770003000,2.8800029296875,-0.22302067279815674,-0.1499871015548706,-0.1987701654434204
1783002724780054800,2.8900546875,-0.24471823871135712,-0.18175648152828217,-0.19828040897846222
1783002724790105900,2.90010595703125,-0.2542015016078949,-0.19939224421977997,-0.1897309422492981
1783002724800157700,2.91015771484375,-0.25125178694725037,-0.17554710805416107,-0.1534687876701355
1783002724810208800,2.920208740234375,-0.2373529076576233,-0.14397463202476501,-0.10080251842737198
1783002724820260900,2.9302607421875,-0.2352178543806076,-0.1389939934015274,-0.07950255274772644
1783002724830311700,2.940311767578125,-0.22968041896820068,-0.13943010568618774,-0.07662302255630493
1783002724840363800,2.95036376953125,-0.22464092075824738,-0.13459913432598114,-0.05837557464838028
1783002724850414800,2.960414794921875,-0.21771109104156494,-0.12638333439826965,-0.01158417109400034
1783002724860466700,2.970466796875,-0.22159291803836823,-0.1347067803144455,0.03868912160396576
1783002724870517800,2.980517822265625,-0.22973164916038513,-0.1468953639268875,0.08980443328619003
1783002724880569900,2.99056982421875,-0.24059654772281647,-0.17161482572555542,0.1357349157333374
1783002724890621000,3.000620849609375,-0.23009741306304932,-0.19752715528011322,0.18051522970199585
1783002724900673000,3.010673095703125,-0.19704678654670715,-0.19513137638568878,0.21436721086502075
1783002724910724900,3.020724853515625,-0.17687071859836578,-0.21121250092983246,0.20224735140800476
1783002724920776000,3.03077587890625,-0.20365600287914276,-0.33732861280441284,0.11824539303779602
1783002724930827800,3.040827880859375,-0.2622242569923401,-0.4273320734500885,-0.03482342138886452
1783002724940878800,3.05087890625,-0.2766202390193939,-0.43358463048934937,-0.19208255410194397
1783002724950931000,3.060930908203125,-0.2795252203941345,-0.3889722228050232,-0.33106154203414917
1783002724960981800,3.070981689453125,-0.296597957611084,-0.3640967011451721,-0.44513246417045593
1783002724971033900,3.081033935546875,-0.3131488561630249,-0.3250640332698822,-0.5158202648162842
1783002724981085000,3.0910849609375,-0.29872170090675354,-0.2635330259799957,-0.5522797703742981
1783002724991136800,3.10113671875,-0.2735357880592346,-0.2125559002161026,-0.5573951005935669
1783002725001187800,3.111187744140625,-0.23100775480270386,-0.17950233817100525,-0.5394421815872192
1783002725011239700,3.12123974609375,-0.1588273048400879,-0.1565394401550293,-0.47417253255844116
1783002725021290800,3.131290771484375,-0.07541391253471375,-0.11228223145008087,-0.36378422379493713
1783002725031342800,3.1413427734375,-0.008829368278384209,-0.07629720866680145,-0.2562314569950104
1783002725041393700,3.1513935546875,0.032719407230615616,-0.06272920221090317,-0.18767981231212616
1783002725051445800,3.16144580078125,0.06676073372364044,-0.047601912170648575,-0.14468707144260406
1783002725061496800,3.171496826171875,0.10157676786184311,-0.027107825502753258,-0.09230376034975052
1783002725071549000,3.181548828125,0.13264207541942596,-0.02110147476196289,-0.040583573281764984
1783002725081600000,3.19160009765625,0.1455315202474594,-0.015302175655961037,0.01654815673828125
1783002725091651800,3.20165185546875,0.14908623695373535,-0.016652071848511696,0.07186426222324371
1783002725101703000,3.211702880859375,0.15198349952697754,-0.002118935575708747,0.1453733593225479
1783002725111755000,3.221755126953125,0.15125998854637146,0.025626571848988533,0.2184140831232071
1783002725121806800,3.231806884765625,0.14434242248535156,0.022382576018571854,0.2660018503665924
1783002725131858000,3.24185791015625,0.12220675498247147,-0.055426403880119324,0.24972978234291077
1783002725141909800,3.25190966796875,0.07903344929218292,-0.16605357825756073,0.17936907708644867
1783002725151960800,3.2619609375,0.01791134662926197,-0.24584853649139404,0.10090131312608719
1783002725162013000,3.272012939453125,-0.048985131084918976,-0.2709461748600006,0.02688061259686947
1783002725172063700,3.282063720703125,-0.13490533828735352,-0.2747220993041992,-0.044251762330532074
1783002725182115800,3.29211572265625,-0.21421214938163757,-0.23520582914352417,-0.11548812687397003
1783002725192167000,3.3021669921875,-0.26678040623664856,-0.1476256400346756,-0.15822052955627441
1783002725202218800,3.31221875,-0.2931355834007263,-0.0403849333524704,-0.18608039617538452
1783002725212269800,3.322269775390625,-0.29950472712516785,0.04693711921572685,-0.19750593602657318
1783002725222321700,3.33232177734375,-0.27441534399986267,0.11550526320934296,-0.19709821045398712
1783002725232372700,3.342372802734375,-0.24354638159275055,0.15858134627342224,-0.18780910968780518
1783002725242424600,3.352424560546875,-0.20942622423171997,0.17019566893577576,-0.18044812977313995
1783002725252475400,3.362475341796875,-0.18292294442653656,0.1447865515947342,-0.15593348443508148
1783002725262527500,3.372527587890625,-0.16586913168430328,0.09965528547763824,-0.10468840599060059
1783002725272578600,3.38257861328125,-0.1359211802482605,0.10151813924312592,-0.004864265210926533
1783002725282630400,3.39263037109375,-0.09148688614368439,0.1150754988193512,0.12939393520355225
1783002725292681500,3.402681396484375,-0.04446117579936981,0.11303351074457169,0.26110368967056274
1783002725302733300,3.4127333984375,-0.0027249124832451344,0.09142515808343887,0.3527798056602478
1783002725312785400,3.422785400390625,0.03800283372402191,0.05638981610536575,0.4014568328857422
1783002725322836500,3.43283642578125,0.07374751567840576,0.019680004566907883,0.4299694299697876
1783002725332888600,3.442888671875,0.09746258705854416,-0.01325156819075346,0.4324793517589569
1783002725342939600,3.452939697265625,0.1028597503900528,-0.051476188004016876,0.4107607305049896
1783002725352991500,3.462991455078125,0.08689840883016586,-0.08225774019956589,0.36473482847213745
1783002725363042600,3.47304248046875,0.050196580588817596,-0.08365297317504883,0.3078252077102661
1783002725373094700,3.4830947265625,-0.012127187103033066,-0.06085873767733574,0.2526687681674957
1783002725383145500,3.4931455078125,-0.0945536196231842,-0.0035754756536334753,0.21838723123073578
1783002725393197600,3.503197509765625,-0.1796361804008484,0.06808078289031982,0.17617441713809967
1783002725403248600,3.51324853515625,-0.2624405026435852,0.14025403559207916,0.10275133699178696
1783002725413300500,3.523300537109375,-0.33428072929382324,0.21952933073043823,-0.03233193978667259
1783002725423351600,3.5333515625,-0.4016648232936859,0.3218538463115692,-0.2215695083141327
1783002725433403400,3.5434033203125,-0.48734816908836365,0.46908271312713623,-0.4230891764163971
1783002725443454500,3.553454345703125,-0.5540137887001038,0.6930001974105835,-0.580284059047699
1783002725453506600,3.563506591796875,-0.5937020182609558,0.9793027639389038,-0.6502358913421631
1783002725463557400,3.573557373046875,-0.5992317795753479,1.1855826377868652,-0.6500651836395264
1783002725473609500,3.583609375,-0.5598911643028259,1.2450964450836182,-0.593336820602417
1783002725483661300,3.593661376953125,-0.46617960929870605,1.2246556282043457,-0.5018007755279541
1783002725493712400,3.60371240234375,-0.3413206934928894,1.1087822914123535,-0.4026045799255371
1783002725503764500,3.613764404296875,-0.21883869171142578,0.8860278129577637,-0.30541226267814636
1783002725513815300,3.623815185546875,-0.12080494314432144,0.6099433898925781,-0.20117183029651642
1783002725523867600,3.63386767578125,-0.08060026913881302,0.3620787560939789,-0.09580039978027344
1783002725533918500,3.64391845703125,-0.10263688862323761,0.15600720047950745,-0.010795004665851593
1783002725543970600,3.653970458984375,-0.14969147741794586,-0.020654117688536644,0.0513802170753479
1783002725554021600,3.664021728515625,-0.19943590462207794,-0.12142636626958847,0.09236469864845276
1783002725564073500,3.674073486328125,-0.23299945890903473,-0.15465594828128815,0.10920306295156479
1783002725574124500,3.68412451171875,-0.2384825199842453,-0.13875210285186768,0.10162968933582306
1783002725584176600,3.6941767578125,-0.2123667597770691,-0.10237119346857071,0.08341553062200546
1783002725594227500,3.7042275390625,-0.1526448130607605,-0.03696732595562935,0.057142358273267746
1783002725604279600,3.714279541015625,-0.07783955335617065,0.006264569703489542,0.019341982901096344
1783002725614330600,3.72433056640625,-0.008738197386264801,0.017363009974360466,-0.021558629348874092
1783002725624382500,3.734382568359375,0.04277399554848671,-0.008307200856506824,-0.049488265067338943
1783002725634434600,3.7444345703125,0.06798391789197922,-0.06365012377500534,-0.05793965980410576
1783002725644485400,3.7544853515625,0.05712008476257324,-0.10546494275331497,-0.07042056322097778
1783002725654537500,3.764537353515625,0.0019942426588386297,-0.12979820370674133,-0.10542933642864227
1783002725664588500,3.774588623046875,-0.07671601325273514,-0.13751284778118134,-0.1356671303510666
1783002725674640400,3.784640380859375,-0.16910240054130554,-0.07220419496297836,-0.13069109618663788
1783002725684691500,3.79469140625,-0.25701281428337097,0.04285741224884987,-0.093023881316185
1783002725694743300,3.804743408203125,-0.3205036222934723,0.13470131158828735,-0.048837773501873016
1783002725704794400,3.81479443359375,-0.35369354486465454,0.15921650826931,-0.02582140639424324
1783002725714846700,3.8248466796875,-0.3571852147579193,0.13025064766407013,-0.038482870906591415
1783002725724897300,3.834897216796875,-0.3312220573425293,0.1140998974442482,-0.04610217735171318
1783002725734949600,3.84494970703125,-0.28329455852508545,0.08433158695697784,-0.028140947222709656
1783002725745000700,3.855000732421875,-0.2165115624666214,0.048721395432949066,0.033251576125621796
1783002725755052500,3.865052490234375,-0.11369491368532181,0.06645622849464417,0.12149441242218018
1783002725765103600,3.875103515625,0.024357233196496964,0.12751345336437225,0.2132594883441925
1783002725775155500,3.885155517578125,0.1988355815410614,0.19190087914466858,0.3115989565849304
1783002725785206500,3.89520654296875,0.31657740473747253,0.1780359297990799,0.37577423453330994
1783002725795258600,3.905258544921875,0.3460821807384491,0.0808287039399147,0.37434399127960205
1783002725805310500,3.915310546875,0.3126640319824219,-0.010877516120672226,0.3090081214904785
1783002725815361500,3.925361572265625,0.21506860852241516,-0.06752234697341919,0.1827591061592102
1783002725825413400,3.935413330078125,0.049951277673244476,-0.1341748833656311,0.003165915608406067
1783002725835464400,3.94546435546875,-0.13466119766235352,-0.18755386769771576,-0.18608029186725616
1783002725845516500,3.9555166015625,-0.28201600909233093,-0.23631714284420013,-0.3453599512577057
1783002725855567400,3.9655673828125,-0.39933720231056213,-0.27300307154655457,-0.45340073108673096
1783002725865619500,3.975619384765625,-0.4783385396003723,-0.27381134033203125,-0.48972970247268677
1783002725875670500,3.98567041015625,-0.49586981534957886,-0.2599896490573883,-0.42399710416793823
1783002725885722400,3.995722412109375,-0.46474143862724304,-0.1957874894142151,-0.29075729846954346
1783002725895773400,4.0057734375,-0.4119499623775482,-0.135292187333107,-0.1657228320837021
1783002725905825500,4.015825439453125,-0.3557894825935364,-0.09930355846881866,-0.09547901898622513
1783002725915876400,4.02587646484375,-0.2765111029148102,-0.10069029033184052,-0.061656318604946136
1783002725925928700,4.0359287109375,-0.17422202229499817,-0.09329096227884293,-0.011396344751119614
1783002725935979500,4.0459794921875,-0.05253969505429268,-0.05106925591826439,0.08170507848262787
1783002725946031600,4.056031494140625,0.08205141127109528,0.010851104743778706,0.2095397412776947
1783002725956082700,4.066082763671875,0.21497978270053864,0.07745307683944702,0.3559403717517853
1783002725966134500,4.076134521484375,0.33167392015457153,0.13396215438842773,0.4753858149051666
1783002725976186600,4.0861865234375,0.4061887860298157,0.16826963424682617,0.5583645701408386
1783002725986237400,4.096237548828125,0.45392486453056335,0.1345079392194748,0.5777364373207092
1783002725996289500,4.10628955078125,0.4831826388835907,0.07420403510332108,0.540574848651886
1783002726006340600,4.116340576171875,0.4867810904979706,0.014790242537856102,0.4539602994918823
1783002726016392400,4.126392333984375,0.4616999626159668,-0.08511296659708023,0.30915510654449463
1783002726026443500,4.136443603515625,0.40617865324020386,-0.236518993973732,0.12966285645961761
1783002726036495400,4.146495361328125,0.32923203706741333,-0.364176481962204,-0.021442051976919174
1783002726046546400,4.15654638671875,0.25339770317077637,-0.38273632526397705,-0.10492309182882309
1783002726056598500,4.1665986328125,0.18200525641441345,-0.33905619382858276,-0.14228694140911102
1783002726066649300,4.1766494140625,0.11388479173183441,-0.31215959787368774,-0.19854089617729187
1783002726076701400,4.186701416015625,0.07511743903160095,-0.29945772886276245,-0.24676474928855896
1783002726086752500,4.19675244140625,0.05688810348510742,-0.2679605185985565,-0.2578861117362976
1783002726096804400,4.206804443359375,0.044916700571775436,-0.22900427877902985,-0.25326162576675415
1783002726106855400,4.21685546875,0.0359991081058979,-0.22830919921398163,-0.24943014979362488
1783002726116907500,4.226907470703125,0.04237412288784981,-0.2572808861732483,-0.24241194128990173
1783002726126959600,4.236959716796875,0.06866325438022614,-0.27288782596588135,-0.21315418183803558
1783002726137010700,4.2470107421875,0.11209109425544739,-0.2140045464038849,-0.14945094287395477
1783002726147062500,4.2570625,0.1756192147731781,-0.07236246019601822,-0.067423976957798
1783002726157113600,4.267113525390625,0.24934250116348267,0.07514224201440811,0.018662922084331512
1783002726167165400,4.27716552734375,0.3207245469093323,0.16670997440814972,0.10155327618122101
1783002726177216500,4.287216552734375,0.3761376738548279,0.19284813106060028,0.17019517719745636
1783002726187268600,4.2972685546875,0.40142199397087097,0.1909857839345932,0.20569244027137756
1783002726197319400,4.3073193359375,0.4119184911251068,0.16707880795001984,0.21731647849082947
1783002726207371500,4.31737158203125,0.414564847946167,0.11055748164653778,0.18602487444877625
1783002726217422600,4.327422607421875,0.40900006890296936,0.06866897642612457,0.12157879769802094
1783002726227474400,4.337474365234375,0.4002201557159424,0.06318259984254837,0.012355636805295944
1783002726237525500,4.347525390625,0.3895062208175659,0.08516073226928711,-0.1133408173918724
1783002726247578000,4.357578125,0.37865516543388367,0.11124026775360107,-0.19634675979614258
1783002726257629200,4.367629150390625,0.3687524199485779,0.12213581800460815,-0.21420806646347046
1783002726267681000,4.377680908203125,0.3539297878742218,0.08212315291166306,-0.16972608864307404
1783002726277733000,4.387733154296875,0.33138540387153625,-0.016535889357328415,-0.10673100501298904
1783002726287784200,4.3977841796875,0.2858131229877472,-0.11984336376190186,-0.058575987815856934
1783002726297836000,4.4078359375,0.2249576896429062,-0.20835155248641968,-0.037996556609869
1783002726307887000,4.41788720703125,0.15851901471614838,-0.28567537665367126,-0.07112787663936615
1783002726317939000,4.42793896484375,0.10006770491600037,-0.3214731514453888,-0.14113827049732208
1783002726327990000,4.437989990234375,0.055288784205913544,-0.2901802062988281,-0.22744892537593842
1783002726338042000,4.4480419921875,0.024123262614011765,-0.19057722389698029,-0.32336127758026123
1783002726348093000,4.458093017578125,0.010820241644978523,-0.08033700287342072,-0.40617626905441284
1783002726358145000,4.46814501953125,0.018667124211788177,0.02442675083875656,-0.4534114897251129
1783002726368196000,4.478196044921875,0.04086270555853844,0.10040700435638428,-0.46294692158699036
1783002726378248000,4.488248046875,0.07622294127941132,0.09465456753969193,-0.44553160667419434
1783002726388299000,4.498299072265625,0.11450082063674927,0.023948967456817627,-0.4097674787044525
1783002726398351000,4.50835107421875,0.14940756559371948,-0.04057541862130165,-0.35248246788978577
1783002726408402000,4.51840185546875,0.1597595363855362,-0.10603991150856018,-0.2996504306793213
1783002726418454300,4.528454345703125,0.1408497393131256,-0.1655481606721878,-0.27562615275382996
1783002726428506000,4.538506103515625,0.08676759898662567,-0.1813199371099472,-0.294785737991333
1783002726438557200,4.54855712890625,0.025035781785845757,-0.1741677075624466,-0.3320712745189667
1783002726448609000,4.558609130859375,-0.02590356580913067,-0.1661904752254486,-0.35023534297943115
1783002726458660000,4.56866015625,-0.06288956850767136,-0.15769247710704803,-0.3478381931781769
1783002726468712200,4.578712158203125,-0.06355882436037064,-0.14524993300437927,-0.32153549790382385
1783002726478763000,4.588762939453125,-0.032796382904052734,-0.12023751437664032,-0.27546945214271545
1783002726488815000,4.598815185546875,0.02023807168006897,-0.11252553015947342,-0.23638224601745605
1783002726498866200,4.6088662109375,0.07337974011898041,-0.12133388966321945,-0.22166860103607178
1783002726508918000,4.61891796875,0.12411109358072281,-0.09879875183105469,-0.20293113589286804
1783002726518969000,4.628968994140625,0.140586718916893,-0.04334073141217232,-0.20122309029102325
1783002726529021000,4.63902099609375,0.12346579879522324,0.005167682655155659,-0.20357519388198853
1783002726539072000,4.649072021484375,0.08070966601371765,0.02835729531943798,-0.20404356718063354
1783002726549124000,4.6591240234375,0.022589365020394325,0.01060333289206028,-0.20025283098220825
1783002726559175000,4.6691748046875,-0.03585657477378845,-0.0387517549097538,-0.1886940449476242
1783002726569227000,4.67922705078125,-0.08347655832767487,-0.10539576411247253,-0.16886654496192932
1783002726579279000,4.689279052734375,-0.10406723618507385,-0.1538691222667694,-0.15092387795448303
1783002726589330200,4.699330078125,-0.09550704061985016,-0.1936652660369873,-0.146684929728508
1783002726599382300,4.70938232421875,-0.07808469235897064,-0.22672727704048157,-0.15060319006443024
1783002726609433000,4.71943310546875,-0.05362915247678757,-0.2070862054824829,-0.13922350108623505
1783002726619485200,4.729485107421875,-0.013228076510131359,-0.11265594512224197,-0.11604177206754684
1783002726629536300,4.739536376953125,0.03936855494976044,-0.012256370857357979,-0.06639991700649261
1783002726639588000,4.749588134765625,0.09770607948303223,0.030997727066278458,-0.007890955545008183
1783002726649639200,4.75963916015625,0.16455835103988647,-0.005955231375992298,0.06566927582025528
1783002726659691000,4.76969091796875,0.22766461968421936,-0.05529268458485603,0.1484922617673874
1783002726669742000,4.7797421875,0.23231635987758636,-0.15642569959163666,0.19328449666500092
1783002726679794200,4.789794189453125,0.15815114974975586,-0.35359883308410645,0.15012939274311066
1783002726689845000,4.799844970703125,0.057246118783950806,-0.5321456789970398,0.011560591869056225
1783002726699897000,4.80989697265625,0.002572398167103529,-0.5899686217308044,-0.16083279252052307
1783002726709948200,4.8199482421875,-0.028727734461426735,-0.5330289006233215,-0.29952675104141235
1783002726720000000,4.83,-0.0730450451374054,-0.4132102131843567,-0.38291123509407043
1783002726730052000,4.840052001953125,-0.11314745247364044,-0.27041393518447876,-0.4215497076511383
1783002726740103000,4.85010302734375,-0.13115529716014862,-0.13468685746192932,-0.44344741106033325
1783002726750155000,4.860155029296875,-0.1261565387248993,0.00043155206367373466,-0.4245471954345703
1783002726760206000,4.8702060546875,-0.08382551372051239,0.16706356406211853,-0.35319313406944275
1783002726770258200,4.880258056640625,-0.012987561523914337,0.2852671444416046,-0.24373029172420502
1783002726780309200,4.890309326171875,0.06210587918758392,0.30066952109336853,-0.12843190133571625
1783002726790361000,4.900361083984375,0.09247977286577225,0.2339314967393875,-0.05315578728914261
1783002726800412200,4.910412109375,0.08135432749986649,0.10562262684106827,-0.016812317073345184
1783002726810464300,4.92046435546875,0.05906553193926811,-0.010183071717619896,0.014333085156977177
1783002726820515000,4.93051513671875,0.04706675186753273,-0.06916630268096924,0.042395301163196564
1783002726830567200,4.940567138671875,0.057935379445552826,-0.10686467587947845,0.06379060447216034
1783002726840618200,4.9506181640625,0.07970425486564636,-0.14858600497245789,0.08706164360046387
1783002726850670000,4.960670166015625,0.10222128033638,-0.17674574255943298,0.13562147319316864
1783002726860722200,4.97072216796875,0.11416154354810715,-0.16793540120124817,0.1951184719800949
1783002726870773000,4.98077294921875,0.11555277556180954,-0.14084945619106293,0.23983347415924072
1783002726880825000,4.9908251953125,0.11757336556911469,-0.11364270001649857,0.27179741859436035
1783002726890876200,5.000876220703125,0.11909882724285126,-0.10661941766738892,0.2992689907550812
1783002726900928000,5.010927978515625,0.10030859708786011,-0.1282394528388977,0.3156636655330658
1783002726910979000,5.02097900390625,0.059387799352407455,-0.17422452569007874,0.30701449513435364
1783002726921031000,5.031031005859375,-0.010111409239470959,-0.21290768682956696,0.2630462050437927
1783002726931082000,5.04108203125,-0.10206210613250732,-0.2179109752178192,0.1493779867887497
1783002726941134000,5.051134033203125,-0.21329481899738312,-0.18321746587753296,0.014482945203781128
1783002726951185000,5.061184814453125,-0.3121127486228943,-0.10014813393354416,-0.0982944667339325
1783002726961237200,5.0712373046875,-0.36864182353019714,0.050033342093229294,-0.14547137916088104
1783002726971288000,5.0812880859375,-0.37227755784988403,0.21831956505775452,-0.13203439116477966
1783002726981340200,5.091340087890625,-0.3181658089160919,0.3268587589263916,-0.08415462076663971
1783002726991392300,5.101392333984375,-0.23331961035728455,0.3649113178253174,-0.04121141880750656
1783002727001443000,5.111443115234375,-0.14062237739562988,0.34757670760154724,0.00009480956941843033
1783002727011495200,5.1214951171875,-0.06707838922739029,0.30679866671562195,0.0131168682128191
1783002727021546200,5.131546142578125,-0.021182259544730186,0.23523342609405518,-0.009392804466187954
1783002727031598000,5.14159814453125,-0.004061330575495958,0.1378389596939087,-0.06464434415102005
1783002727041649200,5.151649169921875,-0.00772773427888751,0.09983754903078079,-0.11798658967018127
1783002727051701000,5.161700927734375,-0.031248504295945168,0.12211409211158752,-0.12500667572021484
1783002727061752000,5.171751953125,-0.06179289147257805,0.15484626591205597,-0.09133273363113403
1783002727071804200,5.18180419921875,-0.08157192170619965,0.16406559944152832,-0.020211685448884964
1783002727081855000,5.19185498046875,-0.09560474753379822,0.1556205153465271,0.05363105982542038
1783002727091907000,5.201906982421875,-0.08665386587381363,0.14816074073314667,0.10331818461418152
1783002727101958100,5.211958251953125,-0.06443587690591812,0.12224575132131577,0.11705613881349564
1783002727112010000,5.222010009765625,-0.0332217700779438,0.08571943640708923,0.08342094719409943
1783002727122061000,5.23206103515625,0.004118782468140125,0.055172402411699295,0.010636766441166401
1783002727132113000,5.24211279296875,0.031839627772569656,0.040976956486701965,-0.05540110543370247
1783002727142165200,5.252165283203125,0.04259387403726578,0.054290175437927246,-0.08250227570533752
1783002727152216300,5.26221630859375,0.03284990042448044,0.08322729170322418,-0.07138065248727798
1783002727162268200,5.27226806640625,0.02251533791422844,0.08431939780712128,-0.06664782762527466
1783002727172319200,5.2823193359375,0.020320359617471695,0.07680927962064743,-0.07469750195741653
1783002727182371000,5.29237109375,0.0252523273229599,0.08178401738405228,-0.09563568234443665
1783002727192422100,5.302422119140625,0.026441428810358047,0.0935935378074646,-0.11742114275693893
1783002727202474200,5.31247412109375,0.033712975680828094,0.13011124730110168,-0.1355886310338974
1783002727212525000,5.322525146484375,0.037746332585811615,0.17663852870464325,-0.15468642115592957
1783002727222577200,5.3325771484375,0.04082101583480835,0.19079023599624634,-0.14606963098049164
1783002727232628200,5.342628173828125,0.039169855415821075,0.1731414794921875,-0.10343429446220398
1783002727242680000,5.35268017578125,0.039652567356824875,0.1422577202320099,-0.043331895023584366
1783002727252731000,5.36273095703125,0.050365399569272995,0.10917593538761139,0.007864712737500668
1783002727262782700,5.37278271484375,0.07979170233011246,0.0796889141201973,0.02546774409711361
1783002727272834800,5.382834716796875,0.12300682067871094,0.09086646884679794,0.015118967741727829
1783002727282886000,5.392885986328125,0.17104102671146393,0.11626391112804413,-0.01597827672958374
1783002727292937700,5.402937744140625,0.21529823541641235,0.14830440282821655,-0.041280701756477356
1783002727302988800,5.41298876953125,0.251236230134964,0.2151944786310196,-0.05038151890039444
1783002727313040600,5.42304052734375,0.29403454065322876,0.3065992295742035,-0.019010279327630997
1783002727323091700,5.433091796875,0.34450066089630127,0.36977308988571167,0.03371954336762428
1783002727333144000,5.44314404296875,0.3936764597892761,0.37098297476768494,0.11279518902301788
1783002727343194600,5.453194580078125,0.43610504269599915,0.3276667594909668,0.20240259170532227
1783002727353247000,5.4632470703125,0.46444693207740784,0.2711310386657715,0.2836814522743225
1783002727363298000,5.473298095703125,0.5027062892913818,0.2520883083343506,0.3224923014640808
1783002727373350000,5.483349853515625,0.5463289022445679,0.2683727443218231,0.3106500208377838
1783002727383401000,5.49340087890625,0.5757609605789185,0.2788632810115814,0.2564247250556946
1783002727393452800,5.503452880859375,0.5816878080368042,0.2563904821872711,0.18570126593112946
1783002727403505000,5.5135048828125,0.5582314133644104,0.21288016438484192,0.10859377682209015
1783002727413556000,5.523555908203125,0.49831587076187134,0.1678019016981125,0.0367313027381897
1783002727423607800,5.53360791015625,0.42850494384765625,0.12652301788330078,-0.019977867603302002
1783002727433659000,5.543658935546875,0.3757874071598053,0.07627023756504059,-0.06210321933031082
1783002727443710700,5.553710693359375,0.3647110164165497,0.03272970765829086,-0.08214610069990158
1783002727453761800,5.56376171875,0.3800596296787262,0.03199467808008194,-0.09602542966604233
1783002727463814000,5.57381396484375,0.4005482494831085,0.06145171448588371,-0.12865719199180603
1783002727473864700,5.58386474609375,0.3934309482574463,0.13467718660831451,-0.15722571313381195
1783002727483916800,5.593916748046875,0.372525691986084,0.2946210205554962,-0.14479617774486542
1783002727493968000,5.6039677734375,0.34572046995162964,0.4970795810222626,-0.0952986553311348
1783002727504019700,5.614019775390625,0.330089807510376,0.6450515389442444,-0.03451337665319443
1783002727514070800,5.62407080078125,0.34837666153907776,0.7308231592178345,-0.0035810256376862526
1783002727524122600,5.63412255859375,0.3974522054195404,0.773563802242279,-0.010390120558440685
1783002727534175000,5.644175048828125,0.4621371924877167,0.8242267370223999,-0.022630009800195694
1783002727544226000,5.65422607421875,0.5522534251213074,0.9035783410072327,-0.025224145501852036
1783002727554278000,5.66427783203125,0.6515302062034607,0.9979865550994873,0.009035291150212288
1783002727564329000,5.674328857421875,0.7171800136566162,1.0421967506408691,0.024741824716329575
1783002727574380800,5.684380859375,0.749248206615448,0.9975326657295227,0.01863652467727661
1783002727584431900,5.694431884765625,0.7087615132331848,1.0663625001907349,0.2606104016304016
1783002727594484000,5.70448388671875,0.712469220161438,0.6803959012031555,0.31604889035224915
1783002727604534800,5.71453466796875,0.7385931015014648,0.22666925191879272,0.09442652761936188
1783002727614587000,5.7245869140625,0.7624670267105103,0.07465574145317078,-0.07926829904317856
1783002727624638000,5.734637939453125,0.8033358454704285,0.0819711983203888,-0.0988115668296814
1783002727634689800,5.744689697265625,0.8924435973167419,0.12551282346248627,-0.060289204120635986
1783002727644740900,5.754740966796875,0.9908171892166138,0.2116158902645111,-0.019096149131655693
1783002727654792700,5.764792724609375,1.060280442237854,0.24679091572761536,-0.006498598959296942
1783002727664843800,5.77484375,1.0509297847747803,0.186864972114563,0.0036873891949653625
1783002727674896000,5.784895751953125,1.020166039466858,0.0885477289557457,0.03454650193452835
1783002727684947700,5.79494775390625,0.9937881827354431,-0.029200110584497452,0.019265927374362946
