time,seconds_elapsed,z,y,x
1783002721961862700,0.071862548828125,-0.11232893913984299,-0.03441949188709259,-0.15180045366287231
1783002721971913500,0.08191357421875,-0.13410666584968567,-0.14066258072853088,-0.2440299689769745
1783002721981965600,0.091965576171875,-0.1605217605829239,-0.20354141294956207,-0.33601370453834534
1783002721992017400,0.102017333984375,-0.17960384488105774,-0.23831084370613098,-0.38665342330932617
1783002722002068500,0.112068359375,-0.20081911981105804,-0.23511983454227448,-0.40269818902015686
1783002722012119600,0.12211962890625,-0.21638929843902588,-0.14224901795387268,-0.41315561532974243
1783002722022171400,0.13217138671875,-0.2021578997373581,0.02106720209121704,-0.4000834822654724
1783002722032223500,0.142223388671875,-0.14715056121349335,0.1805410087108612,-0.3474157452583313
1783002722042274600,0.152274658203125,-0.08274921029806137,0.25264450907707214,-0.2688431739807129
1783002722052326400,0.162326416015625,-0.04182654246687889,0.22390979528427124,-0.2029230147600174
1783002722062377500,0.17237744140625,-0.023506658151745796,0.14586639404296875,-0.14891038835048676
1783002722072429300,0.18242919921875,-0.012094213627278805,0.04222441837191582,-0.11998791992664337
1783002722082480400,0.19248046875,-0.018439194187521935,-0.0724789947271347,-0.11581102013587952
1783002722092532500,0.202532470703125,-0.061656441539525986,-0.15236078202724457,-0.13663694262504578
1783002722102583300,0.212583251953125,-0.1253102570772171,-0.13457272946834564,-0.16480253636837006
1783002722112635600,0.2226357421875,-0.15943200886249542,-0.04230937361717224,-0.16313672065734863
1783002722122686500,0.2326865234375,-0.15092960000038147,0.01751534454524517,-0.1561826765537262
1783002722132738600,0.242738525390625,-0.11662381887435913,0.05288984626531601,-0.1457313746213913
1783002722142789600,0.25278955078125,-0.06979373097419739,0.10389257967472076,-0.11774314194917679
1783002722152841500,0.262841552734375,-0.03602271527051926,0.163408100605011,-0.0572797991335392
1783002722162892500,0.272892578125,-0.014779744669795036,0.20219464600086212,0.014213557355105877
1783002722172944600,0.282944580078125,-0.014695056714117527,0.1992204338312149,0.08145730942487717
1783002722182995500,0.292995361328125,-0.013457485474646091,0.15282337367534637,0.12832042574882507
1783002722193047600,0.303047607421875,-0.017739849165081978,0.0971907302737236,0.15738137066364288
1783002722203098600,0.3130986328125,-0.03172304108738899,0.059729110449552536,0.15697763860225677
1783002722213150500,0.323150390625,-0.053160954266786575,0.0422222875058651,0.18035753071308136
1783002722223201500,0.333201416015625,-0.05753892660140991,0.09501679241657257,0.2287207990884781
1783002722233253400,0.34325341796875,-0.046537939459085464,0.18414533138275146,0.2784025967121124
1783002722243305200,0.35330517578125,-0.03653857111930847,0.23227904736995697,0.29149362444877625
1783002722253357000,0.363357177734375,-0.021710354834794998,0.22115395963191986,0.27898821234703064
1783002722263408000,0.373408203125,-0.01019671093672514,0.1813839077949524,0.26814356446266174
1783002722273460200,0.383460205078125,0.003314303932711482,0.12662158906459808,0.2729407250881195
1783002722283511000,0.393510986328125,-0.002385925967246294,0.05836796760559082,0.295844703912735
1783002722293563100,0.403563232421875,-0.011549863032996655,0.0002540655550546944,0.33795806765556335
1783002722303614200,0.4136142578125,-0.007831291295588017,-0.012574381195008755,0.3902532458305359
1783002722313666000,0.423666015625,0.0013451626291498542,0.013005547225475311,0.44601690769195557
1783002722323717000,0.433717041015625,0.012940832413733006,0.02563638798892498,0.49086451530456543
1783002722333769200,0.443769287109375,0.020349746569991112,0.04977741092443466,0.5043462514877319
1783002722343820000,0.453820068359375,0.029221268370747566,0.09972792863845825,0.47844168543815613
1783002722353872400,0.463872314453125,0.0617845393717289,0.15224120020866394,0.45937636494636536
1783002722363923200,0.473923095703125,0.12347320467233658,0.21131864190101624,0.46975550055503845
1783002722373975300,0.483975341796875,0.1814454197883606,0.2759559452533722,0.5183752179145813
1783002722384026400,0.4940263671875,0.22082798182964325,0.2963786721229553,0.5919631719589233
1783002722394078200,0.504078125,0.2507014572620392,0.31575876474380493,0.6965492367744446
1783002722404129300,0.51412939453125,0.2667182385921478,0.3090052604675293,0.756523072719574
1783002722414181000,0.52418115234375,0.2333533614873886,0.17625172436237335,0.6895829439163208
1783002722424232200,0.534232177734375,0.14700250327587128,-0.08357425779104233,0.46890249848365784
1783002722434284300,0.5442841796875,0.0006857639527879655,-0.3733208477497101,0.1583867073059082
1783002722444335000,0.554335205078125,-0.20992633700370789,-0.6059000492095947,-0.1351253241300583
1783002722454387200,0.56438720703125,-0.428087443113327,-0.7513517737388611,-0.29653793573379517
1783002722464438300,0.574438232421875,-0.6348392963409424,-0.7288304567337036,-0.28557103872299194
1783002722474490000,0.584489990234375,-0.8185433149337769,-0.5972732305526733,-0.1612514704465866
1783002722484541200,0.594541259765625,-0.952949047088623,-0.5102962851524353,-0.016053801402449608
1783002722494593000,0.604593017578125,-1.0132771730422974,-0.5191726088523865,0.10729502886533737
1783002722504644000,0.61464404296875,-0.9540659785270691,-0.5563634037971497,0.1874931901693344
1783002722514696200,0.6246962890625,-0.7847685813903809,-0.5798985362052917,0.21343931555747986
1783002722524747000,0.6347470703125,-0.5380645394325256,-0.5860139727592468,0.19906996190547943
1783002722534799000,0.644799072265625,-0.2482529580593109,-0.5357073545455933,0.16498522460460663
1783002722544850200,0.65485009765625,0.03529806807637215,-0.387412965297699,0.13009755313396454
1783002722554902300,0.66490234375,0.25932636857032776,-0.17606717348098755,0.08060163259506226
1783002722564953000,0.674953125,0.377361923456192,0.006339122075587511,0.014749119058251381
1783002722575005200,0.685005126953125,0.41827553510665894,0.13136601448059082,-0.06763017922639847
1783002722585056300,0.69505615234375,0.39911648631095886,0.18828095495700836,-0.13246935606002808
1783002722595108400,0.7051083984375,0.3297331631183624,0.1829375922679901,-0.18258419632911682
1783002722605160200,0.71516015625,0.2272251695394516,0.1207200288772583,-0.21879732608795166
1783002722615211300,0.725211181640625,0.11740652471780777,0.03954288363456726,-0.22041893005371094
1783002722625263000,0.73526318359375,0.00814794097095728,-0.04320818930864334,-0.1859389692544937
1783002722635314200,0.745314208984375,-0.07346782833337784,-0.10459724813699722,-0.11631835252046585
1783002722645366300,0.7553662109375,-0.1270274519920349,-0.16919249296188354,-0.031074296683073044
1783002722655417000,0.7654169921875,-0.14713485538959503,-0.2381816804409027,0.05204429104924202
1783002722665469200,0.77546923828125,-0.13625450432300568,-0.24719727039337158,0.144746795296669
1783002722675520300,0.785520263671875,-0.09158877283334732,-0.21494798362255096,0.2176617532968521
1783002722685572000,0.795572021484375,-0.032390695065259933,-0.16096597909927368,0.27428215742111206
1783002722695623200,0.805623046875,0.01727006770670414,-0.11520035564899445,0.2834183871746063
1783002722705675000,0.815675048828125,0.04872972145676613,-0.08012599498033524,0.24560150504112244
1783002722715726000,0.82572607421875,0.06132301315665245,-0.05395937338471413,0.18196633458137512
1783002722725778200,0.835778076171875,0.060750700533390045,-0.058098189532756805,0.10373757779598236
1783002722735829000,0.8458291015625,0.07129602134227753,-0.054017163813114166,0.06119384989142418
1783002722745881300,0.85588134765625,0.10190106183290482,-0.0031728900503367186,0.07300656288862228
1783002722755932200,0.86593212890625,0.14060425758361816,0.0653286725282669,0.12106969952583313
1783002722765984300,0.875984375,0.16982685029506683,0.1394393891096115,0.19101576507091522
1783002722776035300,0.886035400390625,0.18697680532932281,0.25067323446273804,0.27178359031677246
1783002722786087200,0.896087158203125,0.20263060927391052,0.3813771903514862,0.3361859917640686
1783002722796138200,0.90613818359375,0.2078503966331482,0.45685940980911255,0.34408146142959595
1783002722806190300,0.9161904296875,0.20718488097190857,0.47008681297302246,0.3048973083496094
1783002722816241200,0.9262412109375,0.20501147210597992,0.4454757273197174,0.24611443281173706
1783002722826293200,0.936293212890625,0.20028889179229736,0.3647627830505371,0.1897566169500351
1783002722836344300,0.94634423828125,0.19350607693195343,0.20319359004497528,0.14940892159938812
1783002722846396200,0.956396240234375,0.17966003715991974,0.018012821674346924,0.15679840743541718
1783002722856447200,0.966447265625,0.1522635668516159,-0.1415558010339737,0.1922445446252823
1783002722866499000,0.9764990234375,0.1060020700097084,-0.23599228262901306,0.23176930844783783
1783002722876550100,0.986550048828125,0.057370081543922424,-0.23081323504447937,0.26657018065452576
1783002722886602200,0.996602294921875,0.02533784694969654,-0.1804712414741516,0.2825169265270233
1783002722896653000,1.006653076171875,0.009031311608850956,-0.14715829491615295,0.27596715092658997
1783002722906705200,1.016705078125,0.0007326356135308743,-0.14728212356567383,0.24826812744140625
1783002722916756200,1.026756103515625,0.001568069215863943,-0.15459942817687988,0.19965451955795288
1783002722926808000,1.03680810546875,0.013289174064993858,-0.14979055523872375,0.15768496692180634
1783002722936859100,1.046859130859375,0.023604394868016243,-0.13702896237373352,0.11026232689619064
1783002722946911000,1.056910888671875,0.028267057612538338,-0.12837181985378265,0.07246407866477966
1783002722956962000,1.066962158203125,0.03554627671837807,-0.11485841125249863,0.047922518104314804
1783002722967014400,1.077014404296875,0.04694114252924919,-0.08890270441770554,0.05621613562107086
1783002722977065200,1.087065185546875,0.05426137521862984,-0.042697928845882416,0.08152148872613907
1783002722987117300,1.097117431640625,0.05288292095065117,0.022770026698708534,0.1102127879858017
1783002722997168400,1.10716845703125,0.047996554523706436,0.0734662264585495,0.12236958742141724
1783002723007220200,1.11722021484375,0.035834163427352905,0.08408771455287933,0.11408529430627823
1783002723017271300,1.127271240234375,0.023637153208255768,0.08828219026327133,0.08580359071493149
1783002723027323100,1.1373232421875,0.008203867822885513,0.09113257378339767,0.043710995465517044
1783002723037374200,1.147374267578125,-0.00330338510684669,0.09150195121765137,0.0003075950953643769
1783002723047426300,1.15742626953125,-0.007437143474817276,0.0744345560669899,-0.025072330608963966
1783002723057477000,1.16747705078125,-0.014905978925526142,0.05278731510043144,-0.04187474399805069
1783002723067529200,1.177529296875,-0.0330897755920887,0.05902470275759697,-0.03303411602973938
1783002723077580300,1.187580322265625,-0.040593232959508896,0.08731599897146225,-0.006696784868836403
1783002723087632100,1.197632080078125,-0.04218500480055809,0.09902618080377579,0.023009179159998894
1783002723097683200,1.20768310546875,-0.032527849078178406,0.09305484592914581,0.045764025300741196
1783002723107735000,1.217735107421875,-0.0070344735868275166,0.10041448473930359,0.0699993222951889
1783002723117787100,1.227787109375,0.024451013654470444,0.11968965083360672,0.0896124392747879
1783002723127838200,1.237838134765625,0.057865697890520096,0.12820883095264435,0.10091117024421692
1783002723137890000,1.24789013671875,0.0880395770072937,0.1225339025259018,0.09620003402233124
1783002723147941000,1.257941162109375,0.11106234043836594,0.1134735643863678,0.09023908525705338
1783002723157993200,1.2679931640625,0.1229778528213501,0.09260423481464386,0.0891362652182579
1783002723168044000,1.2780439453125,0.11734819412231445,0.04500369355082512,0.0840192660689354
1783002723178096400,1.288096435546875,0.10022274404764175,-0.009286975488066673,0.08578654378652573
1783002723188147200,1.298147216796875,0.09407936036586761,-0.050462640821933746,0.11212839931249619
1783002723198199300,1.30819921875,0.10597889870405197,-0.07540340721607208,0.15684634447097778
1783002723208250400,1.31825048828125,0.12824133038520813,-0.08978953957557678,0.20319892466068268
1783002723218302200,1.32830224609375,0.19942335784435272,-0.050752393901348114,0.2617511749267578
1783002723228353300,1.338353271484375,0.28084897994995117,0.0317281037569046,0.33367225527763367
1783002723238404900,1.34840478515625,0.3374861478805542,0.023453926667571068,0.37918752431869507
1783002723248455700,1.35845556640625,0.3297741711139679,-0.10009703785181046,0.36029452085494995
1783002723258507800,1.3685078125,0.2657611072063446,-0.2467258870601654,0.29937630891799927
1783002723268558800,1.378558837890625,0.15138286352157593,-0.2991555333137512,0.219930499792099
1783002723278611000,1.38861083984375,0.003656253917142749,-0.3540760576725006,0.11923717707395554
1783002723288661800,1.398661865234375,-0.15297463536262512,-0.38748300075531006,0.025585521012544632
1783002723298713900,1.4087138671875,-0.2936159074306488,-0.3351428508758545,-0.08338809758424759
1783002723308765000,1.418764892578125,-0.3910561800003052,-0.2111428678035736,-0.21978801488876343
1783002723318817000,1.428817138671875,-0.42573612928390503,-0.04989751800894737,-0.34178316593170166
1783002723328867800,1.438867919921875,-0.3892558813095093,0.1229349747300148,-0.4141026437282562
1783002723338920000,1.448919921875,-0.29360872507095337,0.27859169244766235,-0.45087262988090515
1783002723348971000,1.458970947265625,-0.15684634447097778,0.38234230875968933,-0.4636329114437103
1783002723359022800,1.46902294921875,-0.0015454323729500175,0.4038017988204956,-0.4529411196708679
1783002723369074000,1.479073974609375,0.13781778514385223,0.39197736978530884,-0.39422106742858887
1783002723379125800,1.489125732421875,0.2563476264476776,0.41718125343322754,-0.2671049237251282
1783002723389176800,1.4991767578125,0.3643135130405426,0.41984814405441284,-0.09211953729391098
1783002723399229000,1.50922900390625,0.44457879662513733,0.36725950241088867,0.07578957080841064
1783002723409279700,1.51927978515625,0.48931989073753357,0.279216468334198,0.200055330991745
1783002723419331800,1.529331787109375,0.4995104670524597,0.18380925059318542,0.26589319109916687
1783002723429383000,1.5393828125,0.4657037854194641,0.06432146579027176,0.2592392861843109
1783002723439434800,1.549434814453125,0.4180217385292053,-0.06956363469362259,0.19733783602714539
1783002723449485800,1.55948583984375,0.3617856502532959,-0.1934160739183426,0.1268058866262436
1783002723459537700,1.56953759765625,0.29657867550849915,-0.2803075611591339,0.062300924211740494
1783002723469588700,1.579588623046875,0.2240498811006546,-0.30950459837913513,0.004562793765217066
1783002723479640800,1.589640869140625,0.1564122438430786,-0.2647094130516052,-0.024455275386571884
1783002723489691600,1.599691650390625,0.0950801745057106,-0.1693405658006668,-0.045283857733011246
1783002723499744000,1.609743896484375,0.04057485610246658,-0.026190325617790222,-0.06769542396068573
1783002723509795000,1.619795166015625,0.011570103466510773,0.1513889878988266,-0.06447965651750565
1783002723519847000,1.629846923828125,0.010687798261642456,0.2932073771953583,-0.032035164535045624
1783002723529898000,1.63989794921875,0.018911106511950493,0.36320164799690247,0.016818927600979805
1783002723539949800,1.64994970703125,0.0318351611495018,0.3886180520057678,0.0650213435292244
1783002723550002000,1.660001953125,0.05392128974199295,0.3577815890312195,0.08976797014474869
1783002723560053000,1.670052978515625,0.0728377252817154,0.28750288486480713,0.09843229502439499
1783002723570103800,1.680103759765625,0.07214929163455963,0.20756997168064117,0.08401288092136383
1783002723580156000,1.690156005859375,0.05275322496891022,0.1265222579240799,0.062131546437740326
1783002723590207700,1.700207763671875,0.019841615110635757,0.08717457950115204,0.0439261794090271
1783002723600258800,1.7102587890625,-0.00920335203409195,0.05591866001486778,0.031324367970228195
1783002723610311000,1.720310791015625,-0.03218802809715271,0.011638280004262924,0.011565576307475567
1783002723620361700,1.73036181640625,-0.048536643385887146,-0.009912551380693913,-0.019596338272094727
1783002723630413800,1.740413818359375,-0.06440402567386627,-0.003716707695275545,-0.05018221214413643
1783002723640465000,1.75046484375,-0.08178194612264633,0.012286493554711342,-0.06928293406963348
1783002723650516700,1.760516845703125,-0.09041431546211243,0.07294691354036331,-0.05646301060914993
1783002723660567800,1.77056787109375,-0.08986783772706985,0.13375672698020935,-0.018823755905032158
1783002723670619600,1.78061962890625,-0.08673569560050964,0.15164385735988617,0.01822907105088234
1783002723680670700,1.790670654296875,-0.09681922197341919,0.12264815717935562,0.03365489840507507
1783002723690722800,1.800722900390625,-0.11566028743982315,0.095264732837677,0.03665521740913391
1783002723700773600,1.810773681640625,-0.1285792738199234,0.08752239495515823,0.048398956656455994
1783002723710826000,1.820825927734375,-0.12809431552886963,0.08284454792737961,0.06342078745365143
1783002723720877000,1.830876953125,-0.12044119089841843,0.07517038285732269,0.04977767542004585
1783002723730929000,1.840928955078125,-0.1146693229675293,0.04030774161219597,-0.008237157016992569
1783002723740980000,1.85097998046875,-0.10257111489772797,0.016030898317694664,-0.08743157982826233
1783002723751031800,1.86103173828125,-0.0751325711607933,0.02923591621220112,-0.1479543149471283
1783002723761083000,1.871082763671875,-0.04243214428424835,0.07121159881353378,-0.17886722087860107
1783002723771135000,1.881135009765625,-0.009229185059666634,0.11922679096460342,-0.1806190460920334
1783002723781185800,1.891185791015625,0.013259346596896648,0.15415814518928528,-0.16216467320919037
1783002723791238000,1.90123779296875,0.03154594078660011,0.20286868512630463,-0.12635581195354462
1783002723801289000,1.9112890625,0.055807340890169144,0.24874936044216156,-0.06454330682754517
1783002723811340800,1.9213408203125,0.07187499105930328,0.24857279658317566,-0.007510913070291281
1783002723821392000,1.931391845703125,0.07689052075147629,0.23340663313865662,0.009582320228219032
1783002723831443700,1.941443603515625,0.07363294064998627,0.19564752280712128,-0.02099343203008175
1783002723841494800,1.951494873046875,0.04902693256735802,0.1342552751302719,-0.06996816396713257
1783002723851547000,1.961546875,0.022494656965136528,0.12579362094402313,-0.09940887987613678
1783002723861597700,1.97159765625,0.00148125016130507,0.16380570828914642,-0.09599816799163818
1783002723871649800,1.98164990234375,-0.014839665964245796,0.20092910528182983,-0.08012545853853226
1783002723881700900,1.991700927734375,-0.016524914652109146,0.2277492731809616,-0.05493062734603882
1783002723891752700,2.001752685546875,-0.008482168428599834,0.2944313585758209,0.008987369947135448
1783002723901803800,2.0118037109375,0.01799045130610466,0.381319135427475,0.09352968633174896
1783002723911855900,2.02185595703125,0.0436747744679451,0.4217778742313385,0.1590770035982132
1783002723921908000,2.031907958984375,0.059542953968048096,0.3973811864852905,0.18936726450920105
1783002723931959000,2.041958984375,0.06265166401863098,0.3567083179950714,0.18190962076187134
1783002723942011000,2.052010986328125,0.051957473158836365,0.3269866406917572,0.16301928460597992
1783002723952062000,2.06206201171875,0.03628929704427719,0.3211769461631775,0.1511056274175644
1783002723962113800,2.07211376953125,0.007926366291940212,0.329768568277359,0.1624688059091568
1783002723972164900,2.082164794921875,-0.019407253712415695,0.3577043414115906,0.17770715057849884
1783002723982217000,2.092217041015625,-0.03206446021795273,0.36112117767333984,0.19060403108596802
1783002723992267800,2.102267822265625,-0.026027604937553406,0.31458935141563416,0.1985173523426056
1783002724002320000,2.11231982421875,-0.005062669049948454,0.2445671409368515,0.20407776534557343
1783002724012371000,2.122370849609375,0.02767716720700264,0.1870196908712387,0.2279125303030014
1783002724022422800,2.1324228515625,0.06542082130908966,0.16347788274288177,0.27164003252983093
1783002724032473900,2.142473876953125,0.09979290515184402,0.16649922728538513,0.3188472390174866
1783002724042525700,2.152525634765625,0.1344587355852127,0.19134466350078583,0.3489753007888794
1783002724052576800,2.16257666015625,0.19610373675823212,0.24889983236789703,0.39393770694732666
1783002724062628900,2.17262890625,0.26591822504997253,0.2790665328502655,0.4506731629371643
1783002724072679700,2.1826796875,0.30106502771377563,0.18143796920776367,0.47262054681777954
1783002724082731800,2.192731689453125,0.29979443550109863,0.009778328239917755,0.4506356120109558
1783002724092782800,2.202782958984375,0.274289608001709,-0.13121820986270905,0.4020960330963135
1783002724102835000,2.2128349609375,0.2141474485397339,-0.24904683232307434,0.33112066984176636
1783002724112886000,2.222885986328125,0.12225933372974396,-0.3663303256034851,0.23394405841827393
1783002724122937900,2.232937744140625,0.023846743628382683,-0.4361163377761841,0.11334333568811417
1783002724132989000,2.242989013671875,-0.06341838836669922,-0.4498949944972992,-0.01884026639163494
1783002724143040800,2.253040771484375,-0.14503441751003265,-0.3777318596839905,-0.12378691881895065
1783002724153091800,2.263091796875,-0.2087409645318985,-0.2797626852989197,-0.18767988681793213
1783002724163144000,2.27314404296875,-0.24286217987537384,-0.18533657491207123,-0.217744842171669
1783002724173195000,2.283195068359375,-0.24086427688598633,-0.10912355780601501,-0.22338968515396118
1783002724183246800,2.293246826171875,-0.21256738901138306,-0.044550955295562744,-0.18805725872516632
1783002724193298000,2.3032978515625,-0.16957998275756836,0.02852192334830761,-0.1132970005273819
1783002724203349800,2.313349853515625,-0.09764347225427628,0.07576506584882736,-0.009847304783761501
1783002724213401900,2.32340185546875,0.0034149715211242437,0.0946309044957161,0.11229032278060913
1783002724223453000,2.333452880859375,0.12165479362010956,0.11705631762742996,0.23855452239513397
1783002724233504800,2.3435048828125,0.23497016727924347,0.1364973932504654,0.33638814091682434
1783002724243555800,2.353555908203125,0.32129254937171936,0.14358912408351898,0.3881184458732605
1783002724253607700,2.363607666015625,0.3850499391555786,0.11735059320926666,0.3879948854446411
1783002724263658800,2.37365869140625,0.41820070147514343,0.073623888194561,0.33219659328460693
1783002724273710800,2.3837109375,0.4094804525375366,0.012120844796299934,0.23113761842250824
1783002724283761700,2.39376171875,0.3661617338657379,-0.08041121810674667,0.09747782349586487
1783002724293814000,2.40381396484375,0.29346251487731934,-0.18677067756652832,-0.047575775533914566
1783002724303864800,2.41386474609375,0.20687994360923767,-0.2615405321121216,-0.151678204536438
1783002724313917000,2.4239169921875,0.11706164479255676,-0.2973214387893677,-0.20896200835704803
1783002724323968000,2.433968017578125,0.039020635187625885,-0.3147464990615845,-0.24032925069332123
1783002724334019800,2.444019775390625,-0.02648407220840454,-0.2850272059440613,-0.234201580286026
1783002724344071000,2.45407080078125,-0.05612745136022568,-0.1962704360485077,-0.19981005787849426
1783002724354122800,2.464122802734375,-0.05459160730242729,-0.11450847238302231,-0.15269847214221954
1783002724364173800,2.474173828125,-0.03786242753267288,-0.0515633262693882,-0.12954173982143402
1783002724374226000,2.484225830078125,-0.0029646309558302164,-0.0002902845444623381,-0.1382521539926529
1783002724384277000,2.494277099609375,0.035885028541088104,0.04984612017869949,-0.1571749746799469
1783002724394328800,2.504328857421875,0.0760902389883995,0.11956661194562912,-0.1619414985179901
1783002724404380000,2.5143798828125,0.10573042184114456,0.167216956615448,-0.1434498429298401
1783002724414431700,2.524431640625,0.12129393965005875,0.21173195540905,-0.08843692392110825
1783002724424482800,2.53448291015625,0.12359411269426346,0.2749047875404358,-0.00510021997615695
1783002724434535000,2.544534912109375,0.12268144637346268,0.3280079662799835,0.08667764067649841
1783002724444585700,2.554585693359375,0.125936359167099,0.352107435464859,0.1711251437664032
1783002724454637800,2.564637939453125,0.1497756391763687,0.35262009501457214,0.24103498458862305
1783002724464689700,2.574689697265625,0.17591430246829987,0.32275593280792236,0.28220853209495544
1783002724474740700,2.58474072265625,0.18152637779712677,0.25280454754829407,0.2874874472618103
1783002724484792800,2.594792724609375,0.17472520470619202,0.16345736384391785,0.26341378688812256
1783002724494843600,2.60484375,0.1606229692697525,0.0910596027970314,0.2119673788547516
1783002724504896000,2.61489599609375,0.12300288677215576,0.039908267557621,0.13350160419940948
1783002724514946800,2.62494677734375,0.06719741225242615,-0.012750416062772274,0.05381369590759277
1783002724524999000,2.6349990234375,0.005360410548746586,-0.06022951751947403,-0.006896255537867546
1783002724535050000,2.645050048828125,-0.043174900114536285,-0.08556363731622696,-0.050088200718164444
1783002724545101800,2.655101806640625,-0.08106875419616699,-0.1242082342505455,-0.08806487917900085
1783002724555153000,2.66515283203125,-0.1030384972691536,-0.14235474169254303,-0.11785046756267548
1783002724565204700,2.675204833984375,-0.11484482884407043,-0.1316419094800949,-0.11914316564798355
1783002724575255800,2.685255859375,-0.11836792528629303,-0.09558271616697311,-0.09584157168865204
1783002724585308000,2.695307861328125,-0.11210603266954422,-0.060555487871170044,-0.07220202684402466
1783002724595359000,2.70535888671875,-0.09520108252763748,-0.03147270530462265,-0.06767651438713074
1783002724605410800,2.715410888671875,-0.07685723155736923,-0.014539261348545551,-0.09379733353853226
1783002724615462000,2.7254619140625,-0.06613294780254364,-0.019946543499827385,-0.13771046698093414
1783002724625513700,2.735513671875,-0.07517411559820175,-0.025709889829158783,-0.16544727981090546
1783002724635564800,2.745564697265625,-0.08599107712507248,0.012061189860105515,-0.16595621407032013
1783002724645617000,2.755616943359375,-0.0977633148431778,0.06077120453119278,-0.15280473232269287
1783002724655667700,2.765667724609375,-0.11501047760248184,0.06954924762248993,-0.1360507756471634
1783002724665719800,2.7757197265625,-0.13055427372455597,0.037628334015607834,-0.1365932673215866
1783002724675771000,2.78577099609375,-0.14176006615161896,0.005136705003678799,-0.14420591294765472
1783002724685822700,2.79582275390625,-0.15720319747924805,-0.02990010753273964,-0.16551253199577332
1783002724695874800,2.805874755859375,-0.1726982742547989,-0.0476016066968441,-0.18753767013549805
1783002724705926000,2.81592578125,-0.1736820489168167,-0.03616945445537567,-0.18014712631702423
1783002724715978000,2.82597802734375,-0.15901201963424683,-0.04008030891418457,-0.17389190196990967
1783002724726028800,2.83602880859375,-0.15071813762187958,-0.08791254460811615,-0.19644993543624878
1783002724736081000,2.846080810546875,-0.16142538189888,-0.13925296068191528,-0.23649269342422485
1783002724746132000,2.856132080078125,-0.1785479038953781,-0.13813389837741852,-0.24541401863098145
1783002724756183800,2.866183837890625,-0.19563475251197815,-0.1180850937962532,-0.22213666141033173
1783002724766235000,2.87623486328125,-0.21850544214248657,-0.1340094655752182,-0.19333884119987488
1783002724776286700,2.88628662109375,-0.24001792073249817,-0.16611839830875397,-0.1887129247188568
1783002724786337800,2.896337890625,-0.2561526894569397,-0.191200852394104,-0.1855885088443756
1783002724796390000,2.906389892578125,-0.25633564591407776,-0.18653152883052826,-0.16061870753765106
1783002724806440700,2.916440673828125,-0.24450507760047913,-0.14929254353046417,-0.10986284911632538
1783002724816492800,2.926492919921875,-0.239225372672081,-0.13523158431053162,-0.07114528119564056
1783002724826543900,2.9365439453125,-0.23570279777050018,-0.13749633729457855,-0.06770740449428558
1783002724836595700,2.946595703125,-0.22921214997768402,-0.13335299491882324,-0.060938186943531036
1783002724846646800,2.956646728515625,-0.22465521097183228,-0.12558774650096893,-0.025123462080955505
1783002724856698600,2.96669873046875,-0.22208739817142487,-0.12828393280506134,0.029284119606018066
1783002724866749700,2.976749755859375,-0.23056210577487946,-0.1406220942735672,0.07667001336812973
1783002724876801800,2.9868017578125,-0.24250371754169464,-0.1577419638633728,0.126029834151268
1783002724886852900,2.996852783203125,-0.24282889068126678,-0.18529902398586273,0.1712324619293213
1783002724896905000,3.006905029296875,-0.21308298408985138,-0.19246985018253326,0.2122371643781662
1783002724906956800,3.016956787109375,-0.18730518221855164,-0.18812516331672668,0.22060774266719818
1783002724917008000,3.0270078125,-0.18782156705856323,-0.282804012298584,0.16945694386959076
1783002724927060000,3.03706005859375,-0.24621883034706116,-0.3994493782520294,0.03164714202284813
1783002724937110800,3.04711083984375,-0.2797815799713135,-0.43875259160995483,-0.1254732310771942
1783002724947163000,3.057162841796875,-0.28244635462760925,-0.39904487133026123,-0.2739758789539337
1783002724957214000,3.0672138671875,-0.29104089736938477,-0.3681045174598694,-0.3999292850494385
1783002724967265800,3.077265869140625,-0.3117823898792267,-0.3405812680721283,-0.48714250326156616
1783002724977316900,3.08731689453125,-0.3094494640827179,-0.28414249420166016,-0.5364857912063599
1783002724987368700,3.09736865234375,-0.28744348883628845,-0.22760891914367676,-0.5480743050575256
1783002724997419800,3.107419677734375,-0.2538253366947174,-0.18608304858207703,-0.5435333251953125
1783002725007471900,3.117471923828125,-0.19326800107955933,-0.16561506688594818,-0.49764466285705566
1783002725017522700,3.127522705078125,-0.1149633377790451,-0.1269286572933197,-0.3989383280277252
1783002725027574800,3.13757470703125,-0.03592710942029953,-0.08624354004859924,-0.2864903509616852
1783002725037625900,3.1476259765625,0.017107347026467323,-0.06459177285432816,-0.20034028589725494
1783002725047677700,3.157677734375,0.05091457813978195,-0.04951508715748787,-0.1523224264383316
1783002725057728800,3.167728759765625,0.08308902382850647,-0.030307305976748466,-0.10053806006908417
1783002725067780600,3.177780517578125,0.11707042902708054,-0.018859442323446274,-0.04801146686077118
1783002725077831700,3.187831787109375,0.13968519866466522,-0.01215812936425209,0.00316010694950819
1783002725087884000,3.197884033203125,0.14595001935958862,-0.015659119933843613,0.05760524049401283
1783002725097934800,3.207934814453125,0.1445278823375702,-0.008707204833626747,0.12543781101703644
1783002725107987000,3.217987060546875,0.14397048950195312,0.02063310705125332,0.20015360414981842
1783002725118038800,3.228038818359375,0.1445465236902237,0.03472788631916046,0.2637600004673004
1783002725128089900,3.23808984375,0.1317199468612671,-0.015629293397068977,0.2720120847225189
1783002725138142000,3.248141845703125,0.0927368625998497,-0.12099806219339371,0.21623243391513824
1783002725148192800,3.25819287109375,0.04127366840839386,-0.21858586370944977,0.13930995762348175
1783002725158244900,3.268244873046875,-0.025900838896632195,-0.2625695765018463,0.06282184273004532
1783002725168296000,3.2782958984375,-0.10543667525053024,-0.26875582337379456,-0.008086422458291054
1783002725178347800,3.28834765625,-0.19235533475875854,-0.2524831295013428,-0.08323496580123901
1783002725188398800,3.29839892578125,-0.2544003129005432,-0.18109682202339172,-0.1362220197916031
1783002725198450700,3.30845068359375,-0.2922899127006531,-0.07452696561813354,-0.17034590244293213
1783002725208501800,3.318501708984375,-0.30534952878952026,0.020611535757780075,-0.1843131184577942
1783002725218553900,3.328553955078125,-0.29100146889686584,0.09706476330757141,-0.18534375727176666
1783002725228604700,3.338604736328125,-0.26196610927581787,0.15176768600940704,-0.18142545223236084
1783002725238656500,3.348656494140625,-0.22607547044754028,0.17214779555797577,-0.17590712010860443
1783002725248707600,3.35870751953125,-0.19756820797920227,0.16690802574157715,-0.15930816531181335
1783002725258759400,3.368759521484375,-0.17314621806144714,0.11981801688671112,-0.12008086591959
1783002725268810500,3.378810546875,-0.15364734828472137,0.09671375900506973,-0.04067445918917656
1783002725278862600,3.388862548828125,-0.11426958441734314,0.11813356727361679,0.08049777150154114
1783002725288913400,3.398913330078125,-0.0687287300825119,0.12178955227136612,0.22451938688755035
1783002725298965500,3.408965576171875,-0.02244698628783226,0.10637997090816498,0.3331630527973175
1783002725309017300,3.419017333984375,0.019039470702409744,0.07210642099380493,0.3930562138557434
1783002725319068400,3.429068359375,0.05534235015511513,0.03602777421474457,0.4276474714279175
1783002725329120500,3.43912060546875,0.08625179529190063,0.0046576024033129215,0.441280722618103
1783002725339171300,3.44917138671875,0.10007493197917938,-0.0334106869995594,0.4314768314361572
1783002725349223700,3.4592236328125,0.0932077094912529,-0.06932075321674347,0.3926181197166443
1783002725359274500,3.4692744140625,0.06181356683373451,-0.08267463743686676,0.33651089668273926
1783002725369326600,3.47932666015625,0.0070280819199979305,-0.07119961082935333,0.2806550860404968
1783002725379377700,3.489377685546875,-0.06622562557458878,-0.025791915133595467,0.23850977420806885
1783002725389429500,3.499429443359375,-0.15070295333862305,0.04476507380604744,0.20148970186710358
1783002725399480600,3.50948046875,-0.23654116690158844,0.11603739112615585,0.14659397304058075
1783002725409532700,3.51953271484375,-0.3144601881504059,0.19131456315517426,0.03356275334954262
1783002725419583500,3.52958349609375,-0.3771563470363617,0.28367698192596436,-0.13805347681045532
1783002725429635600,3.539635498046875,-0.4608067572116852,0.41032761335372925,-0.3410681188106537
1783002725439686700,3.549686767578125,-0.5374482870101929,0.6062888503074646,-0.5258150696754456
1783002725449738500,3.559738525390625,-0.5873769521713257,0.8745560050010681,-0.6243642568588257
1783002725459789600,3.56978955078125,-0.6053184270858765,1.1335375308990479,-0.65145343542099
1783002725469841400,3.57984130859375,-0.5852403044700623,1.238211989402771,-0.6117355823516846
1783002725479893500,3.5898935546875,-0.5129138827323914,1.246229648590088,-0.5296233892440796
1783002725489944600,3.599944580078125,-0.395293265581131,1.1695261001586914,-0.4319961369037628
1783002725499996400,3.609996337890625,-0.26492565870285034,0.9846832752227783,-0.33127060532569885
1783002725510047500,3.620047607421875,-0.15656590461730957,0.7193294167518616,-0.23334883153438568
1783002725520099300,3.630099365234375,-0.09470999985933304,0.4523317813873291,-0.12566524744033813
1783002725530150400,3.640150390625,-0.09532572329044342,0.23555207252502441,-0.03289429843425751
1783002725540202500,3.650202392578125,-0.13562387228012085,0.040833450853824615,0.04135995730757713
1783002725550253300,3.66025341796875,-0.1859871745109558,-0.08586457371711731,0.0860762968659401
1783002725560305700,3.6703056640625,-0.2254198044538498,-0.1460123360157013,0.1108492836356163
1783002725570356500,3.6803564453125,-0.24431653320789337,-0.1411917507648468,0.11890082061290741
1783002725580408600,3.69040869140625,-0.2302209585905075,-0.11497558653354645,0.10024590790271759
1783002725590459600,3.700459716796875,-0.18159109354019165,-0.06041993573307991,0.07438155263662338
1783002725600511500,3.710511474609375,-0.1113041564822197,-0.0011076086666435003,0.04030268266797066
1783002725610562600,3.7205625,-0.03501470759510994,0.018564630299806595,0.002939863596111536
1783002725620614700,3.73061474609375,0.02160436101257801,0.010656639002263546,-0.03633537143468857
1783002725630666500,3.74066650390625,0.05884014815092087,-0.03930452838540077,-0.05084320530295372
1783002725640717600,3.750717529296875,0.06315526366233826,-0.0890398621559143,-0.05862336605787277
1783002725650769400,3.760769287109375,0.02407577447593212,-0.1191205307841301,-0.08091136068105698
1783002725660820500,3.770820556640625,-0.04975663870573044,-0.13660284876823425,-0.11666722595691681
1783002725670872600,3.78087255859375,-0.13786359131336212,-0.10444971174001694,-0.1294535994529724
1783002725680923400,3.79092333984375,-0.22935010492801666,0.002508697798475623,-0.09756463766098022
1783002725690975500,3.8009755859375,-0.30326107144355774,0.1135377436876297,-0.05524461343884468
1783002725701026600,3.811026611328125,-0.34841710329055786,0.15910576283931732,-0.02448616735637188
1783002725711078400,3.821078369140625,-0.3643854260444641,0.1506025642156601,-0.026511235162615776
1783002725721129500,3.83112939453125,-0.3497779667377472,0.12052667886018753,-0.04014768451452255
1783002725731181300,3.841181396484375,-0.3083394467830658,0.1050071120262146,-0.029748573899269104
1783002725741232400,3.851232421875,-0.2472609281539917,0.06216190755367279,0.01631132885813713
1783002725751284500,3.861284423828125,-0.16434793174266815,0.05584169551730156,0.09685570746660233
1783002725761335600,3.87133544921875,-0.03831250220537186,0.10494585335254669,0.18838189542293549
1783002725771387600,3.8813876953125,0.12941817939281464,0.17821234464645386,0.28541576862335205
1783002725781438500,3.8914384765625,0.2783069908618927,0.19901350140571594,0.36630555987358093
1783002725791490600,3.901490478515625,0.33966514468193054,0.12225613743066788,0.3920607268810272
1783002725801542400,3.91154248046875,0.3227277100086212,0.021408353000879288,0.35246536135673523
1783002725811593500,3.921593505859375,0.25513696670532227,-0.04200390726327896,0.2467791587114334
1783002725821645600,3.9316455078125,0.10929932445287704,-0.10168667882680893,0.08344562351703644
1783002725831696400,3.9416962890625,-0.07563111186027527,-0.16506218910217285,-0.10848599672317505
1783002725841748500,3.95174853515625,-0.23397627472877502,-0.21101076900959015,-0.2816191613674164
1783002725851799600,3.961799560546875,-0.36237552762031555,-0.2586371600627899,-0.411617636680603
1783002725861851400,3.971851318359375,-0.4591958224773407,-0.27379533648490906,-0.4772661626338959
1783002725871902500,3.98190234375,-0.496305376291275,-0.2672426104545593,-0.4530372619628906
1783002725881954300,3.991954345703125,-0.48690226674079895,-0.22238992154598236,-0.3366200923919678
1783002725892005400,4.00200537109375,-0.4353053867816925,-0.1514212191104889,-0.19461289048194885
1783002725902057500,4.012057373046875,-0.3823992908000946,-0.10322332382202148,-0.10696959495544434
1783002725912108500,4.022108642578125,-0.31480374932289124,-0.09569244086742401,-0.064844511449337
1783002725922160400,4.032160400390625,-0.22124983370304108,-0.09503091126680374,-0.02550456114113331
1783002725932211500,4.04221142578125,-0.1029900312423706,-0.06608074903488159,0.050214968621730804
1783002725942263600,4.052263671875,0.02431013248860836,-0.008334629237651825,0.16766436398029327
1783002725952314600,4.062314697265625,0.16307200491428375,0.057500842958688736,0.3107285797595978
1783002725962366500,4.072366455078125,0.28561604022979736,0.11728215217590332,0.4427768886089325
1783002725972418600,4.08241845703125,0.37800320982933044,0.16754931211471558,0.5372996926307678
1783002725982469600,4.0924697265625,0.43671339750289917,0.156942218542099,0.5865351557731628
1783002725992521500,4.102521484375,0.4691278040409088,0.10359936207532883,0.570837676525116
1783002726002572500,4.112572509765625,0.48448145389556885,0.04283002018928528,0.5017299652099609
1783002726012624400,4.122624267578125,0.4690082371234894,-0.03638570383191109,0.37732383608818054
1783002726022675500,4.132675537109375,0.42824774980545044,-0.17041194438934326,0.2038697749376297
1783002726032727600,4.1427275390625,0.3539106845855713,-0.32568302750587463,0.03267325833439827
1783002726042778400,4.1527783203125,0.27423688769340515,-0.3860023021697998,-0.07348620146512985
1783002726052830500,4.16283056640625,0.20237946510314941,-0.3499574661254883,-0.11922626197338104
1783002726062881500,4.172881591796875,0.13489283621311188,-0.3138998746871948,-0.167160764336586
1783002726072933400,4.182933349609375,0.08493459969758987,-0.30000004172325134,-0.22041065990924835
1783002726082984400,4.192984375,0.059956811368465424,-0.2787855565547943,-0.2471890151500702
1783002726093036300,4.203036376953125,0.04416186735033989,-0.23775823414325714,-0.2448427677154541
1783002726103087400,4.21308740234375,0.03279789537191391,-0.22204025089740753,-0.24056173861026764
1783002726113139500,4.223139404296875,0.03265488147735596,-0.24041633307933807,-0.2400730550289154
1783002726123191600,4.233191650390625,0.050637878477573395,-0.2669084072113037,-0.21942077577114105
1783002726133242600,4.24324267578125,0.08684248477220535,-0.24372132122516632,-0.16668325662612915
1783002726143294500,4.25329443359375,0.14768800139427185,-0.12781842052936554,-0.09027743339538574
1783002726153345500,4.263345458984375,0.21527689695358276,0.02678847126662731,-0.0051747881807386875
1783002726163397600,4.273397705078125,0.2905671298503876,0.14258244633674622,0.07566546648740768
1783002726173448400,4.283448486328125,0.3565823435783386,0.1940871775150299,0.15378636121749878
1783002726183500500,4.29350048828125,0.3906268775463104,0.19781002402305603,0.20354753732681274
1783002726193551600,4.303551513671875,0.4038047194480896,0.18324731290340424,0.22502325475215912
1783002726203603500,4.313603515625,0.4091193377971649,0.13645504415035248,0.20990929007530212
1783002726213654500,4.323654541015625,0.41006234288215637,0.08594740182161331,0.16067595779895782
1783002726223706400,4.333706298828125,0.3989364802837372,0.06447406113147736,0.0661100447177887
1783002726233757400,4.34375732421875,0.3886185884475708,0.07860878854990005,-0.05660175904631615
1783002726243810300,4.353810302734375,0.37920963764190674,0.10851209610700607,-0.1675301492214203
1783002726253861000,4.363861083984375,0.3662658631801605,0.12472754716873169,-0.2096453756093979
1783002726263913200,4.373913330078125,0.3542936444282532,0.10894113034009933,-0.17897480726242065
1783002726273965000,4.383965087890625,0.33527255058288574,0.0255154799669981,-0.1183953508734703
1783002726284016000,4.39401611328125,0.29642340540885925,-0.0764031633734703,-0.06382771581411362
1783002726294068200,4.404068115234375,0.24349388480186462,-0.1737866997718811,-0.03639422729611397
1783002726304119000,4.414119140625,0.17832712829113007,-0.25717559456825256,-0.04337730258703232
1783002726314171100,4.424171142578125,0.11618839204311371,-0.3089485168457031,-0.10164406895637512
1783002726324222200,4.43422216796875,0.06556223332881927,-0.3083181381225586,-0.18582552671432495
1783002726334274000,4.444274169921875,0.028630046173930168,-0.22611835598945618,-0.2824372947216034
1783002726344325000,4.4543251953125,0.010382600128650665,-0.11618839204311371,-0.37271764874458313
1783002726354377000,4.464376953125,0.010146111249923706,-0.010307231917977333,-0.4321357011795044
1783002726364428000,4.474427978515625,0.023749537765979767,0.08325307816267014,-0.4547659158706665
1783002726374480100,4.484480224609375,0.055025968700647354,0.11191481351852417,-0.44797778129577637
1783002726384531000,4.494531005859375,0.09658752381801605,0.057249441742897034,-0.4182731509208679
1783002726394583000,4.5045830078125,0.13290318846702576,-0.016207199543714523,-0.36530688405036926
1783002726404634000,4.514634033203125,0.15912413597106934,-0.07615628838539124,-0.30953893065452576
1783002726414686000,4.52468603515625,0.14932237565517426,-0.1438911259174347,-0.26846662163734436
1783002726424738000,4.534738037109375,0.10335727781057358,-0.1776626706123352,-0.2781517207622528
1783002726434789000,4.5447890625,0.04724501073360443,-0.17421174049377441,-0.3118063509464264
1783002726444841200,4.55484130859375,-0.01281406544148922,-0.1640339493751526,-0.3380856215953827
1783002726454892000,4.56489208984375,-0.05414179712533951,-0.15522900223731995,-0.34112828969955444
1783002726464944000,4.574944091796875,-0.07136978954076767,-0.14687785506248474,-0.3277381956577301
1783002726474995200,4.5849951171875,-0.04977075010538101,-0.1253507286310196,-0.2863768935203552
1783002726485047000,4.595047119140625,-0.006462959107011557,-0.10505611449480057,-0.23986318707466125
1783002726495098000,4.60509814453125,0.04803170636296272,-0.11557985842227936,-0.21957044303417206
1783002726505150000,4.61514990234375,0.10341640561819077,-0.11018642783164978,-0.19916290044784546
1783002726515201000,4.625200927734375,0.13542440533638,-0.061475612223148346,-0.18864049017429352
1783002726525253000,4.635253173828125,0.12912656366825104,-0.005231513641774654,-0.19628216326236725
1783002726535304200,4.64530419921875,0.09454461187124252,0.02612214721739292,-0.1998734325170517
1783002726545356000,4.65535595703125,0.0390336848795414,0.024625718593597412,-0.19515112042427063
1783002726555407000,4.665406982421875,-0.01979900524020195,-0.014916631393134594,-0.1874346137046814
1783002726565459000,4.675458984375,-0.07051943987607956,-0.07761862874031067,-0.1678031086921692
1783002726575511000,4.685510986328125,-0.09982619434595108,-0.1322842687368393,-0.14633430540561676
1783002726585562000,4.69556201171875,-0.10346540808677673,-0.17736199498176575,-0.13530589640140533
1783002726595614200,4.7056142578125,-0.09204018115997314,-0.21337619423866272,-0.13914616405963898
1783002726605665000,4.7156650390625,-0.06994499266147614,-0.2181890606880188,-0.13872432708740234
1783002726615717000,4.725717041015625,-0.0341063030064106,-0.14777295291423798,-0.1187085434794426
1783002726625768200,4.735768310546875,0.013076653704047203,-0.04241083934903145,-0.07591580599546432
1783002726635820000,4.745820068359375,0.07211041450500488,0.028302744030952454,-0.019937755540013313
1783002726645871000,4.75587109375,0.13448111712932587,0.018749719485640526,0.04267369583249092
1783002726655923200,4.765923095703125,0.20540961623191833,-0.03647492080926895,0.12693344056606293
1783002726665974000,4.77597412109375,0.2347848117351532,-0.10433865338563919,0.1938946396112442
1783002726676026000,4.786026123046875,0.18726789951324463,-0.26890549063682556,0.18883968889713287
1783002726686077200,4.7960771484375,0.08802706003189087,-0.47008493542671204,0.07947272062301636
1783002726696129000,4.80612890625,0.011571701616048813,-0.5782183408737183,-0.08937595039606094
1783002726706180000,4.81618017578125,-0.021992117166519165,-0.561276912689209,-0.24341319501399994
1783002726716232000,4.82623193359375,-0.059070244431495667,-0.4591609239578247,-0.3506576120853424
1783002726726284000,4.836283935546875,-0.10344276577234268,-0.31937745213508606,-0.4021061658859253
1783002726736335000,4.846335205078125,-0.13383130729198456,-0.18111279606819153,-0.4325610101222992
1783002726746387000,4.856386962890625,-0.1361951231956482,-0.047437556087970734,-0.42892950773239136
1783002726756438000,4.86643798828125,-0.10843726247549057,0.1126093715429306,-0.37874889373779297
1783002726766489900,4.87648974609375,-0.04620664194226265,0.2552216351032257,-0.27930113673210144
1783002726776541000,4.886541015625,0.03363066539168358,0.3111751973628998,-0.15966849029064178
1783002726786593300,4.89659326171875,0.08104585111141205,0.2733420729637146,-0.067685566842556
1783002726796644000,4.90664404296875,0.08670692890882492,0.16168875992298126,-0.01997211016714573
1783002726806696200,4.9166962890625,0.06199546158313751,0.029828468337655067,0.008952216245234013
1783002726816747300,4.926747314453125,0.04391046613454819,-0.047746483236551285,0.04207341745495796
1783002726826799000,4.936799072265625,0.04512087255716324,-0.08512980490922928,0.06442639231681824
1783002726836850200,4.94685009765625,0.06800141930580139,-0.12814678251743317,0.0821252316236496
1783002726846902000,4.956902099609375,0.09149795770645142,-0.16725637018680573,0.12273550778627396
1783002726856954000,4.9669541015625,0.10641725361347198,-0.1704723984003067,0.183804452419281
1783002726867005200,4.977005126953125,0.11073929816484451,-0.14556145668029785,0.23176665604114532
1783002726877057000,4.98705712890625,0.113617904484272,-0.12009045481681824,0.2701300084590912
1783002726887108000,4.997108154296875,0.11417903751134872,-0.10675095021724701,0.29555922746658325
1783002726897160000,5.007159912109375,0.10859465599060059,-0.11349087208509445,0.3231104016304016
1783002726907211000,5.0172109375,0.07467663288116455,-0.1489093154668808,0.32300442457199097
1783002726917263000,5.02726318359375,0.016199210658669472,-0.19813784956932068,0.29327207803726196
1783002726927314000,5.03731396484375,-0.0707804262638092,-0.2184593677520752,0.20749007165431976
1783002726937366000,5.047365966796875,-0.1756674349308014,-0.19650134444236755,0.07322760671377182
1783002726947417000,5.0574169921875,-0.2828980088233948,-0.13607634603977203,-0.0545138418674469
1783002726957469000,5.067468994140625,-0.3605818748474121,-0.008462993428111076,-0.12690335512161255
1783002726967520000,5.07752001953125,-0.3803926110267639,0.1654968112707138,-0.13533705472946167
1783002726977571800,5.08757177734375,-0.35291704535484314,0.29951798915863037,-0.09797050803899765
1783002726987624200,5.097624267578125,-0.2725124955177307,0.3632514476776123,-0.0474010705947876
1783002726997675300,5.10767529296875,-0.18025419116020203,0.36391589045524597,-0.004731904715299606
1783002727007727000,5.11772705078125,-0.0997508317232132,0.32674482464790344,0.017736386507749557
1783002727017778200,5.127778076171875,-0.041599906980991364,0.27034440636634827,0.012867328710854053
1783002727027830000,5.137830078125,-0.010806042701005936,0.17939798533916473,-0.03151265159249306
1783002727037881000,5.147881103515625,-0.010333864018321037,0.1100521981716156,-0.09537924826145172
1783002727047933200,5.15793310546875,-0.02569870464503765,0.11352576315402985,-0.12381195276975632
1783002727057984000,5.16798388671875,-0.05551678687334061,0.14842942357063293,-0.0995553508400917
1783002727068036000,5.1780361328125,-0.07960560917854309,0.1647346168756485,-0.04073331505060196
1783002727078087200,5.188087158203125,-0.09866292774677277,0.16772109270095825,0.03795536980032921
1783002727088139000,5.198138916015625,-0.09488549828529358,0.1554471105337143,0.09647593647241592
1783002727098190000,5.208190185546875,-0.07806950062513351,0.138153076171875,0.1245264858007431
1783002727108242000,5.218241943359375,-0.04821386933326721,0.10100410878658295,0.10938508063554764
1783002727118293000,5.22829296875,-0.014796788804233074,0.07140015065670013,0.0471147820353508
1783002727128345000,5.238344970703125,0.017794176936149597,0.047863129526376724,-0.029286250472068787
1783002727138397000,5.24839697265625,0.033059947192668915,0.0532565638422966,-0.06939425319433212
1783002727148448000,5.258447998046875,0.0319448821246624,0.08149778842926025,-0.0665619820356369
1783002727158500000,5.2685,0.021345768123865128,0.08964892476797104,-0.056889381259679794
1783002727168551000,5.278551025390625,0.017229853197932243,0.08335720747709274,-0.06082047522068024
1783002727178603300,5.288603271484375,0.01654435507953167,0.08151216804981232,-0.07877204567193985
1783002727188654000,5.298654052734375,0.018872223794460297,0.08932029455900192,-0.1029953584074974
1783002727198706200,5.3087060546875,0.02370612882077694,0.11658599972724915,-0.12336055189371109
1783002727208757200,5.31875732421875,0.02936907485127449,0.16608405113220215,-0.14155526459217072
1783002727218809000,5.32880908203125,0.036082636564970016,0.19800229370594025,-0.14277152717113495
1783002727228860200,5.338860107421875,0.035465847700834274,0.18492670357227325,-0.11508957296609879
1783002727238912000,5.348912109375,0.03461736440658569,0.15961310267448425,-0.05891258642077446
1783002727248962800,5.358962890625,0.04049096629023552,0.1239728108048439,0.0008847020799294114
1783002727259015000,5.369014892578125,0.0603373758494854,0.09062470495700836,0.03226419538259506
1783002727269066800,5.379066650390625,0.10006614774465561,0.0850464478135109,0.033539850264787674
1783002727279117800,5.389117919921875,0.1477111577987671,0.11117339134216309,0.006293848622590303
1783002727289169700,5.399169677734375,0.19612476229667664,0.13982315361499786,-0.027695011347532272
1783002727299220700,5.409220703125,0.23128116130828857,0.18986819684505463,-0.041012149304151535
1783002727309272800,5.41927294921875,0.2737838625907898,0.2802550792694092,-0.025654230266809464
1783002727319324000,5.429323974609375,0.3211705684661865,0.36058613657951355,0.023184148594737053
1783002727329375700,5.439375732421875,0.3681260943412781,0.3839769661426544,0.089240662753582
1783002727339426800,5.4494267578125,0.41926226019859314,0.35228827595710754,0.17850716412067413
1783002727349478700,5.459478759765625,0.44816872477531433,0.2956084907054901,0.26467105746269226
1783002727359529700,5.46952978515625,0.4803610146045685,0.25478115677833557,0.3225378394126892
1783002727369581800,5.479581787109375,0.5282747745513916,0.26425135135650635,0.32942742109298706
1783002727379633000,5.4896328125,0.5647014379501343,0.2844522297382355,0.2880648076534271
1783002727389685000,5.49968505859375,0.580110490322113,0.27483662962913513,0.22158965468406677
1783002727399736800,5.50973681640625,0.5671936273574829,0.23371049761772156,0.14742673933506012
1783002727409788000,5.519787841796875,0.5196346640586853,0.18858829140663147,0.07015325874090195
1783002727419839700,5.52983984375,0.4501383900642395,0.14327114820480347,0.0067511131055653095
1783002727429890800,5.539890869140625,0.38635915517807007,0.10189440846443176,-0.04012984409928322
1783002727439943000,5.54994287109375,0.36233824491500854,0.05119021609425545,-0.06901662051677704
1783002727449993700,5.55999365234375,0.367572158575058,0.033496707677841187,-0.08233188837766647
1783002727460045800,5.5700458984375,0.38866573572158813,0.052618470042943954,-0.10501163452863693
1783002727470097000,5.580096923828125,0.3908945322036743,0.10093113780021667,-0.1447334885597229
1783002727480148700,5.590148681640625,0.378143310546875,0.22837325930595398,-0.14609861373901367
1783002727490199800,5.60019970703125,0.3505406975746155,0.42658594250679016,-0.10853313654661179
1783002727500251600,5.610251708984375,0.32739758491516113,0.6023101210594177,-0.04904104396700859
1783002727510302700,5.620302734375,0.3330644965171814,0.7090849876403809,-0.0007006776868365705
1783002727520354800,5.630354736328125,0.37413763999938965,0.7641453146934509,0.004060255363583565
1783002727530407000,5.640406982421875,0.4278024733066559,0.8081117272377014,-0.012594887986779213
1783002727540457700,5.650457763671875,0.5118811130523682,0.8719341158866882,-0.021151890978217125
1783002727550509800,5.660509765625,0.6114862561225891,0.9673357605934143,-0.00026525085559114814
1783002727560561000,5.670560791015625,0.6915430426597595,1.0451862812042236,0.02840021625161171
1783002727570613000,5.680613037109375,0.7384873628616333,1.0134472846984863,0.018689798191189766
1783002727580663800,5.690663818359375,0.7216159701347351,1.0783461332321167,0.17927974462509155
1783002727590716000,5.7007158203125,0.6998230814933777,0.8791230320930481,0.34870579838752747
1783002727600767000,5.71076708984375,0.7233555316925049,0.36912772059440613,0.20127639174461365
1783002727610818800,5.72081884765625,0.7490500211715698,0.10036361962556839,-0.030795462429523468
1783002727620870000,5.730869873046875,0.7769806981086731,0.08038538694381714,-0.09118956327438354
1783002727630921700,5.740921630859375,0.8502869009971619,0.10853792726993561,-0.06586237251758575
1783002727640972800,5.750972900390625,0.9478006362915039,0.18343986570835114,-0.02129277214407921
1783002727651025000,5.76102490234375,1.036855936050415,0.24837546050548553,0.000461259507574141
1783002727661075700,5.77107568359375,1.0614176988601685,0.22286690771579742,0.00824780948460102
1783002727671127800,5.7811279296875,1.029232382774353,0.13343529403209686,0.03150679171085358
1783002727681179600,5.7911796875,0.9951955676078796,0.02243846282362938,0.03870478644967079
