time,seconds_elapsed,z,y,x
1783003206196000300,0.072000244140625,-0.87628173828125,-0.3869476318359375,0.0304718017578125
1783003206206051300,0.08205126953125,-0.848785400390625,-0.35931396484375,0.0024871826171875
1783003206216103400,0.092103515625,-0.8211212158203125,-0.3267974853515625,-0.0034637451171875
1783003206226154200,0.102154296875,-0.800323486328125,-0.329376220703125,0.0167388916015625
1783003206236206300,0.112206298828125,-0.794921875,-0.3619232177734375,0.04010009765625
1783003206246257400,0.12225732421875,-0.774169921875,-0.414886474609375,0.0453033447265625
1783003206256309200,0.132309326171875,-0.72454833984375,-0.4542083740234375,0.050506591796875
1783003206266360300,0.1423603515625,-0.6785736083984375,-0.4588775634765625,0.0631103515625
1783003206276412200,0.152412109375,-0.6168212890625,-0.43603515625,0.0779571533203125
1783003206286463200,0.162463134765625,-0.55438232421875,-0.4127044677734375,0.095306396484375
1783003206296515300,0.172515380859375,-0.5620880126953125,-0.3907012939453125,0.136505126953125
1783003206306566100,0.182566162109375,-0.678070068359375,-0.363555908203125,0.1532440185546875
1783003206316618500,0.192618408203125,-0.717193603515625,-0.348480224609375,0.084686279296875
1783003206326669600,0.202669677734375,-0.712860107421875,-0.374725341796875,-0.0196990966796875
1783003206336721400,0.212721435546875,-0.6710205078125,-0.38616943359375,-0.1009521484375
1783003206346772500,0.2227724609375,-0.5986328125,-0.3556976318359375,-0.1288299560546875
1783003206356824300,0.23282421875,-0.54937744140625,-0.3433685302734375,-0.1457061767578125
1783003206366875400,0.24287548828125,-0.54730224609375,-0.3445587158203125,-0.1412811279296875
1783003206376927500,0.252927490234375,-0.6065216064453125,-0.3642578125,-0.10748291015625
1783003206386978300,0.262978271484375,-0.6849365234375,-0.4040069580078125,-0.05853271484375
1783003206397030400,0.273030517578125,-0.7660675048828125,-0.4993438720703125,-0.0308837890625
1783003206407081500,0.28308154296875,-0.789947509765625,-0.5784912109375,-0.0275726318359375
1783003206417133300,0.29313330078125,-0.8272552490234375,-0.4896240234375,-0.087371826171875
1783003206427184400,0.303184326171875,-0.817138671875,-0.3289794921875,-0.134796142578125
1783003206437236200,0.313236328125,-0.752899169921875,-0.26409912109375,-0.1605377197265625
1783003206447288300,0.323288330078125,-0.7176971435546875,-0.285430908203125,-0.1717987060546875
1783003206457339400,0.33333935546875,-0.8066864013671875,-0.3964996337890625,-0.183563232421875
1783003206467391200,0.34339111328125,-1.035247802734375,-0.5838623046875,-0.2069549560546875
1783003206477442300,0.3534423828125,-1.38641357421875,-0.7226715087890625,-0.1958770751953125
1783003206487494100,0.363494140625,-2.0554046630859375,-0.7252044677734375,0.0155487060546875
1783003206497545200,0.373545166015625,-3.186065673828125,-0.66943359375,0.5655975341796875
1783003206507597600,0.38359765625,-2.6613616943359375,-0.7866668701171875,0.5643768310546875
1783003206517648100,0.393648193359375,-2.0962677001953125,-0.62908935546875,0.3963165283203125
1783003206527700500,0.403700439453125,-2.09124755859375,-0.2915191650390625,0.17510986328125
1783003206537751600,0.41375146484375,-2.0232696533203125,-0.1946868896484375,-0.1190185546875
1783003206547803400,0.423803466796875,-1.784210205078125,-0.2293701171875,-0.188690185546875
1783003206557854500,0.4338544921875,-1.525543212890625,-0.3869171142578125,-0.0735015869140625
1783003206567906300,0.44390625,-1.40057373046875,-0.641510009765625,0.156341552734375
1783003206577957400,0.453957275390625,-1.378448486328125,-0.8690643310546875,0.4026031494140625
1783003206588009500,0.464009521484375,-1.273712158203125,-1.0234527587890625,0.5238037109375
1783003206598060300,0.474060302734375,-1.1244049072265625,-1.0921630859375,0.5380401611328125
1783003206608112400,0.4841123046875,-0.993743896484375,-1.0140533447265625,0.486083984375
1783003206618163500,0.49416357421875,-0.8700408935546875,-0.932037353515625,0.384857177734375
1783003206628215300,0.50421533203125,-0.7655487060546875,-0.823028564453125,0.31884765625
1783003206638266400,0.514266357421875,-0.7728118896484375,-0.6146087646484375,0.2689666748046875
1783003206648318200,0.524318115234375,-0.8300628662109375,-0.396575927734375,0.1583099365234375
1783003206658369300,0.534369384765625,-0.901092529296875,-0.223358154296875,0.050079345703125
1783003206668421400,0.54442138671875,-0.8395843505859375,-0.113037109375,-0.01702880859375
1783003206678472200,0.55447216796875,-0.7845916748046875,-0.0568084716796875,-0.0361328125
1783003206688524300,0.564524169921875,-0.7633514404296875,0.0197906494140625,-0.0808563232421875
1783003206698575400,0.574575439453125,-0.743804931640625,0.135223388671875,-0.1427764892578125
1783003206708623600,0.58462353515625,-0.7436676025390625,0.1821136474609375,-0.209808349609375
1783003206718674700,0.5946748046875,-0.69317626953125,0.133148193359375,-0.2890625
1783003206728726500,0.6047265625,-0.6586761474609375,0.0242462158203125,-0.317840576171875
1783003206738777600,0.614777587890625,-0.6552276611328125,-0.081085205078125,-0.240814208984375
1783003206748829700,0.62482958984375,-0.634368896484375,-0.169342041015625,-0.093170166015625
1783003206758880500,0.634880615234375,-0.6127166748046875,-0.213653564453125,-0.0044708251953125
1783003206768932600,0.6449326171875,-0.57391357421875,-0.2188262939453125,-0.0009002685546875
1783003206778983700,0.654983642578125,-0.5279388427734375,-0.25537109375,-0.0299072265625
1783003206789035500,0.665035400390625,-0.49322509765625,-0.262359619140625,-0.0565948486328125
1783003206799086600,0.675086669921875,-0.468109130859375,-0.2320098876953125,-0.0953216552734375
1783003206809138400,0.685138427734375,-0.485321044921875,-0.2081146240234375,-0.13037109375
1783003206819189500,0.695189453125,-0.4997100830078125,-0.1994781494140625,-0.1596832275390625
1783003206829241600,0.70524169921875,-0.496917724609375,-0.1947479248046875,-0.176361083984375
1783003206839292400,0.71529248046875,-0.480865478515625,-0.1970672607421875,-0.1773834228515625
1783003206849344500,0.725344482421875,-0.4542083740234375,-0.20831298828125,-0.174102783203125
1783003206859396600,0.735396728515625,-0.4191436767578125,-0.237548828125,-0.1791229248046875
1783003206869447400,0.745447509765625,-0.3976287841796875,-0.2415618896484375,-0.1646575927734375
1783003206879499800,0.755499755859375,-0.386016845703125,-0.2030181884765625,-0.137786865234375
1783003206889550600,0.765550537109375,-0.3970947265625,-0.1653900146484375,-0.120361328125
1783003206899602700,0.775602783203125,-0.399566650390625,-0.150238037109375,-0.1131439208984375
1783003206909653800,0.78565380859375,-0.3921966552734375,-0.1367950439453125,-0.0842437744140625
1783003206919705600,0.79570556640625,-0.385833740234375,-0.1115264892578125,-0.067047119140625
1783003206929756700,0.805756591796875,-0.39453125,-0.0936279296875,-0.07342529296875
1783003206939808500,0.81580859375,-0.407684326171875,-0.099517822265625,-0.08447265625
1783003206949859600,0.825859619140625,-0.4330902099609375,-0.1279296875,-0.1305694580078125
1783003206959911700,0.83591162109375,-0.4949493408203125,-0.147735595703125,-0.17083740234375
1783003206969962500,0.84596240234375,-0.5655364990234375,-0.172943115234375,-0.19561767578125
1783003206980014600,0.8560146484375,-0.64605712890625,-0.212738037109375,-0.2141265869140625
1783003206990065700,0.866065673828125,-0.7620849609375,-0.2623291015625,-0.244781494140625
1783003207000117500,0.876117431640625,-0.880645751953125,-0.28265380859375,-0.2606201171875
1783003207010168600,0.88616845703125,-0.9972686767578125,-0.293060302734375,-0.299713134765625
1783003207020220400,0.896220458984375,-1.14801025390625,-0.3087005615234375,-0.35943603515625
1783003207030271500,0.906271484375,-1.247711181640625,-0.28375244140625,-0.423431396484375
1783003207040323600,0.916323486328125,-1.342041015625,-0.2370758056640625,-0.4673309326171875
1783003207050374400,0.92637451171875,-1.4435272216796875,-0.239227294921875,-0.48565673828125
1783003207060426500,0.936426513671875,-1.5668792724609375,-0.3054351806640625,-0.4920806884765625
1783003207070477600,0.9464775390625,-1.6957855224609375,-0.4124755859375,-0.439727783203125
1783003207080529700,0.95652978515625,-1.8090057373046875,-0.5568084716796875,-0.307708740234375
1783003207090580700,0.966580810546875,-1.9414215087890625,-0.7132720947265625,-0.1607208251953125
1783003207100632600,0.976632568359375,-2.0702972412109375,-0.8303375244140625,-0.0452117919921875
1783003207110683600,0.98668359375,-2.0933685302734375,-0.8213348388671875,0.014373779296875
1783003207120735700,0.99673583984375,-1.9930877685546875,-0.6971435546875,0.041259765625
1783003207130786600,1.00678662109375,-1.87677001953125,-0.5771026611328125,0.136199951171875
1783003207140838700,1.016838623046875,-1.76165771484375,-0.599761962890625,0.2389678955078125
1783003207150889700,1.0268896484375,-1.694976806640625,-0.7014617919921875,0.3149261474609375
1783003207160941600,1.036941650390625,-1.7133941650390625,-0.7878875732421875,0.37548828125
1783003207170992600,1.04699267578125,-1.655975341796875,-0.8155975341796875,0.3690338134765625
1783003207181044500,1.05704443359375,-1.5562286376953125,-0.7316436767578125,0.2304534912109375
1783003207191095600,1.067095458984375,-1.431060791015625,-0.6099853515625,0.036041259765625
1783003207201147600,1.077147705078125,-1.3100433349609375,-0.50811767578125,-0.1486663818359375
1783003207211198500,1.087198486328125,-1.173065185546875,-0.423797607421875,-0.3217620849609375
1783003207221250600,1.09725048828125,-0.9723358154296875,-0.349578857421875,-0.4484100341796875
1783003207231301600,1.107301513671875,-0.8463287353515625,-0.2908477783203125,-0.439117431640625
1783003207241353500,1.117353515625,-0.780364990234375,-0.31146240234375,-0.3092193603515625
1783003207251404500,1.127404541015625,-0.695404052734375,-0.33001708984375,-0.1747283935546875
1783003207261456400,1.137456298828125,-0.6145477294921875,-0.3128814697265625,-0.0662384033203125
1783003207271507500,1.147507568359375,-0.5589599609375,-0.2953033447265625,0.014862060546875
1783003207281559800,1.157559814453125,-0.5298004150390625,-0.2771453857421875,0.0688323974609375
1783003207291610400,1.1676103515625,-0.489227294921875,-0.2763214111328125,0.0965118408203125
1783003207301662700,1.177662841796875,-0.4185638427734375,-0.2824249267578125,0.088836669921875
1783003207311714600,1.187714599609375,-0.3576507568359375,-0.2617340087890625,0.058837890625
1783003207321765600,1.197765625,-0.30712890625,-0.2481536865234375,0.0112152099609375
1783003207331817700,1.207817626953125,-0.264434814453125,-0.249542236328125,-0.00421142578125
1783003207341868500,1.21786865234375,-0.235076904296875,-0.2474822998046875,-0.00750732421875
1783003207351920600,1.227920654296875,-0.2005767822265625,-0.2257843017578125,0.0033416748046875
1783003207361971700,1.2379716796875,-0.1788787841796875,-0.219482421875,-0.010009765625
1783003207372023600,1.2480234375,-0.1663665771484375,-0.221710205078125,-0.04241943359375
1783003207382074600,1.25807470703125,-0.1510009765625,-0.219512939453125,-0.0760345458984375
1783003207392126500,1.26812646484375,-0.131256103515625,-0.2059326171875,-0.079925537109375
1783003207402177500,1.278177490234375,-0.136322021484375,-0.1974334716796875,-0.093841552734375
1783003207412229600,1.288229736328125,-0.14837646484375,-0.196044921875,-0.128662109375
1783003207422280400,1.298280517578125,-0.1277618408203125,-0.1878204345703125,-0.16357421875
1783003207432332500,1.30833251953125,-0.0989990234375,-0.1662445068359375,-0.16644287109375
1783003207442383600,1.318383544921875,-0.1072845458984375,-0.148773193359375,-0.164337158203125
1783003207452435500,1.328435546875,-0.125640869140625,-0.1558380126953125,-0.1354217529296875
1783003207462486500,1.338486572265625,-0.167388916015625,-0.1910858154296875,-0.0743255615234375
1783003207472538400,1.348538330078125,-0.2241973876953125,-0.198974609375,-0.0329132080078125
1783003207482589400,1.35858935546875,-0.309967041015625,-0.20013427734375,-0.012542724609375
1783003207492641800,1.368641845703125,-0.3584442138671875,-0.245574951171875,-0.0421905517578125
1783003207502692600,1.378692626953125,-0.3731842041015625,-0.284576416015625,-0.11181640625
1783003207512744700,1.38874462890625,-0.4991912841796875,-0.26678466796875,-0.207000732421875
1783003207522795800,1.398795654296875,-0.636810302734375,-0.2693939208984375,-0.28485107421875
1783003207532847600,1.40884765625,-0.7991180419921875,-0.3347625732421875,-0.377471923828125
1783003207542898700,1.418898681640625,-0.9833221435546875,-0.38079833984375,-0.4912109375
1783003207552950500,1.428950439453125,-1.1298065185546875,-0.361358642578125,-0.5625762939453125
1783003207563001600,1.439001708984375,-1.313323974609375,-0.307037353515625,-0.5550384521484375
1783003207573053700,1.4490537109375,-1.49267578125,-0.278594970703125,-0.4821929931640625
1783003207583104500,1.4591044921875,-1.601409912109375,-0.3011016845703125,-0.3856353759765625
1783003207593156600,1.469156494140625,-1.81884765625,-0.3549652099609375,-0.25042724609375
1783003207603207700,1.479207763671875,-1.985809326171875,-0.45001220703125,-0.078155517578125
1783003207613259500,1.489259521484375,-2.114471435546875,-0.625762939453125,0.0787506103515625
1783003207623310600,1.499310546875,-2.3542327880859375,-0.8290863037109375,0.1259307861328125
1783003207633362400,1.509362548828125,-2.4759368896484375,-0.8799591064453125,0.0673065185546875
1783003207643413500,1.51941357421875,-2.477508544921875,-0.76348876953125,-0.0317230224609375
1783003207653465600,1.529465576171875,-2.3848724365234375,-0.6831207275390625,-0.179046630859375
1783003207663516400,1.539516357421875,-2.2737579345703125,-0.6830291748046875,-0.2139434814453125
1783003207673568500,1.549568603515625,-2.2049713134765625,-0.79107666015625,-0.0973968505859375
1783003207683619600,1.55961962890625,-2.093658447265625,-0.887939453125,0.0533294677734375
1783003207693671700,1.569671630859375,-1.942230224609375,-0.8697509765625,0.150604248046875
1783003207703722500,1.579722412109375,-1.8222198486328125,-0.8260040283203125,0.144500732421875
1783003207713774300,1.5897744140625,-1.6429901123046875,-0.7636566162109375,0.0775299072265625
1783003207723826400,1.599826416015625,-1.404052734375,-0.6536407470703125,-0.0433349609375
1783003207733877500,1.60987744140625,-1.1395263671875,-0.563507080078125,-0.15576171875
1783003207743929300,1.619929443359375,-0.9531097412109375,-0.5231781005859375,-0.22357177734375
1783003207753980400,1.62998046875,-0.8276519775390625,-0.498779296875,-0.270233154296875
1783003207764032300,1.6400322265625,-0.675445556640625,-0.4683074951171875,-0.2994384765625
1783003207774083300,1.650083251953125,-0.6047210693359375,-0.4248046875,-0.312835693359375
1783003207784135700,1.6601357421875,-0.6262054443359375,-0.3675079345703125,-0.2669219970703125
1783003207794186200,1.670186279296875,-0.649993896484375,-0.29229736328125,-0.1822357177734375
1783003207804238600,1.680238525390625,-0.647430419921875,-0.23187255859375,-0.15313720703125
1783003207814289700,1.69028955078125,-0.6366424560546875,-0.194427490234375,-0.1522064208984375
1783003207824341500,1.700341552734375,-0.5907745361328125,-0.1549224853515625,-0.1284332275390625
1783003207834392600,1.710392578125,-0.5235443115234375,-0.1355438232421875,-0.1152496337890625
1783003207844444400,1.7204443359375,-0.4503631591796875,-0.142242431640625,-0.12469482421875
1783003207854495500,1.73049560546875,-0.383819580078125,-0.1642608642578125,-0.138092041015625
1783003207864547600,1.740547607421875,-0.3393096923828125,-0.1710357666015625,-0.15386962890625
1783003207874598400,1.750598388671875,-0.2826690673828125,-0.1815643310546875,-0.1381988525390625
1783003207884650500,1.760650390625,-0.236480712890625,-0.197662353515625,-0.112701416015625
1783003207894701600,1.77070166015625,-0.2345428466796875,-0.191314697265625,-0.1177215576171875
1783003207904753400,1.78075341796875,-0.2372589111328125,-0.1880950927734375,-0.1464996337890625
1783003207914804500,1.790804443359375,-0.2328643798828125,-0.1850738525390625,-0.1603851318359375
1783003207924856300,1.800856201171875,-0.2450408935546875,-0.1733856201171875,-0.173431396484375
1783003207934907400,1.810907470703125,-0.2576904296875,-0.141998291015625,-0.1924591064453125
1783003207944959500,1.82095947265625,-0.2562713623046875,-0.1078338623046875,-0.1984405517578125
1783003207955010300,1.83101025390625,-0.273284912109375,-0.0820159912109375,-0.1585845947265625
1783003207965062400,1.8410625,-0.291259765625,-0.08612060546875,-0.1219482421875
1783003207975113500,1.851113525390625,-0.306884765625,-0.11383056640625,-0.0900115966796875
1783003207985165300,1.861165283203125,-0.3378753662109375,-0.1368560791015625,-0.044677734375
1783003207995216400,1.87121630859375,-0.3803863525390625,-0.150054931640625,-0.00054931640625
1783003208005268500,1.8812685546875,-0.4241790771484375,-0.14453125,0.0117034912109375
1783003208015319300,1.8913193359375,-0.4711151123046875,-0.1315460205078125,-0.031097412109375
1783003208025371600,1.90137158203125,-0.503692626953125,-0.132720947265625,-0.11663818359375
1783003208035422500,1.91142236328125,-0.5750274658203125,-0.1190643310546875,-0.2027587890625
1783003208045474600,1.921474609375,-0.6654205322265625,-0.114288330078125,-0.2261810302734375
1783003208055525600,1.931525634765625,-0.7643890380859375,-0.166717529296875,-0.216522216796875
1783003208065577500,1.941577392578125,-0.8971405029296875,-0.2360076904296875,-0.1931304931640625
1783003208075628500,1.951628662109375,-1.0227508544921875,-0.274200439453125,-0.186920166015625
1783003208085680400,1.961680419921875,-1.075653076171875,-0.2993011474609375,-0.1629791259765625
1783003208095731500,1.9717314453125,-1.15374755859375,-0.29608154296875,-0.14068603515625
1783003208105783600,1.981783447265625,-1.2373809814453125,-0.27423095703125,-0.1351165771484375
1783003208115835400,1.99183544921875,-1.3226776123046875,-0.2641448974609375,-0.141632080078125
1783003208125886500,2.001886474609375,-1.4583282470703125,-0.308319091796875,-0.1346893310546875
1783003208135938300,2.011938232421875,-1.6798553466796875,-0.4460296630859375,-0.0874176025390625
1783003208145989400,2.0219892578125,-1.9373321533203125,-0.7139434814453125,0.0019683837890625
1783003208156041500,2.03204150390625,-2.1756134033203125,-1.003662109375,0.12432861328125
1783003208166092300,2.04209228515625,-2.26312255859375,-1.1209869384765625,0.139984130859375
1783003208176144400,2.052144287109375,-2.238037109375,-0.9956817626953125,0.0251922607421875
1783003208186195500,2.062195556640625,-2.1526336669921875,-0.84783935546875,-0.101287841796875
1783003208196247600,2.07224755859375,-2.0741729736328125,-0.8319244384765625,-0.1605682373046875
1783003208206298400,2.08229833984375,-2.0310211181640625,-0.91021728515625,-0.1594696044921875
1783003208216350500,2.0923505859375,-1.9864959716796875,-1.014190673828125,-0.1204681396484375
1783003208226401500,2.102401611328125,-1.9654083251953125,-1.086822509765625,-0.0411834716796875
1783003208236453600,2.11245361328125,-1.8786773681640625,-1.084014892578125,0.01934814453125
1783003208246504400,2.12250439453125,-1.6926727294921875,-1.010223388671875,0.01873779296875
1783003208256556500,2.132556640625,-1.479583740234375,-0.8979339599609375,-0.0214385986328125
1783003208266607600,2.142607666015625,-1.3146209716796875,-0.80828857421875,-0.0590057373046875
1783003208276659500,2.152659423828125,-1.187225341796875,-0.75921630859375,-0.0726776123046875
1783003208286710500,2.16271044921875,-1.0660247802734375,-0.6858978271484375,-0.09161376953125
1783003208296762400,2.172762451171875,-0.9350433349609375,-0.5648651123046875,-0.1322479248046875
1783003208306813400,2.1828134765625,-0.79156494140625,-0.4534759521484375,-0.181976318359375
1783003208316865500,2.192865478515625,-0.6660003662109375,-0.3736724853515625,-0.2354888916015625
1783003208326916400,2.202916259765625,-0.5690765380859375,-0.30303955078125,-0.252227783203125
1783003208336968400,2.212968505859375,-0.509002685546875,-0.2456817626953125,-0.2437591552734375
1783003208347019500,2.22301953125,-0.4529266357421875,-0.2124481201171875,-0.2222137451171875
1783003208357071400,2.2330712890625,-0.4012908935546875,-0.201202392578125,-0.20257568359375
1783003208367122400,2.243122314453125,-0.3479156494140625,-0.1988067626953125,-0.18731689453125
1783003208377174300,2.25317431640625,-0.308319091796875,-0.192138671875,-0.1598358154296875
1783003208387225300,2.263225341796875,-0.289154052734375,-0.1756591796875,-0.13189697265625
1783003208397277400,2.27327734375,-0.2593994140625,-0.1671295166015625,-0.11505126953125
1783003208407328300,2.283328369140625,-0.227386474609375,-0.168731689453125,-0.1026458740234375
1783003208417380600,2.293380615234375,-0.2082366943359375,-0.168914794921875,-0.096466064453125
1783003208427431400,2.303431396484375,-0.1859588623046875,-0.165985107421875,-0.1115875244140625
1783003208437483500,2.3134833984375,-0.1707763671875,-0.1394195556640625,-0.1219329833984375
1783003208447534600,2.32353466796875,-0.174560546875,-0.1158447265625,-0.1013336181640625
1783003208457586400,2.33358642578125,-0.1721038818359375,-0.1068115234375,-0.0791778564453125
1783003208467637500,2.343637451171875,-0.160797119140625,-0.113983154296875,-0.0775604248046875
1783003208477689600,2.353689697265625,-0.170166015625,-0.1358642578125,-0.0652618408203125
1783003208487740400,2.363740478515625,-0.19122314453125,-0.1546478271484375,-0.0413665771484375
1783003208497792500,2.37379248046875,-0.202484130859375,-0.155487060546875,-0.037261962890625
1783003208507844400,2.38384423828125,-0.2113494873046875,-0.1591339111328125,-0.0420074462890625
1783003208517895400,2.3938955078125,-0.2417755126953125,-0.158966064453125,-0.0501708984375
1783003208527947500,2.403947509765625,-0.278656005859375,-0.1585540771484375,-0.06085205078125
1783003208537998300,2.413998291015625,-0.30303955078125,-0.1529998779296875,-0.0778350830078125
1783003208548050400,2.424050537109375,-0.3274078369140625,-0.12518310546875,-0.0711822509765625
1783003208558101500,2.4341015625,-0.376251220703125,-0.104949951171875,-0.0560302734375
1783003208568153300,2.4441533203125,-0.4204254150390625,-0.10870361328125,-0.0389556884765625
1783003208578204400,2.454204345703125,-0.467132568359375,-0.1243133544921875,-0.0439300537109375
1783003208588256300,2.46425634765625,-0.511688232421875,-0.1327362060546875,-0.0583343505859375
1783003208598307300,2.474307373046875,-0.5893402099609375,-0.1389923095703125,-0.085418701171875
1783003208608359700,2.484359619140625,-0.7303924560546875,-0.1578521728515625,-0.108001708984375
1783003208618410200,2.49441015625,-0.8365020751953125,-0.1953582763671875,-0.15667724609375
1783003208628462600,2.504462646484375,-0.9467315673828125,-0.2366180419921875,-0.19219970703125
1783003208638513700,2.514513671875,-1.1229705810546875,-0.2386932373046875,-0.1800689697265625
1783003208648565500,2.5245654296875,-1.3087005615234375,-0.2287750244140625,-0.1174468994140625
1783003208658616600,2.534616455078125,-1.4720611572265625,-0.2469482421875,-0.0641326904296875
1783003208668668400,2.54466845703125,-1.6609039306640625,-0.2948455810546875,-0.0290679931640625
1783003208678719500,2.554719482421875,-1.85235595703125,-0.3868865966796875,-0.0101165771484375
1783003208688771600,2.564771484375,-2.02142333984375,-0.448699951171875,-0.0222015380859375
1783003208698822400,2.574822509765625,-2.2290496826171875,-0.5135498046875,0.0213165283203125
1783003208708875000,2.584875,-2.4806365966796875,-0.65972900390625,0.062469482421875
1783003208718926000,2.594926025390625,-2.599761962890625,-0.698089599609375,-0.02490234375
1783003208728978000,2.60497802734375,-2.59442138671875,-0.552825927734375,-0.20361328125
1783003208739029000,2.615029052734375,-2.4981689453125,-0.405975341796875,-0.3628997802734375
1783003208749080800,2.625080810546875,-2.3876495361328125,-0.397247314453125,-0.449676513671875
1783003208759132000,2.6351318359375,-2.344879150390625,-0.531951904296875,-0.418121337890625
1783003208769184000,2.64518408203125,-2.2528076171875,-0.6522064208984375,-0.34967041015625
1783003208779234800,2.65523486328125,-2.0443572998046875,-0.6504058837890625,-0.3099517822265625
1783003208789287200,2.665287109375,-1.835845947265625,-0.6280670166015625,-0.2772216796875
1783003208799338000,2.675337890625,-1.648590087890625,-0.6301422119140625,-0.2479400634765625
1783003208809390000,2.68539013671875,-1.4664459228515625,-0.6085662841796875,-0.2550811767578125
1783003208819441200,2.695441162109375,-1.30340576171875,-0.5407867431640625,-0.302490234375
1783003208829493000,2.705492919921875,-1.1260528564453125,-0.4591522216796875,-0.3478851318359375
1783003208839544000,2.7155439453125,-0.9476318359375,-0.384521484375,-0.3906402587890625
1783003208849596000,2.725595947265625,-0.799530029296875,-0.33233642578125,-0.4269256591796875
1783003208859648000,2.73564794921875,-0.677825927734375,-0.2928009033203125,-0.4259796142578125
1783003208869699000,2.745698974609375,-0.588775634765625,-0.2850189208984375,-0.3843231201171875
1783003208879751000,2.7557509765625,-0.5208587646484375,-0.3008270263671875,-0.3133087158203125
1783003208889802000,2.765802001953125,-0.473052978515625,-0.2946319580078125,-0.2484588623046875
1783003208899853800,2.775853759765625,-0.4369354248046875,-0.2754364013671875,-0.188140869140625
1783003208909905000,2.78590478515625,-0.415008544921875,-0.254119873046875,-0.152130126953125
1783003208919957000,2.79595703125,-0.39031982421875,-0.2368316650390625,-0.111785888671875
1783003208930007800,2.8060078125,-0.3823089599609375,-0.2127685546875,-0.087127685546875
1783003208940060000,2.816059814453125,-0.3640594482421875,-0.1789093017578125,-0.0985107421875
1783003208950111000,2.826111083984375,-0.3176116943359375,-0.1410675048828125,-0.1283721923828125
1783003208960163000,2.8361630859375,-0.2959136962890625,-0.0948944091796875,-0.1522064208984375
1783003208970214000,2.8462138671875,-0.281646728515625,-0.078521728515625,-0.1478118896484375
1783003208980266000,2.856265869140625,-0.25146484375,-0.0925750732421875,-0.1454620361328125
1783003208990317000,2.866317138671875,-0.23095703125,-0.102142333984375,-0.134033203125
1783003209000369200,2.876369140625,-0.2305908203125,-0.10247802734375,-0.1252593994140625
1783003209010420000,2.886419921875,-0.209869384765625,-0.113250732421875,-0.11187744140625
1783003209020472000,2.89647216796875,-0.17987060546875,-0.1373443603515625,-0.1035919189453125
1783003209030523100,2.906523193359375,-0.1686248779296875,-0.1508941650390625,-0.0906219482421875
1783003209040575000,2.916574951171875,-0.164093017578125,-0.1570281982421875,-0.07293701171875
1783003209050626000,2.9266259765625,-0.1685333251953125,-0.160858154296875,-0.0643157958984375
1783003209060678000,2.936677978515625,-0.172882080078125,-0.16656494140625,-0.0622406005859375
1783003209070729000,2.94672900390625,-0.2032623291015625,-0.1407470703125,-0.0651397705078125
1783003209080781000,2.956781005859375,-0.2117156982421875,-0.113037109375,-0.0583038330078125
1783003209090832000,2.966831787109375,-0.2174072265625,-0.1205291748046875,-0.0419769287109375
1783003209100884000,2.976884033203125,-0.2430572509765625,-0.1392364501953125,-0.03118896484375
1783003209110935000,2.98693505859375,-0.2822418212890625,-0.146270751953125,-0.04595947265625
1783003209120987000,2.99698681640625,-0.35888671875,-0.1658172607421875,-0.0472564697265625
1783003209131038000,3.007037841796875,-0.44171142578125,-0.2360687255859375,-0.0727386474609375
1783003209141089800,3.01708984375,-0.544830322265625,-0.2523193359375,-0.1197052001953125
1783003209151140900,3.027140869140625,-0.6794281005859375,-0.237579345703125,-0.1720733642578125
1783003209161193000,3.03719287109375,-0.811309814453125,-0.2410430908203125,-0.2424163818359375
1783003209171244000,3.047244140625,-0.9943084716796875,-0.24468994140625,-0.26849365234375
1783003209181296000,3.057296142578125,-1.1259613037109375,-0.234466552734375,-0.2877655029296875
1783003209191347200,3.06734716796875,-1.2004547119140625,-0.2271881103515625,-0.2700042724609375
1783003209201399000,3.07739892578125,-1.324371337890625,-0.284576416015625,-0.2131500244140625
1783003209211451100,3.087451171875,-1.5521697998046875,-0.4248046875,-0.1774444580078125
1783003209221502000,3.097501953125,-1.844085693359375,-0.6099395751953125,-0.13525390625
1783003209231554000,3.107553955078125,-2.1553802490234375,-0.811431884765625,-0.075103759765625
1783003209241605000,3.117605224609375,-2.40264892578125,-1.1072235107421875,-0.04608154296875
1783003209251657000,3.127656982421875,-2.5240325927734375,-1.3133087158203125,-0.1690826416015625
1783003209261708000,3.1377080078125,-2.4736328125,-1.2031707763671875,-0.3787078857421875
1783003209271760000,3.147759765625,-2.2773284912109375,-1.0372161865234375,-0.511474609375
1783003209281811000,3.15781103515625,-2.003631591796875,-1.04620361328125,-0.5342864990234375
1783003209291863000,3.167863037109375,-1.788787841796875,-1.147552490234375,-0.42144775390625
1783003209301913900,3.177913818359375,-1.6990203857421875,-1.29638671875,-0.236358642578125
1783003209311966000,3.187966064453125,-1.6058807373046875,-1.44842529296875,-0.1187744140625
1783003209322017000,3.19801708984375,-1.396759033203125,-1.4854888916015625,-0.11273193359375
1783003209332068900,3.20806884765625,-1.1628570556640625,-1.3619384765625,-0.2067718505859375
1783003209342120000,3.218119873046875,-1.00238037109375,-1.216583251953125,-0.33599853515625
1783003209352171800,3.228171875,-0.89501953125,-1.095916748046875,-0.437347412109375
1783003209362222800,3.238222900390625,-0.8115692138671875,-0.9281463623046875,-0.5239105224609375
1783003209372275200,3.248275146484375,-0.7517852783203125,-0.7405242919921875,-0.609130859375
1783003209382325800,3.25832568359375,-0.70849609375,-0.5827178955078125,-0.59539794921875
1783003209392378000,3.268378173828125,-0.6852569580078125,-0.5118408203125,-0.503326416015625
1783003209402429200,3.27842919921875,-0.650848388671875,-0.445404052734375,-0.4236602783203125
1783003209412481000,3.28848095703125,-0.6228485107421875,-0.3518524169921875,-0.382080078125
1783003209422532000,3.298531982421875,-0.5855255126953125,-0.292755126953125,-0.3647613525390625
1783003209432584000,3.308583984375,-0.5389251708984375,-0.27587890625,-0.332122802734375
1783003209442635000,3.318635009765625,-0.4844512939453125,-0.2601776123046875,-0.3111419677734375
1783003209452687000,3.32868701171875,-0.4205169677734375,-0.2415771484375,-0.2848052978515625
1783003209462738000,3.338738037109375,-0.36077880859375,-0.2402191162109375,-0.274383544921875
1783003209472790000,3.3487900390625,-0.313079833984375,-0.234466552734375,-0.2629547119140625
1783003209482841000,3.358841064453125,-0.252349853515625,-0.2274322509765625,-0.2680511474609375
1783003209492893000,3.368892822265625,-0.2265777587890625,-0.2147979736328125,-0.2845916748046875
1783003209502944000,3.378944091796875,-0.21759033203125,-0.225189208984375,-0.243865966796875
1783003209512995800,3.388995849609375,-0.1981048583984375,-0.2431793212890625,-0.208770751953125
1783003209523047000,3.399046875,-0.1954498291015625,-0.244293212890625,-0.1959381103515625
1783003209533099000,3.40909912109375,-0.1880035400390625,-0.216827392578125,-0.1824188232421875
1783003209543149800,3.41914990234375,-0.1889190673828125,-0.20172119140625,-0.1751556396484375
1783003209553202000,3.429201904296875,-0.2056884765625,-0.1837921142578125,-0.1529541015625
1783003209563253000,3.4392529296875,-0.1949005126953125,-0.1729736328125,-0.1396942138671875
1783003209573304800,3.449304931640625,-0.17694091796875,-0.18597412109375,-0.1381378173828125
1783003209583357200,3.459357177734375,-0.1892547607421875,-0.18792724609375,-0.1316375732421875
1783003209593408000,3.469407958984375,-0.220123291015625,-0.1728057861328125,-0.1246795654296875
1783003209603460000,3.479460205078125,-0.2219390869140625,-0.171966552734375,-0.118927001953125
1783003209613511200,3.48951123046875,-0.2356109619140625,-0.187469482421875,-0.1366424560546875
1783003209623563000,3.49956298828125,-0.266754150390625,-0.204681396484375,-0.14520263671875
1783003209633614000,3.509614013671875,-0.298919677734375,-0.2078399658203125,-0.136871337890625
1783003209643666000,3.519666015625,-0.359649658203125,-0.1898651123046875,-0.1407318115234375
1783003209653717000,3.529717041015625,-0.41754150390625,-0.1855316162109375,-0.1492767333984375
1783003209663769000,3.53976904296875,-0.4550628662109375,-0.19903564453125,-0.1663665771484375
1783003209673820000,3.54981982421875,-0.482757568359375,-0.226715087890625,-0.18670654296875
1783003209683872000,3.5598720703125,-0.5967864990234375,-0.219879150390625,-0.204864501953125
1783003209693923000,3.569923095703125,-0.7026214599609375,-0.2351226806640625,-0.2484588623046875
1783003209703975000,3.579974853515625,-0.8211669921875,-0.28509521484375,-0.30120849609375
1783003209714025500,3.590025390625,-0.9158172607421875,-0.3231658935546875,-0.35052490234375
1783003209724077600,3.60007763671875,-1.0606536865234375,-0.3659210205078125,-0.4102020263671875
1783003209734128400,3.61012841796875,-1.369476318359375,-0.36029052734375,-0.452911376953125
1783003209744180500,3.620180419921875,-1.634368896484375,-0.326202392578125,-0.5050201416015625
1783003209754231600,3.6302314453125,-1.8059234619140625,-0.433685302734375,-0.4931640625
1783003209764283400,3.640283447265625,-2.0007476806640625,-0.505950927734375,-0.233062744140625
1783003209774334500,3.65033447265625,-2.0509033203125,-0.5954437255859375,0.0525054931640625
1783003209784386300,3.66038623046875,-2.0420379638671875,-0.7516326904296875,0.21392822265625
1783003209794437400,3.670437255859375,-2.0790252685546875,-0.7655029296875,0.305633544921875
1783003209804489700,3.68048974609375,-2.056243896484375,-0.65972900390625,0.2871246337890625
1783003209814540300,3.690540283203125,-2.1111297607421875,-0.4830322265625,0.1701812744140625
1783003209824592600,3.700592529296875,-2.003326416015625,-0.3558197021484375,0.077880859375
1783003209834643700,3.710643798828125,-1.732025146484375,-0.311798095703125,-0.0361175537109375
1783003209844695600,3.720695556640625,-1.5747833251953125,-0.4211883544921875,-0.0182037353515625
1783003209854746600,3.73074658203125,-1.5309600830078125,-0.7132568359375,0.2471923828125
1783003209864798500,3.740798583984375,-1.596771240234375,-0.9332275390625,0.618072509765625
1783003209874849500,3.750849609375,-1.50457763671875,-1.230316162109375,0.713470458984375
1783003209884901600,3.760901611328125,-1.2393798828125,-1.2621612548828125,0.5780029296875
1783003209894952400,3.770952392578125,-1.0825653076171875,-1.1492919921875,0.4973297119140625
1783003209905004500,3.781004638671875,-1.0313262939453125,-1.09478759765625,0.4434661865234375
1783003209915055600,3.7910556640625,-1.04388427734375,-0.9636077880859375,0.3126983642578125
1783003209925107500,3.801107421875,-1.0177154541015625,-0.8030548095703125,0.199066162109375
1783003209935158500,3.811158447265625,-0.9193572998046875,-0.656951904296875,0.0546112060546875
1783003209945210400,3.82121044921875,-0.8183135986328125,-0.50628662109375,-0.0386199951171875
1783003209955262500,3.831262451171875,-0.7129364013671875,-0.370513916015625,-0.0667572021484375
1783003209965313500,3.8413134765625,-0.6201934814453125,-0.2540740966796875,-0.060943603515625
1783003209975365400,3.851365478515625,-0.535614013671875,-0.1683349609375,-0.0397186279296875
1783003209985416400,3.86141650390625,-0.4958343505859375,-0.1036834716796875,-0.0115966796875
1783003209995468500,3.871468505859375,-0.4553680419921875,-0.0660400390625,0.0027923583984375
1783003210005519400,3.881519287109375,-0.4135894775390625,-0.0680084228515625,0.0016632080078125
1783003210015571700,3.89157177734375,-0.355438232421875,-0.09271240234375,-0.0657958984375
1783003210025622500,3.90162255859375,-0.341217041015625,-0.0906829833984375,-0.1265716552734375
1783003210035674600,3.911674560546875,-0.381805419921875,-0.055328369140625,-0.119293212890625
1783003210045725700,3.9217255859375,-0.404541015625,-0.0410919189453125,-0.1140289306640625
1783003210055777500,3.931777587890625,-0.399505615234375,-0.0545806884765625,-0.13671875
1783003210065828600,3.94182861328125,-0.396392822265625,-0.0626220703125,-0.1678924560546875
1783003210075880400,3.95188037109375,-0.4063262939453125,-0.01776123046875,-0.1782989501953125
1783003210085931500,3.961931640625,-0.411285400390625,0.0111083984375,-0.1332550048828125
1783003210095983600,3.971983642578125,-0.37957763671875,-0.0287933349609375,-0.0639495849609375
1783003210106034400,3.982034423828125,-0.36151123046875,-0.077239990234375,0.0130767822265625
1783003210116086500,3.99208642578125,-0.345306396484375,-0.10028076171875,0.0766754150390625
1783003210126137600,4.0021376953125,-0.3101959228515625,-0.10015869140625,0.078704833984375
1783003210136189400,4.012189453125,-0.2628936767578125,-0.1190032958984375,0.08087158203125
1783003210146240500,4.022240478515625,-0.2341156005859375,-0.1521759033203125,0.0558013916015625
1783003210156292400,4.032292236328125,-0.21990966796875,-0.1638336181640625,0.0420074462890625
1783003210166343400,4.042343505859375,-0.1441192626953125,-0.1673431396484375,-0.006256103515625
1783003210176395500,4.0523955078125,-0.0977630615234375,-0.120452880859375,-0.0489501953125
1783003210186446300,4.0624462890625,-0.1651763916015625,-0.065887451171875,-0.043426513671875
1783003210196498400,4.07249853515625,-0.23974609375,-0.1210784912109375,-0.0662384033203125
1783003210206549500,4.082549560546875,-0.2352447509765625,-0.18756103515625,-0.10540771484375
1783003210216601600,4.0926015625,-0.188934326171875,-0.1959686279296875,-0.0947723388671875
1783003210226652700,4.102652587890625,-0.2537841796875,-0.152923583984375,-0.0732574462890625
1783003210236704500,4.11270458984375,-0.305389404296875,-0.1397857666015625,-0.0709381103515625
1783003210246755600,4.122755615234375,-0.3470306396484375,-0.1618499755859375,-0.06689453125
1783003210256807700,4.1328076171875,-0.38824462890625,-0.1770782470703125,-0.088287353515625
1783003210266859500,4.142859619140625,-0.4586334228515625,-0.1575927734375,-0.14678955078125
1783003210276910600,4.15291064453125,-0.6136016845703125,-0.138458251953125,-0.187957763671875
1783003210286962400,4.16296240234375,-0.642303466796875,-0.15509033203125,-0.27001953125
1783003210297013500,4.173013427734375,-0.775177001953125,-0.123016357421875,-0.3466796875
1783003210307065600,4.183065673828125,-0.9950408935546875,-0.1367034912109375,-0.3885345458984375
1783003210317116400,4.193116455078125,-1.1743927001953125,-0.24737548828125,-0.37945556640625
1783003210327168500,4.20316845703125,-1.319366455078125,-0.4141845703125,-0.35772705078125
1783003210337219600,4.213219482421875,-1.550750732421875,-0.584228515625,-0.34100341796875
1783003210347271400,4.223271484375,-1.8929443359375,-0.696258544921875,-0.321319580078125
1783003210357322500,4.233322509765625,-2.252777099609375,-0.7136993408203125,-0.3359222412109375
1783003210367374300,4.243374267578125,-2.5833892822265625,-0.6502227783203125,-0.4230804443359375
1783003210377425400,4.25342529296875,-2.787017822265625,-0.5385894775390625,-0.4825439453125
1783003210387477500,4.2634775390625,-2.84271240234375,-0.4276275634765625,-0.49566650390625
1783003210397528300,4.2735283203125,-2.8162841796875,-0.376220703125,-0.49822998046875
1783003210407580700,4.28358056640625,-2.8112640380859375,-0.4183502197265625,-0.4850006103515625
1783003210417631500,4.293631591796875,-2.80731201171875,-0.5577239990234375,-0.402069091796875
1783003210427683600,4.30368359375,-2.7358245849609375,-0.7537384033203125,-0.294036865234375
1783003210437734700,4.313734619140625,-2.5659027099609375,-0.8456268310546875,-0.232269287109375
1783003210447786500,4.323786376953125,-2.396484375,-0.9030914306640625,-0.22894287109375
1783003210457837600,4.333837646484375,-2.222991943359375,-1.023162841796875,-0.2456817626953125
1783003210467889700,4.3438896484375,-2.0353851318359375,-1.033294677734375,-0.280670166015625
1783003210477940500,4.3539404296875,-1.8425140380859375,-0.898834228515625,-0.3589935302734375
1783003210487992600,4.36399267578125,-1.5932769775390625,-0.7393951416015625,-0.464996337890625
1783003210498043600,4.374043701171875,-1.366607666015625,-0.5987548828125,-0.5017242431640625
1783003210508095500,4.384095458984375,-1.15203857421875,-0.4810943603515625,-0.4542236328125
1783003210518146600,4.394146484375,-0.9591522216796875,-0.3407440185546875,-0.3817901611328125
1783003210528198400,4.404198486328125,-0.817047119140625,-0.216064453125,-0.323760986328125
1783003210538249500,4.41424951171875,-0.69573974609375,-0.1717987060546875,-0.2913360595703125
1783003210548301600,4.424301513671875,-0.6031036376953125,-0.179443359375,-0.2874298095703125
1783003210558352400,4.434352294921875,-0.5117034912109375,-0.2013702392578125,-0.2926177978515625
1783003210568404500,4.444404541015625,-0.416412353515625,-0.1961212158203125,-0.3255615234375
1783003210578455600,4.45445556640625,-0.338623046875,-0.15869140625,-0.3808746337890625
1783003210588507400,4.46450732421875,-0.2779998779296875,-0.1245269775390625,-0.4318695068359375
1783003210598558500,4.474558349609375,-0.260589599609375,-0.0841064453125,-0.4025726318359375
1783003210608610300,4.4846103515625,-0.2653350830078125,-0.0721435546875,-0.2938995361328125
1783003210618661400,4.494661376953125,-0.24658203125,-0.1056060791015625,-0.20263671875
1783003210628713700,4.504713623046875,-0.249603271484375,-0.1002655029296875,-0.1225433349609375
1783003210638765600,4.514765625,-0.246612548828125,-0.0729522705078125,-0.0727996826171875
1783003210648816600,4.524816650390625,-0.234588623046875,-0.0606536865234375,-0.033721923828125
1783003210658868500,4.534868408203125,-0.2320404052734375,-0.0545806884765625,-0.004913330078125
1783003210668919600,4.54491943359375,-0.2222442626953125,-0.0590667724609375,-0.0030059814453125
1783003210678971600,4.5549716796875,-0.230499267578125,-0.049560546875,-0.019775390625
1783003210689022500,4.5650224609375,-0.2364959716796875,-0.0478668212890625,-0.0193634033203125
1783003210699074600,4.575074462890625,-0.2317657470703125,-0.0711212158203125,-0.044189453125
1783003210709125600,4.585125732421875,-0.211151123046875,-0.0811004638671875,-0.0813140869140625
1783003210719178500,4.595178466796875,-0.2076873779296875,-0.05877685546875,-0.0971527099609375
1783003210729229600,4.6052294921875,-0.1757659912109375,-0.0647430419921875,-0.1091156005859375
1783003210739281400,4.615281494140625,-0.1520538330078125,-0.09149169921875,-0.1095428466796875
1783003210749332500,4.62533251953125,-0.1473236083984375,-0.117279052734375,-0.0904693603515625
1783003210759384300,4.63538427734375,-0.13214111328125,-0.14752197265625,-0.0573577880859375
1783003210769435400,4.645435302734375,-0.130218505859375,-0.1615447998046875,-0.0371551513671875
1783003210779487500,4.655487548828125,-0.137542724609375,-0.1427764892578125,-0.0350341796875
1783003210789538300,4.665538330078125,-0.1942291259765625,-0.11053466796875,-0.03515625
1783003210799590400,4.67559033203125,-0.245391845703125,-0.099029541015625,-0.0313568115234375
1783003210809641500,4.685641357421875,-0.3269195556640625,-0.0926055908203125,0.0001220703125
1783003210819693300,4.695693359375,-0.4260406494140625,-0.08538818359375,0.0229949951171875
1783003210829744400,4.705744384765625,-0.477020263671875,-0.1013336181640625,-0.00225830078125
1783003210839796200,4.715796142578125,-0.491363525390625,-0.1160736083984375,-0.0930938720703125
1783003210849847300,4.725847412109375,-0.524749755859375,-0.1101531982421875,-0.20452880859375
1783003210859899400,4.7358994140625,-0.6928863525390625,-0.1004180908203125,-0.27703857421875
1783003210869950200,4.7459501953125,-0.6497650146484375,-0.11724853515625,-0.3609619140625
1783003210880002300,4.756002197265625,-0.9257049560546875,-0.0531463623046875,-0.342193603515625
1783003210890053400,4.766053466796875,-1.1456756591796875,-0.0577392578125,-0.32977294921875
1783003210900105200,4.776105224609375,-1.14471435546875,-0.1396942138671875,-0.3404693603515625
1783003210910156300,4.78615625,-1.075714111328125,-0.0648040771484375,-0.3623504638671875
1783003210920208400,4.79620849609375,-1.1668853759765625,-0.30340576171875,-0.202392578125
1783003210930259200,4.80625927734375,-1.2401885986328125,-0.76531982421875,-0.0177001953125
1783003210940311600,4.8163115234375,-1.4098358154296875,-0.9557647705078125,-0.1002655029296875
1783003210950362400,4.8263623046875,-1.69873046875,-0.861968994140625,-0.2177886962890625
1783003210960414500,4.83641455078125,-1.88531494140625,-0.789093017578125,-0.3615570068359375
1783003210970465500,4.846465576171875,-2.15252685546875,-0.9295654296875,-0.498779296875
1783003210980517400,4.856517333984375,-2.325164794921875,-0.9705810546875,-0.6364593505859375
1783003210990568400,4.866568359375,-2.30145263671875,-0.759796142578125,-0.794342041015625
1783003211000620300,4.876620361328125,-2.23638916015625,-0.6313629150390625,-0.849945068359375
1783003211010671400,4.88667138671875,-2.194915771484375,-0.686279296875,-0.7331695556640625
1783003211020723500,4.896723388671875,-2.1960296630859375,-0.7550201416015625,-0.495269775390625
1783003211030775300,4.906775390625,-2.1782684326171875,-0.7697296142578125,-0.2796173095703125
1783003211040826400,4.916826416015625,-2.0518798828125,-0.779937744140625,-0.274993896484375
1783003211050878200,4.926878173828125,-1.8059234619140625,-0.7597503662109375,-0.4001312255859375
1783003211060929300,4.93692919921875,-1.49530029296875,-0.7002105712890625,-0.4600982666015625
1783003211070981400,4.9469814453125,-1.2856292724609375,-0.6829376220703125,-0.6204071044921875
1783003211081032200,4.9570322265625,-1.203338623046875,-0.6602783203125,-0.7806854248046875
1783003211091084300,4.967084228515625,-1.0336761474609375,-0.596771240234375,-0.7379302978515625
1783003211101135400,4.97713525390625,-1.0731048583984375,-0.4400482177734375,-0.6661376953125
1783003211111187200,4.987187255859375,-1.165374755859375,-0.220855712890625,-0.5126953125
1783003211121238300,4.99723828125,-1.3319549560546875,0.034210205078125,-0.259796142578125
1783003211131290400,5.007290283203125,-1.4327239990234375,0.241424560546875,-0.050567626953125
1783003211141341400,5.017341552734375,-1.289459228515625,0.2685394287109375,0.02734375
1783003211151393500,5.0273935546875,-1.09912109375,0.209686279296875,-0.1148223876953125
1783003211161444400,5.0374443359375,-1.1092376708984375,0.278289794921875,-0.260162353515625
1783003211171496400,5.047496337890625,-1.0771331787109375,0.2379913330078125,-0.2550811767578125
1783003211181547500,5.057547607421875,-0.9430999755859375,0.0498504638671875,-0.1667022705078125
1783003211191599400,5.067599365234375,-0.7912750244140625,-0.0980377197265625,-0.07855224609375
1783003211201650400,5.077650390625,-0.63275146484375,-0.1195068359375,-0.0099334716796875
1783003211211702300,5.087702392578125,-0.5553741455078125,-0.107177734375,0.073638916015625
1783003211221753300,5.09775341796875,-0.4054718017578125,-0.10595703125,0.174774169921875
1783003211231805400,5.107805419921875,-0.3649749755859375,-0.0590972900390625,0.191314697265625
1783003211241856300,5.117856201171875,-0.39111328125,0.059112548828125,0.1296234130859375
1783003211251908400,5.127908447265625,-0.4566802978515625,0.16729736328125,0.067047119140625
1783003211261959400,5.13795947265625,-0.458038330078125,0.17828369140625,0.048828125
1783003211272011300,5.14801123046875,-0.3951263427734375,0.0770416259765625,0.0224151611328125
1783003211282062300,5.158062255859375,-0.3629150390625,0.003662109375,0.036529541015625
1783003211292114200,5.1681142578125,-0.3615264892578125,0.002899169921875,0.007904052734375
1783003211302165200,5.178165283203125,-0.3419189453125,-0.06646728515625,-0.00189208984375
1783003211312217300,5.18821728515625,-0.3166961669921875,-0.2072906494140625,0.007781982421875
1783003211322268200,5.19826806640625,-0.3175811767578125,-0.2841033935546875,-0.0131683349609375
1783003211332320500,5.208320556640625,-0.341766357421875,-0.242095947265625,-0.0651092529296875
1783003211342371300,5.218371337890625,-0.359588623046875,-0.182037353515625,-0.1020660400390625
1783003211352423400,5.22842333984375,-0.3470458984375,-0.2017669677734375,-0.122772216796875
1783003211362474500,5.238474609375,-0.3611602783203125,-0.201080322265625,-0.149017333984375
1783003211372526300,5.2485263671875,-0.35174560546875,-0.1390380859375,-0.1960601806640625
1783003211382577400,5.258577392578125,-0.3326568603515625,-0.0549468994140625,-0.1600189208984375
1783003211392629500,5.26862939453125,-0.3072662353515625,-0.0539093017578125,-0.122894287109375
1783003211402680300,5.278680419921875,-0.2644195556640625,-0.122589111328125,-0.1385040283203125
1783003211412732400,5.288732421875,-0.236328125,-0.142333984375,-0.0891265869140625
1783003211422783500,5.298783447265625,-0.1905517578125,-0.1806793212890625,0.02996826171875
1783003211432835300,5.30883544921875,-0.7347412109375,-0.351806640625,-0.1930694580078125
1783003211442887400,5.318887451171875,-0.5560760498046875,-0.35302734375,-0.3236083984375
1783003211452938200,5.328938232421875,-0.505279541015625,-0.378997802734375,-0.3114013671875
1783003211462990300,5.338990234375,-0.45269775390625,-0.6088104248046875,-0.120208740234375
1783003211473041400,5.34904150390625,-0.51806640625,-0.78192138671875,0.02069091796875
1783003211483093200,5.35909326171875,-0.6104736328125,-0.7423553466796875,0.1867828369140625
1783003211493144300,5.369144287109375,-0.75927734375,-0.8030548095703125,0.2100982666015625
1783003211503196200,5.379196044921875,-0.86322021484375,-0.9462738037109375,0.063232421875
1783003211513247200,5.389247314453125,-0.9773101806640625,-0.914031982421875,-0.0989990234375
