time,seconds_elapsed,z,y,x
1783003206196000300,0.072000244140625,0.127653568983078,-0.26145318150520325,0.11200936138629913
1783003206206051300,0.08205126953125,0.13245391845703125,-0.2813589870929718,0.2572975754737854
1783003206216103400,0.092103515625,0.15962214767932892,-0.3662078082561493,0.38699406385421753
1783003206226154200,0.102154296875,0.19875383377075195,-0.4597468078136444,0.4913518726825714
1783003206236206300,0.112206298828125,0.22784994542598724,-0.5802780389785767,0.6269717812538147
1783003206246257400,0.12225732421875,0.2436869591474533,-0.6389216184616089,0.7873066067695618
1783003206256309200,0.132309326171875,0.2191760241985321,-0.6605110764503479,0.9950094223022461
1783003206266360300,0.1423603515625,0.127897247672081,-0.5902428030967712,1.2229467630386353
1783003206276412200,0.152412109375,-0.030042054131627083,-0.40900588035583496,1.4488885402679443
1783003206286463200,0.162463134765625,-0.23911431431770325,-0.1483473926782608,1.641147494316101
1783003206296515300,0.172515380859375,-0.5088629722595215,0.03851649910211563,1.6425777673721313
1783003206306566100,0.182566162109375,-0.7625125646591187,0.12678085267543793,1.4456807374954224
1783003206316618500,0.192618408203125,-0.9464222192764282,0.11133797466754913,1.1445965766906738
1783003206326669600,0.202669677734375,-0.9940424561500549,0.024408670142292976,0.7788718342781067
1783003206336721400,0.212721435546875,-0.9586421251296997,0.002040780382230878,0.31324872374534607
1783003206346772500,0.2227724609375,-0.8359047174453735,0.02129170671105385,-0.1855781227350235
1783003206356824300,0.23282421875,-0.6511828303337097,0.015044729225337505,-0.6369895339012146
1783003206366875400,0.24287548828125,-0.41823479533195496,-0.11831572651863098,-0.9921875596046448
1783003206376927500,0.252927490234375,-0.15090136229991913,-0.4021722078323364,-1.2204455137252808
1783003206386978300,0.262978271484375,0.13605956733226776,-0.8515023589134216,-1.2455196380615234
1783003206397030400,0.273030517578125,0.5105937719345093,-1.001520037651062,-0.9883398413658142
1783003206407081500,0.28308154296875,0.8741616010665894,-0.8489512801170349,-0.4831429719924927
1783003206417133300,0.29313330078125,1.097907543182373,-0.8395711183547974,0.13022218644618988
1783003206427184400,0.303184326171875,1.2643250226974487,-0.5833345651626587,0.6139914989471436
1783003206437236200,0.313236328125,1.3812546730041504,0.03829386085271835,0.8907309770584106
1783003206447288300,0.323288330078125,1.4443027973175049,0.9419630169868469,0.8652016520500183
1783003206457339400,0.33333935546875,1.5037248134613037,1.857923984527588,0.6674624681472778
1783003206467391200,0.34339111328125,1.583713173866272,2.5607779026031494,0.391184002161026
1783003206477442300,0.3534423828125,1.565646767616272,2.7171995639801025,-0.030049512162804604
1783003206487494100,0.363494140625,1.2444064617156982,0.6352267861366272,-1.0101828575134277
1783003206497545200,0.373545166015625,0.7275625467300415,-1.1452772617340088,-1.906272292137146
1783003206507597600,0.38359765625,0.3401738107204437,-1.154450535774231,-1.4702638387680054
1783003206517648100,0.393648193359375,-0.0580902025103569,-0.27198731899261475,-0.4372788071632385
1783003206527700500,0.403700439453125,-0.007148456759750843,0.42940568923950195,0.5684128403663635
1783003206537751600,0.41375146484375,0.4545390009880066,0.7939485311508179,1.4135079383850098
1783003206547803400,0.423803466796875,1.028642177581787,0.9433760643005371,2.1135692596435547
1783003206557854500,0.4338544921875,1.4913289546966553,0.9841538667678833,2.6378586292266846
1783003206567906300,0.44390625,1.6258931159973145,0.87987220287323,2.7388784885406494
1783003206577957400,0.453957275390625,1.4897606372833252,0.724543571472168,2.2953827381134033
1783003206588009500,0.464009521484375,1.1908268928527832,0.6514139771461487,1.3193707466125488
1783003206598060300,0.474060302734375,0.7334534525871277,0.8796871304512024,-0.01824078895151615
1783003206608112400,0.4841123046875,0.23290514945983887,1.3652455806732178,-1.4713307619094849
1783003206618163500,0.49416357421875,-0.12051363289356232,2.077810764312744,-2.730125904083252
1783003206628215300,0.50421533203125,-0.3037055432796478,2.602250337600708,-3.6693837642669678
1783003206638266400,0.514266357421875,-0.2757737934589386,2.7379729747772217,-4.263004302978516
1783003206648318200,0.524318115234375,0.023810790851712227,2.2800941467285156,-4.510625839233398
1783003206658369300,0.534369384765625,0.5834168195724487,1.2873557806015015,-4.412779808044434
1783003206668421400,0.54442138671875,1.292178750038147,0.226636603474617,-3.965238571166992
1783003206678472200,0.55447216796875,2.0497679710388184,-0.7138320803642273,-3.217935800552368
1783003206688524300,0.564524169921875,2.7057676315307617,-1.4470160007476807,-2.358550548553467
1783003206698575400,0.574575439453125,3.1814162731170654,-1.994598150253296,-1.5348402261734009
1783003206708623600,0.58462353515625,3.3861312866210938,-2.2996280193328857,-0.8391172885894775
1783003206718674700,0.5946748046875,3.341670036315918,-2.3619322776794434,-0.3197340667247772
1783003206728726500,0.6047265625,3.0860750675201416,-2.3050100803375244,-0.04598613455891609
1783003206738777600,0.614777587890625,2.6136131286621094,-2.2574965953826904,0.041071005165576935
1783003206748829700,0.62482958984375,1.99519681930542,-2.3202857971191406,0.022395586594939232
1783003206758880500,0.634880615234375,1.372868537902832,-2.5000951290130615,-0.06403570622205734
1783003206768932600,0.6449326171875,0.9449241757392883,-2.7126312255859375,-0.08040216565132141
1783003206778983700,0.654983642578125,0.794923722743988,-2.8350281715393066,0.03293265029788017
1783003206789035500,0.665035400390625,0.7957162857055664,-2.7416131496429443,0.18154582381248474
1783003206799086600,0.675086669921875,0.8588148355484009,-2.4692232608795166,0.30777594447135925
1783003206809138400,0.685138427734375,0.9183751344680786,-2.0609657764434814,0.370076060295105
1783003206819189500,0.695189453125,0.9367685317993164,-1.527219295501709,0.349563330411911
1783003206829241600,0.70524169921875,0.8890784978866577,-0.9277440905570984,0.25670555233955383
1783003206839292400,0.71529248046875,0.7423700094223022,-0.37456855177879333,0.10515891015529633
1783003206849344500,0.725344482421875,0.5141549110412598,0.10726840049028397,-0.04885995015501976
1783003206859396600,0.735396728515625,0.23770363628864288,0.5021427273750305,-0.18383827805519104
1783003206869447400,0.745447509765625,-0.0766708105802536,0.7789480090141296,-0.2681504786014557
1783003206879499800,0.755499755859375,-0.37582874298095703,0.9017399549484253,-0.2714970111846924
1783003206889550600,0.765550537109375,-0.6166546940803528,0.8703268766403198,-0.16392022371292114
1783003206899602700,0.775602783203125,-0.7730642557144165,0.8041883707046509,0.11152732372283936
1783003206909653800,0.78565380859375,-0.8454772233963013,0.7010670304298401,0.5203161835670471
1783003206919705600,0.79570556640625,-0.8350911736488342,0.4880357086658478,0.9372950196266174
1783003206929756700,0.805756591796875,-0.7778502106666565,0.20757822692394257,1.2925691604614258
1783003206939808500,0.81580859375,-0.7137836217880249,-0.05173243582248688,1.5732855796813965
1783003206949859600,0.825859619140625,-0.6403661370277405,-0.33121415972709656,1.7557158470153809
1783003206959911700,0.83591162109375,-0.6229634284973145,-0.6158120632171631,1.8234453201293945
1783003206969962500,0.84596240234375,-0.6834816336631775,-0.8736670613288879,1.8181661367416382
1783003206980014600,0.8560146484375,-0.8488945960998535,-0.959602952003479,1.707368016242981
1783003206990065700,0.866065673828125,-1.0880192518234253,-0.8541122674942017,1.4279019832611084
1783003207000117500,0.876117431640625,-1.3549792766571045,-0.5370956659317017,0.9839392304420471
1783003207010168600,0.88616845703125,-1.5760456323623657,-0.011523231863975525,0.4648483693599701
1783003207020220400,0.896220458984375,-1.7399076223373413,0.6497857570648193,0.10098014026880264
1783003207030271500,0.906271484375,-1.8180638551712036,1.1848361492156982,0.030589334666728973
1783003207040323600,0.916323486328125,-1.7714303731918335,1.4775737524032593,0.2124355584383011
1783003207050374400,0.92637451171875,-1.5989102125167847,1.515197992324829,0.5563388466835022
1783003207060426500,0.936426513671875,-1.4051988124847412,1.40342116355896,0.8931587338447571
1783003207070477600,0.9464775390625,-1.3591077327728271,1.3169137239456177,1.1381274461746216
1783003207080529700,0.95652978515625,-1.4695208072662354,1.208338737487793,1.103509545326233
1783003207090580700,0.966580810546875,-1.5702109336853027,0.9431971311569214,0.6864129900932312
1783003207100632600,0.976632568359375,-1.5314193964004517,0.7211315631866455,0.07485479861497879
1783003207110683600,0.98668359375,-1.282891035079956,0.784608781337738,-0.34366467595100403
1783003207120735700,0.99673583984375,-0.8760130405426025,1.0814162492752075,-0.4416072368621826
1783003207130786600,1.00678662109375,-0.36777961254119873,1.205633282661438,-0.2718661427497864
1783003207140838700,1.016838623046875,0.21096256375312805,0.9895366430282593,0.055325575172901154
1783003207150889700,1.0268896484375,0.72782301902771,0.2455623596906662,0.1985573023557663
1783003207160941600,1.036941650390625,1.08884596824646,-0.7603761553764343,0.15401139855384827
1783003207170992600,1.04699267578125,1.323543906211853,-1.6719781160354614,0.021046962589025497
1783003207181044500,1.05704443359375,1.498299241065979,-2.1603317260742188,-0.1856662631034851
1783003207191095600,1.067095458984375,1.6544203758239746,-2.1179885864257812,-0.5029987096786499
1783003207201147600,1.077147705078125,1.7279430627822876,-1.6699745655059814,-0.9234881401062012
1783003207211198500,1.087198486328125,1.675676941871643,-0.8286265730857849,-1.2691272497177124
1783003207221250600,1.09725048828125,1.5226479768753052,0.1802390068769455,-1.503365397453308
1783003207231301600,1.107301513671875,1.2500635385513306,0.9577651619911194,-1.6530054807662964
1783003207241353500,1.117353515625,0.9183167815208435,1.3918616771697998,-1.6778790950775146
1783003207251404500,1.127404541015625,0.5518304109573364,1.436090111732483,-1.5085513591766357
1783003207261456400,1.137456298828125,0.23692253232002258,1.1607635021209717,-1.1798429489135742
1783003207271507500,1.147507568359375,-0.0026383937802165747,0.5921293497085571,-0.769286572933197
1783003207281559800,1.157559814453125,-0.20680829882621765,-0.13783323764801025,-0.3196083605289459
1783003207291610400,1.1676103515625,-0.3352762758731842,-0.7275817394256592,0.10790809243917465
1783003207301662700,1.177662841796875,-0.4121380150318146,-1.0590089559555054,0.40166088938713074
1783003207311714600,1.187714599609375,-0.4206220507621765,-1.1889890432357788,0.5317674875259399
1783003207321765600,1.197765625,-0.4008542001247406,-1.18705153465271,0.5054261684417725
1783003207331817700,1.207817626953125,-0.3500661253929138,-1.0644351243972778,0.3784189522266388
1783003207341868500,1.21786865234375,-0.27241235971450806,-0.914169192314148,0.20246629416942596
1783003207351920600,1.227920654296875,-0.1286410689353943,-0.7742725610733032,0.0642319843173027
1783003207361971700,1.2379716796875,0.08904492110013962,-0.7102533578872681,-0.027361849322915077
1783003207372023600,1.2480234375,0.3157244026660919,-0.6783950328826904,-0.0813734158873558
1783003207382074600,1.25807470703125,0.43987271189689636,-0.5940667986869812,-0.13104456663131714
1783003207392126500,1.26812646484375,0.4262237548828125,-0.4093339741230011,-0.18877151608467102
1783003207402177500,1.278177490234375,0.3331332206726074,-0.15951083600521088,-0.27780020236968994
1783003207412229600,1.288229736328125,0.2018257975578308,0.23251819610595703,-0.38836345076560974
1783003207422280400,1.298280517578125,0.04574618116021156,0.7735303044319153,-0.4692431092262268
1783003207432332500,1.30833251953125,-0.13146694004535675,1.2393070459365845,-0.4843083620071411
1783003207442383600,1.318383544921875,-0.3101208508014679,1.4416707754135132,-0.4392697811126709
1783003207452435500,1.328435546875,-0.48801228404045105,1.4160802364349365,-0.3130204975605011
1783003207462486500,1.338486572265625,-0.6571003794670105,1.0664969682693481,-0.15235652029514313
1783003207472538400,1.348538330078125,-0.8237870931625366,0.42562374472618103,0.03291454166173935
1783003207482589400,1.35858935546875,-0.9266511797904968,-0.30116063356399536,0.29373788833618164
1783003207492641800,1.368641845703125,-0.9247395396232605,-0.6764082908630371,0.5504553914070129
1783003207502692600,1.378692626953125,-0.8106241226196289,-0.8335771560668945,0.6143313646316528
1783003207512744700,1.38874462890625,-0.6188443303108215,-0.9014190435409546,0.462424635887146
1783003207522795800,1.398795654296875,-0.40884876251220703,-0.7815296649932861,0.2667699158191681
1783003207532847600,1.40884765625,-0.29169949889183044,-0.38920900225639343,0.06513293087482452
1783003207542898700,1.418898681640625,-0.3350754678249359,0.3233785927295685,-0.11954264342784882
1783003207552950500,1.428950439453125,-0.5598470568656921,1.1769925355911255,-0.24337244033813477
1783003207563001600,1.439001708984375,-0.9238119721412659,1.7847295999526978,-0.2735966444015503
1783003207573053700,1.4490537109375,-1.2639471292495728,2.224802255630493,-0.07618051767349243
1783003207583104500,1.4591044921875,-1.3473091125488281,2.3002703189849854,0.20226122438907623
1783003207593156600,1.469156494140625,-1.1594101190567017,1.798950433731079,0.4157426059246063
1783003207603207700,1.479207763671875,-0.7591071724891663,0.9625460505485535,0.6258864998817444
1783003207613259500,1.489259521484375,-0.2307962030172348,-0.22906248271465302,0.7183440327644348
1783003207623310600,1.499310546875,0.23639895021915436,-1.4127368927001953,0.7457889914512634
1783003207633362400,1.509362548828125,0.4605177938938141,-1.9802935123443604,0.6698358654975891
1783003207643413500,1.51941357421875,0.5152670741081238,-1.5946893692016602,0.5475800037384033
1783003207653465600,1.529465576171875,0.562247633934021,-0.5359246730804443,0.5034972429275513
1783003207663516400,1.539516357421875,0.7201017141342163,0.4901782274246216,0.5096755027770996
1783003207673568500,1.549568603515625,0.971992015838623,1.0886584520339966,0.4639298617839813
1783003207683619600,1.55961962890625,1.1359889507293701,1.3102387189865112,0.3176559805870056
1783003207693671700,1.569671630859375,1.2716985940933228,1.1912966966629028,-0.02508431486785412
1783003207703722500,1.579722412109375,1.4180059432983398,0.8173659443855286,-0.46274128556251526
1783003207713774300,1.5897744140625,1.4724020957946777,0.4260791540145874,-0.7801375985145569
1783003207723826400,1.599826416015625,1.3325587511062622,0.1187380999326706,-0.8884720802307129
1783003207733877500,1.60987744140625,1.0330703258514404,-0.04915769398212433,-0.9235027432441711
1783003207743929300,1.619929443359375,0.6584625840187073,-0.15184305608272552,-1.0184208154678345
1783003207753980400,1.62998046875,0.29281243681907654,-0.03407541289925575,-1.1961630582809448
1783003207764032300,1.6400322265625,-0.02689632959663868,0.2063015103340149,-1.4096354246139526
1783003207774083300,1.650083251953125,-0.3352496325969696,0.3534720540046692,-1.610546350479126
1783003207784135700,1.6601357421875,-0.6270028948783875,0.3058730959892273,-1.6489014625549316
1783003207794186200,1.670186279296875,-0.7826005220413208,0.1906208097934723,-1.4178369045257568
1783003207804238600,1.680238525390625,-0.7242828607559204,0.05672905966639519,-1.008751630783081
1783003207814289700,1.69028955078125,-0.5056551694869995,-0.04054290056228638,-0.5633382201194763
1783003207824341500,1.700341552734375,-0.2250794619321823,-0.1111166700720787,-0.1356494426727295
1783003207834392600,1.710392578125,0.061889465898275375,-0.22283947467803955,0.20452997088432312
1783003207844444400,1.7204443359375,0.32361188530921936,-0.34030431509017944,0.4117926061153412
1783003207854495500,1.73049560546875,0.5674788951873779,-0.46954619884490967,0.48820987343788147
1783003207864547600,1.740547607421875,0.7416472434997559,-0.6512120962142944,0.49402302503585815
1783003207874598400,1.750598388671875,0.7706730365753174,-0.8206347227096558,0.4997680187225342
1783003207884650500,1.760650390625,0.6220380067825317,-0.9300283193588257,0.5354477167129517
1783003207894701600,1.77070166015625,0.39115312695503235,-1.0309706926345825,0.5692565441131592
1783003207904753400,1.78075341796875,0.1521085798740387,-1.0073449611663818,0.5446534752845764
1783003207914804500,1.790804443359375,-0.08845396339893341,-0.7844498157501221,0.4554431438446045
1783003207924856300,1.800856201171875,-0.30100271105766296,-0.4063485860824585,0.31042206287384033
1783003207934907400,1.810907470703125,-0.4462994635105133,0.08149486035108566,0.15197807550430298
1783003207944959500,1.82095947265625,-0.5394517779350281,0.5194940567016602,0.0036669063847512007
1783003207955010300,1.83101025390625,-0.603720486164093,0.7352111339569092,-0.11331696808338165
1783003207965062400,1.8410625,-0.6406774520874023,0.6917369365692139,-0.1310560256242752
1783003207975113500,1.851113525390625,-0.6829417943954468,0.3865538239479065,-0.013687849044799805
1783003207985165300,1.861165283203125,-0.7639634609222412,-0.15063424408435822,0.22313055396080017
1783003207995216400,1.87121630859375,-0.8918633460998535,-0.7119393944740295,0.5579487681388855
1783003208005268500,1.8812685546875,-1.025782823562622,-1.1501257419586182,0.9304490685462952
1783003208015319300,1.8913193359375,-1.087796926498413,-1.284555196762085,1.2305958271026611
1783003208025371600,1.90137158203125,-1.0214437246322632,-1.1323004961013794,1.4019676446914673
1783003208035422500,1.91142236328125,-0.8627802729606628,-0.7722498774528503,1.3818130493164062
1783003208045474600,1.921474609375,-0.6626783609390259,-0.32415810227394104,1.2328810691833496
1783003208055525600,1.931525634765625,-0.43381109833717346,0.068776935338974,1.0025384426116943
1783003208065577500,1.941577392578125,-0.24630272388458252,0.20651376247406006,0.7496087551116943
1783003208075628500,1.951628662109375,-0.19342325627803802,0.05456417426466942,0.6450956463813782
1783003208085680400,1.961680419921875,-0.2911168038845062,-0.20914575457572937,0.7174502611160278
1783003208095731500,1.9717314453125,-0.4931811988353729,-0.339069128036499,0.915135383605957
1783003208105783600,1.981783447265625,-0.7330337762832642,-0.10992597043514252,1.2230695486068726
1783003208115835400,1.99183544921875,-0.8193641304969788,0.31525036692619324,1.5782883167266846
1783003208125886500,2.001886474609375,-0.6237837076187134,0.5534778237342834,1.7215591669082642
1783003208135938300,2.011938232421875,-0.20518217980861664,0.3351718783378601,1.5728451013565063
1783003208145989400,2.0219892578125,0.22640012204647064,-0.3144892156124115,1.178515911102295
1783003208156041500,2.03204150390625,0.49422410130500793,-1.0178180932998657,0.7180106043815613
1783003208166092300,2.04209228515625,0.6051034927368164,-1.286022424697876,0.3071357011795044
1783003208176144400,2.052144287109375,0.6913057565689087,-1.0026791095733643,-0.046734217554330826
1783003208186195500,2.062195556640625,0.8472825884819031,-0.26053810119628906,-0.33458569645881653
1783003208196247600,2.07224755859375,1.057044267654419,0.5346413254737854,-0.5630409717559814
1783003208206298400,2.08229833984375,1.2504230737686157,1.1722828149795532,-0.7065326571464539
1783003208216350500,2.0923505859375,1.3461816310882568,1.5108927488327026,-0.8646639585494995
1783003208226401500,2.102401611328125,1.2787562608718872,1.5203824043273926,-1.051806926727295
1783003208236453600,2.11245361328125,1.0605639219284058,1.4163271188735962,-1.1862974166870117
1783003208246504400,2.12250439453125,0.7869046926498413,1.3194599151611328,-1.2017213106155396
1783003208256556500,2.132556640625,0.5686083436012268,1.1075471639633179,-1.150206446647644
1783003208266607600,2.142607666015625,0.4239901602268219,0.7547443509101868,-1.136460542678833
1783003208276659500,2.152659423828125,0.31570255756378174,0.3493633270263672,-1.2227272987365723
1783003208286710500,2.16271044921875,0.18718160688877106,0.023735688999295235,-1.3510042428970337
1783003208296762400,2.172762451171875,0.019932961091399193,-0.1265571415424347,-1.4235743284225464
1783003208306813400,2.1828134765625,-0.1375298947095871,-0.03611113131046295,-1.4259674549102783
1783003208316865500,2.192865478515625,-0.25612524151802063,0.27934882044792175,-1.3961273431777954
1783003208326916400,2.202916259765625,-0.3653406798839569,0.6605872511863708,-1.341255784034729
1783003208336968400,2.212968505859375,-0.4748895466327667,0.9975732564926147,-1.2447748184204102
1783003208347019500,2.22301953125,-0.5845377445220947,1.2403126955032349,-1.1318650245666504
1783003208357071400,2.2330712890625,-0.671046257019043,1.3811901807785034,-1.0050495862960815
1783003208367122400,2.243122314453125,-0.7292414307594299,1.4164663553237915,-0.8856257200241089
1783003208377174300,2.25317431640625,-0.7777985334396362,1.2880860567092896,-0.7777013778686523
1783003208387225300,2.263225341796875,-0.8150783181190491,1.0520721673965454,-0.674476146697998
1783003208397277400,2.27327734375,-0.8184431791305542,0.7630172371864319,-0.5616284608840942
1783003208407328300,2.283328369140625,-0.7895920872688293,0.43613550066947937,-0.4454539120197296
1783003208417380600,2.293380615234375,-0.7265886664390564,0.07963251322507858,-0.3431307375431061
1783003208427431400,2.303431396484375,-0.6047117114067078,-0.2051427662372589,-0.2890975773334503
1783003208437483500,2.3134833984375,-0.4278815686702728,-0.4080447554588318,-0.2870810329914093
1783003208447534600,2.32353466796875,-0.2431788295507431,-0.5699508190155029,-0.29148563742637634
1783003208457586400,2.33358642578125,-0.06125883013010025,-0.6030126214027405,-0.27594849467277527
1783003208467637500,2.343637451171875,0.08384216576814651,-0.5504783391952515,-0.21519140899181366
1783003208477689600,2.353689697265625,0.1893073469400406,-0.5275623798370361,-0.13306590914726257
1783003208487740400,2.363740478515625,0.2538250684738159,-0.5750451683998108,-0.0692504420876503
1783003208497792500,2.37379248046875,0.2735157012939453,-0.5969731211662292,-0.03382507339119911
1783003208507844400,2.38384423828125,0.2617253363132477,-0.5777972936630249,-0.04210963472723961
1783003208517895400,2.3938955078125,0.18899761140346527,-0.536612331867218,-0.06886827945709229
1783003208527947500,2.403947509765625,0.06498458981513977,-0.437248170375824,-0.06315074115991592
1783003208537998300,2.413998291015625,-0.08107567578554153,-0.2837475538253784,-0.01347346417605877
1783003208548050400,2.424050537109375,-0.2192055881023407,-0.18324385583400726,0.08535164594650269
1783003208558101500,2.4341015625,-0.32493945956230164,-0.130194753408432,0.2106725573539734
1783003208568153300,2.4441533203125,-0.37572887539863586,-0.09763547778129578,0.3746825158596039
1783003208578204400,2.454204345703125,-0.36225569248199463,-0.11399075388908386,0.5173547267913818
1783003208588256300,2.46425634765625,-0.2916156053543091,-0.2196820229291916,0.6279486417770386
1783003208598307300,2.474307373046875,-0.19884678721427917,-0.4100290536880493,0.6677647233009338
1783003208608359700,2.484359619140625,-0.11372523009777069,-0.5328401923179626,0.6626754403114319
1783003208618410200,2.49441015625,-0.058455321937799454,-0.37155890464782715,0.6972435116767883
1783003208628462600,2.504462646484375,-0.08072414249181747,-0.07094794511795044,0.7288075685501099
1783003208638513700,2.514513671875,-0.1578572690486908,0.1582314521074295,0.7225624918937683
1783003208648565500,2.5245654296875,-0.14384132623672485,0.32464733719825745,0.754124104976654
1783003208658616600,2.534616455078125,0.05867742747068405,0.3090342879295349,0.8217636346817017
1783003208668668400,2.54466845703125,0.37126168608665466,0.017480190843343735,0.9875128865242004
1783003208678719500,2.554719482421875,0.6774245500564575,-0.30960604548454285,1.2536956071853638
1783003208688771600,2.564771484375,0.8374682664871216,-0.7307961583137512,1.464532732963562
1783003208698822400,2.574822509765625,0.7846250534057617,-1.3775781393051147,1.476873517036438
1783003208708875000,2.584875,0.5925581455230713,-2.1026852130889893,1.3731415271759033
1783003208718926000,2.594926025390625,0.3926604688167572,-2.39658784866333,1.2154302597045898
1783003208728978000,2.60497802734375,0.26081347465515137,-1.9532414674758911,0.9847253561019897
1783003208739029000,2.615029052734375,0.2494734823703766,-0.9517740607261658,0.7674018740653992
1783003208749080800,2.625080810546875,0.2544615864753723,-0.046421293169260025,0.566662609577179
1783003208759132000,2.6351318359375,0.23483967781066895,0.4405001699924469,0.30622971057891846
1783003208769184000,2.64518408203125,0.2058575600385666,0.6365830898284912,0.00490181427448988
1783003208779234800,2.65523486328125,0.15776006877422333,0.5949344635009766,-0.2839105427265167
1783003208789287200,2.665287109375,0.13025175034999847,0.3038072884082794,-0.5770643949508667
1783003208799338000,2.675337890625,0.1576053351163864,-0.1596439927816391,-0.8225052952766418
1783003208809390000,2.68539013671875,0.2383558452129364,-0.6972097158432007,-0.9927313923835754
1783003208819441200,2.695441162109375,0.3138013482093811,-1.1173601150512695,-1.0281047821044922
1783003208829493000,2.705492919921875,0.2827882766723633,-1.293718695640564,-0.9196523427963257
1783003208839544000,2.7155439453125,0.1254444718360901,-1.22373366355896,-0.7810342907905579
1783003208849596000,2.725595947265625,-0.10721354186534882,-0.9777343273162842,-0.6962475180625916
1783003208859648000,2.73564794921875,-0.35004696249961853,-0.6509444713592529,-0.6916769742965698
1783003208869699000,2.745698974609375,-0.5496639013290405,-0.32928362488746643,-0.7466992139816284
1783003208879751000,2.7557509765625,-0.6627917885780334,-0.13124829530715942,-0.8533796072006226
1783003208889802000,2.765802001953125,-0.6969074606895447,-0.12500637769699097,-0.9534878134727478
1783003208899853800,2.775853759765625,-0.6666472554206848,-0.30638790130615234,-0.9911699891090393
1783003208909905000,2.78590478515625,-0.5879567265510559,-0.5614718794822693,-0.9545280337333679
1783003208919957000,2.79595703125,-0.4762911796569824,-0.8028407692909241,-0.8617504239082336
1783003208930007800,2.8060078125,-0.3491169810295105,-0.9541743993759155,-0.7190460562705994
1783003208940060000,2.816059814453125,-0.2279287725687027,-0.9394801259040833,-0.521680474281311
1783003208950111000,2.826111083984375,-0.11409914493560791,-0.7984803915023804,-0.27852723002433777
1783003208960163000,2.8361630859375,-0.039432093501091,-0.5694701075553894,-0.03672152757644653
1783003208970214000,2.8462138671875,-0.01575552672147751,-0.3335934281349182,0.1925489455461502
1783003208980266000,2.856265869140625,-0.0696328729391098,-0.15744981169700623,0.4156123697757721
1783003208990317000,2.866317138671875,-0.17990851402282715,-0.08346480131149292,0.5435397028923035
1783003209000369200,2.876369140625,-0.3232260048389435,-0.07420258969068527,0.5974996089935303
1783003209010420000,2.886419921875,-0.47682327032089233,-0.06607808917760849,0.6157960891723633
1783003209020472000,2.89647216796875,-0.6120465993881226,-0.06986083835363388,0.6186203360557556
1783003209030523100,2.906523193359375,-0.7159658074378967,-0.11192094534635544,0.6156232357025146
1783003209040575000,2.916574951171875,-0.7932331562042236,-0.17000076174736023,0.5820264220237732
1783003209050626000,2.9266259765625,-0.8235684633255005,-0.19973307847976685,0.5161325931549072
1783003209060678000,2.936677978515625,-0.8088513016700745,-0.1597031056880951,0.40506094694137573
1783003209070729000,2.94672900390625,-0.7745354175567627,-0.05548243224620819,0.2878434956073761
1783003209080781000,2.956781005859375,-0.730579137802124,0.13450375199317932,0.2339150309562683
1783003209090832000,2.966831787109375,-0.6964491009712219,0.2952287197113037,0.23899073898792267
1783003209100884000,2.976884033203125,-0.667529284954071,0.33622807264328003,0.28714656829833984
1783003209110935000,2.98693505859375,-0.6379953622817993,0.22958391904830933,0.39479711651802063
1783003209120987000,2.99698681640625,-0.5597240328788757,0.029689984396100044,0.5737373232841492
1783003209131038000,3.007037841796875,-0.4899987280368805,-0.12043240666389465,0.607978105545044
1783003209141089800,3.01708984375,-0.4559912383556366,-0.17009876668453217,0.5095492601394653
1783003209151140900,3.027140869140625,-0.43982717394828796,-0.08903186768293381,0.3250736892223358
1783003209161193000,3.03719287109375,-0.4352089762687683,0.020121779292821884,0.12086303532123566
1783003209171244000,3.047244140625,-0.4417976438999176,0.2391236275434494,0.02973286248743534
1783003209181296000,3.057296142578125,-0.4544479250907898,0.5924966335296631,0.2659509778022766
1783003209191347200,3.06734716796875,-0.5515633225440979,0.9519652724266052,0.8815745115280151
1783003209201399000,3.07739892578125,-0.7204843759536743,0.8925198316574097,1.7041410207748413
1783003209211451100,3.087451171875,-0.9794520735740662,0.2536762058734894,2.450871229171753
1783003209221502000,3.097501953125,-1.4967737197875977,-1.0270626544952393,2.950089693069458
1783003209231554000,3.107553955078125,-2.1956655979156494,-2.6796505451202393,3.099090099334717
1783003209241605000,3.117605224609375,-2.6555354595184326,-3.715723752975464,2.7587215900421143
1783003209251657000,3.127656982421875,-2.661935329437256,-3.5404489040374756,2.0919127464294434
1783003209261708000,3.1377080078125,-2.2119481563568115,-2.51963210105896,1.5832349061965942
1783003209271760000,3.147759765625,-1.352095127105713,-1.1797523498535156,1.4980124235153198
1783003209281811000,3.15781103515625,-0.42417922616004944,-0.1900346577167511,1.790596604347229
1783003209291863000,3.167863037109375,0.11624165624380112,-0.10711020976305008,2.0651769638061523
1783003209301913900,3.177913818359375,0.2034447342157364,-0.7122909426689148,1.9706904888153076
1783003209311966000,3.187966064453125,0.11440780013799667,-1.3901023864746094,1.5241955518722534
1783003209322017000,3.19801708984375,0.20653054118156433,-1.736356496810913,0.8781381845474243
1783003209332068900,3.20806884765625,0.5413484573364258,-1.7021636962890625,0.1809127926826477
1783003209342120000,3.218119873046875,0.9325343370437622,-1.2729870080947876,-0.418231338262558
1783003209352171800,3.228171875,1.20064377784729,-0.6440886855125427,-0.933140754699707
1783003209362222800,3.238222900390625,1.3167062997817993,0.06727437674999237,-1.4353018999099731
1783003209372275200,3.248275146484375,1.2617346048355103,0.706010103225708,-1.8555675745010376
1783003209382325800,3.25832568359375,1.069822907447815,0.9937204718589783,-2.065263271331787
1783003209392378000,3.268378173828125,0.8456860184669495,0.8853082656860352,-2.049611806869507
1783003209402429200,3.27842919921875,0.7019898295402527,0.5303131341934204,-1.8615487813949585
1783003209412481000,3.28848095703125,0.6416170001029968,0.12679310142993927,-1.536552906036377
1783003209422532000,3.298531982421875,0.6201854944229126,-0.1640286147594452,-1.0597527027130127
1783003209432584000,3.308583984375,0.6318956613540649,-0.24921435117721558,-0.6373072266578674
1783003209442635000,3.318635009765625,0.682769775390625,-0.14052781462669373,-0.38000646233558655
1783003209452687000,3.32868701171875,0.7611114382743835,0.09750418365001678,-0.28802406787872314
1783003209462738000,3.338738037109375,0.8368749022483826,0.4470486044883728,-0.3216584622859955
1783003209472790000,3.3487900390625,0.8452165126800537,0.8768401741981506,-0.4407060146331787
1783003209482841000,3.358841064453125,0.7561622262001038,1.1833796501159668,-0.5852746367454529
1783003209492893000,3.368892822265625,0.5045350790023804,1.2722599506378174,-0.6892412900924683
1783003209502944000,3.378944091796875,0.18705697357654572,1.16232168674469,-0.7121444344520569
1783003209512995800,3.388995849609375,-0.08718683570623398,0.9362038969993591,-0.7042521834373474
1783003209523047000,3.399046875,-0.2776971161365509,0.7107508182525635,-0.7019138932228088
1783003209533099000,3.40909912109375,-0.36958497762680054,0.5781916975975037,-0.6991990804672241
1783003209543149800,3.41914990234375,-0.3798394799232483,0.6058768630027771,-0.7176494598388672
1783003209553202000,3.429201904296875,-0.32790303230285645,0.7521430253982544,-0.6887214183807373
1783003209563253000,3.4392529296875,-0.23482289910316467,0.9594227075576782,-0.5885103940963745
1783003209573304800,3.449304931640625,-0.13773123919963837,1.1031478643417358,-0.4531552195549011
1783003209583357200,3.459357177734375,-0.073698990046978,1.1202906370162964,-0.3402438461780548
1783003209593408000,3.469407958984375,-0.029570940881967545,1.064447045326233,-0.23989461362361908
1783003209603460000,3.479460205078125,0.024338629096746445,0.9453156590461731,-0.10484865307807922
1783003209613511200,3.48951123046875,0.08433565497398376,0.7637400031089783,0.049792591482400894
1783003209623563000,3.49956298828125,0.09091366082429886,0.6308011412620544,0.1703307181596756
1783003209633614000,3.509614013671875,0.04295811802148819,0.4841810464859009,0.21959467232227325
1783003209643666000,3.519666015625,-0.0578281469643116,0.3845980167388916,0.23363326489925385
1783003209653717000,3.529717041015625,-0.17814843356609344,0.4539659023284912,0.3046738803386688
1783003209663769000,3.53976904296875,-0.21180012822151184,0.7196289896965027,0.3644210994243622
1783003209673820000,3.54981982421875,-0.14389857649803162,0.9189921617507935,0.32936006784439087
1783003209683872000,3.5598720703125,-0.0046267095021903515,0.8275863528251648,0.294121116399765
1783003209693923000,3.569923095703125,0.18038788437843323,0.5323075652122498,0.24183793365955353
1783003209703975000,3.579974853515625,0.3110593557357788,0.3030397593975067,0.17417606711387634
1783003209714025500,3.590025390625,0.35125017166137695,0.2881931662559509,0.05451783537864685
1783003209724077600,3.60007763671875,0.26428118348121643,0.5723737478256226,-0.3752998411655426
1783003209734128400,3.61012841796875,-0.06355127692222595,1.1918675899505615,-0.9361327886581421
1783003209744180500,3.620180419921875,-0.4175325334072113,2.22640323638916,-1.289913296699524
1783003209754231600,3.6302314453125,-0.6535226702690125,3.507672071456909,-1.645668387413025
1783003209764283400,3.640283447265625,-0.8922281861305237,4.490847110748291,-1.7010257244110107
1783003209774334500,3.65033447265625,-0.9630424380302429,4.590438365936279,-1.3785057067871094
1783003209784386300,3.66038623046875,-0.9629164934158325,3.6263296604156494,-1.1715497970581055
1783003209794437400,3.670437255859375,-0.9850447177886963,2.2767796516418457,-1.328481674194336
1783003209804489700,3.68048974609375,-0.8776668310165405,1.1915757656097412,-1.655741572380066
1783003209814540300,3.690540283203125,-0.7120411396026611,0.8811385035514832,-1.4661753177642822
1783003209824592600,3.700592529296875,-0.5059321522712708,1.3551210165023804,-0.3619406223297119
1783003209834643700,3.710643798828125,-0.1939319223165512,2.0291330814361572,0.9690497517585754
1783003209844695600,3.720695556640625,0.23422874510288239,2.2090091705322266,1.7440173625946045
1783003209854746600,3.73074658203125,0.38324084877967834,1.7407687902450562,1.807356357574463
1783003209864798500,3.740798583984375,0.1553158164024353,0.9015465974807739,1.3107175827026367
1783003209874849500,3.750849609375,0.1208055168390274,0.28159573674201965,0.8938388824462891
1783003209884901600,3.760901611328125,0.11825793236494064,-0.48387134075164795,0.798812210559845
1783003209894952400,3.770952392578125,-0.026569291949272156,-1.3930561542510986,0.7837712168693542
1783003209905004500,3.781004638671875,-0.2989952266216278,-2.1828651428222656,0.4817914068698883
1783003209915055600,3.7910556640625,-0.6604067087173462,-2.5391459465026855,-0.27396151423454285
1783003209925107500,3.801107421875,-0.9483522176742554,-2.17290997505188,-1.130556344985962
1783003209935158500,3.811158447265625,-1.092677116394043,-1.3530187606811523,-1.767652153968811
1783003209945210400,3.82121044921875,-1.0781474113464355,-0.3643931448459625,-2.060189962387085
1783003209955262500,3.831262451171875,-0.950406551361084,0.3962722420692444,-2.057631492614746
1783003209965313500,3.8413134765625,-0.7745396494865417,0.8193071484565735,-1.8551383018493652
1783003209975365400,3.851365478515625,-0.6158376336097717,0.8429812788963318,-1.5497075319290161
1783003209985416400,3.86141650390625,-0.46699726581573486,0.6109062433242798,-1.2219566106796265
1783003209995468500,3.871468505859375,-0.3712528944015503,0.23873774707317352,-0.9103806018829346
1783003210005519400,3.881519287109375,-0.2586805522441864,-0.26832786202430725,-0.6330251097679138
1783003210015571700,3.89157177734375,-0.0335766039788723,-0.8664700984954834,-0.39735081791877747
1783003210025622500,3.90162255859375,0.11118937283754349,-1.4172296524047852,-0.2883971631526947
1783003210035674600,3.911674560546875,0.06239306926727295,-1.7955650091171265,-0.320689857006073
1783003210045725700,3.9217255859375,-0.10539646446704865,-1.9188346862792969,-0.44351884722709656
1783003210055777500,3.931777587890625,-0.22989071905612946,-1.7534209489822388,-0.5885439515113831
1783003210065828600,3.94182861328125,-0.2209145426750183,-1.3820991516113281,-0.7203297019004822
1783003210075880400,3.95188037109375,-0.06306684762239456,-0.928432285785675,-0.7963179349899292
1783003210085931500,3.961931640625,0.20522958040237427,-0.48075756430625916,-0.7583191394805908
1783003210095983600,3.971983642578125,0.5156335234642029,-0.20031018555164337,-0.5794998407363892
1783003210106034400,3.982034423828125,0.7631964683532715,-0.16776981949806213,-0.3308812379837036
1783003210116086500,3.99208642578125,0.9496776461601257,-0.3725796937942505,-0.00015206649550236762
1783003210126137600,4.0021376953125,1.061152458190918,-0.753667950630188,0.3967750370502472
1783003210136189400,4.012189453125,1.1177146434783936,-1.1431536674499512,0.7978955507278442
1783003210146240500,4.022240478515625,1.1490073204040527,-1.4527604579925537,1.1552001237869263
1783003210156292400,4.032292236328125,1.1887911558151245,-1.6462162733078003,1.5346391201019287
1783003210166343400,4.042343505859375,1.24941885471344,-1.7171926498413086,1.9331883192062378
1783003210176395500,4.0523955078125,1.0985584259033203,-1.6185723543167114,2.0421621799468994
1783003210186446300,4.0624462890625,0.8182101845741272,-1.4275065660476685,1.7372568845748901
1783003210196498400,4.07249853515625,0.5825891494750977,-1.1286988258361816,1.196825385093689
1783003210206549500,4.082549560546875,0.3463877737522125,-0.6551051139831543,0.6569413542747498
1783003210216601600,4.0926015625,0.07223345339298248,-0.29642102122306824,0.16979250311851501
1783003210226652700,4.102652587890625,-0.17626850306987762,-0.23615553975105286,-0.2204170525074005
1783003210236704500,4.11270458984375,-0.34233471751213074,-0.41945773363113403,-0.4202185869216919
1783003210246755600,4.122755615234375,-0.3937787115573883,-0.5886433124542236,-0.4948621988296509
1783003210256807700,4.1328076171875,-0.34123241901397705,-0.6301071047782898,-0.4794352948665619
1783003210266859500,4.142859619140625,-0.19097821414470673,-0.6275696158409119,-0.39006441831588745
1783003210276910600,4.15291064453125,0.016596287488937378,-0.5720072984695435,-0.11568212509155273
1783003210286962400,4.16296240234375,0.27049219608306885,-0.5318282246589661,0.2976953387260437
1783003210297013500,4.173013427734375,0.517864465713501,-0.6768274903297424,0.6319942474365234
1783003210307065600,4.183065673828125,0.7007077932357788,-0.6654105186462402,0.755009114742279
1783003210317116400,4.193116455078125,0.7955567836761475,-0.40688732266426086,0.7169508934020996
1783003210327168500,4.20316845703125,0.8373718857765198,-0.11416758596897125,0.5996562838554382
1783003210337219600,4.213219482421875,0.7942616939544678,-0.10930757969617844,0.265428751707077
1783003210347271400,4.223271484375,0.5588840842247009,-0.3094595968723297,-0.33603528141975403
1783003210357322500,4.233322509765625,0.13263288140296936,-0.5164673328399658,-1.008467197418213
1783003210367374300,4.243374267578125,-0.41514846682548523,-0.4681570827960968,-1.3206136226654053
1783003210377425400,4.25342529296875,-0.8548904061317444,-0.04523139446973801,-1.021302342414856
1783003210387477500,4.2634775390625,-0.9209927320480347,0.506514310836792,-0.22675777971744537
1783003210397528300,4.2735283203125,-0.5557729601860046,0.8291254043579102,0.5950348973274231
1783003210407580700,4.28358056640625,-0.000898550555575639,0.8638951182365417,1.0239958763122559
1783003210417631500,4.293631591796875,0.5095926523208618,0.8716968297958374,1.0219707489013672
1783003210427683600,4.30368359375,0.8764620423316956,0.9079573750495911,0.8261753916740417
1783003210437734700,4.313734619140625,1.1198291778564453,0.8340479731559753,0.5889098644256592
1783003210447786500,4.323786376953125,1.308056354522705,0.6723629236221313,0.26758190989494324
1783003210457837600,4.333837646484375,1.4560737609863281,0.45410144329071045,-0.0972658321261406
1783003210467889700,4.3438896484375,1.5025852918624878,0.2495054304599762,-0.504482626914978
1783003210477940500,4.3539404296875,1.5163637399673462,0.3057527244091034,-0.8099958896636963
1783003210487992600,4.36399267578125,1.5113366842269897,0.7022321820259094,-1.0141277313232422
1783003210498043600,4.374043701171875,1.4675980806350708,1.2118592262268066,-1.1634410619735718
1783003210508095500,4.384095458984375,1.2969354391098022,1.502573847770691,-1.1489795446395874
1783003210518146600,4.394146484375,0.9418005347251892,1.2888972759246826,-0.8800356984138489
1783003210528198400,4.404198486328125,0.49322301149368286,0.5942170023918152,-0.37031760811805725
1783003210538249500,4.41424951171875,0.11515188962221146,-0.36970800161361694,0.21887348592281342
1783003210548301600,4.424301513671875,-0.14152517914772034,-1.1843055486679077,0.6453550457954407
1783003210558352400,4.434352294921875,-0.3359218239784241,-1.529820442199707,0.7959930300712585
1783003210568404500,4.444404541015625,-0.5008878707885742,-1.3386272192001343,0.7140856385231018
1783003210578455600,4.45445556640625,-0.6098758578300476,-0.6969833374023438,0.4170238673686981
1783003210588507400,4.46450732421875,-0.6293968558311462,0.11151400953531265,0.01666259951889515
1783003210598558500,4.474558349609375,-0.6187231540679932,0.8958727121353149,-0.37653210759162903
1783003210608610300,4.4846103515625,-0.5569633841514587,1.516839623451233,-0.6112455129623413
1783003210618661400,4.494661376953125,-0.43861836194992065,1.8554836511611938,-0.6723904013633728
1783003210628713700,4.504713623046875,-0.26853638887405396,1.881468653678894,-0.6051080226898193
1783003210638765600,4.514765625,-0.04092586040496826,1.6495758295059204,-0.44819483160972595
1783003210648816600,4.524816650390625,0.17481201887130737,1.2150131464004517,-0.22086021304130554
1783003210658868500,4.534868408203125,0.35459190607070923,0.6688555479049683,0.08031667768955231
1783003210668919600,4.54491943359375,0.48091015219688416,0.06555850058794022,0.4173133373260498
1783003210678971600,4.5549716796875,0.5111197233200073,-0.5374128818511963,0.7543598413467407
1783003210689022500,4.5650224609375,0.4658734202384949,-1.0139626264572144,1.058133840560913
1783003210699074600,4.575074462890625,0.35930943489074707,-1.233069658279419,1.294627070426941
1783003210709125600,4.585125732421875,0.23069898784160614,-1.2145694494247437,1.434281587600708
1783003210719178500,4.595178466796875,0.1296703815460205,-0.9699573516845703,1.4574474096298218
1783003210729229600,4.6052294921875,0.1035037562251091,-0.5676562190055847,1.406564474105835
1783003210739281400,4.615281494140625,0.1284160315990448,-0.2111055850982666,1.3184503316879272
1783003210749332500,4.62533251953125,0.15756432712078094,0.03832315281033516,1.2342172861099243
1783003210759384300,4.63538427734375,0.14521019160747528,0.1055152416229248,1.1640956401824951
1783003210769435400,4.645435302734375,0.07687294483184814,-0.0356389544904232,1.0817989110946655
1783003210779487500,4.655487548828125,-0.04692010581493378,-0.30600041151046753,0.9375733137130737
1783003210789538300,4.665538330078125,-0.2213486284017563,-0.6150503754615784,0.7194622755050659
1783003210799590400,4.67559033203125,-0.45169928669929504,-0.8153350353240967,0.45136478543281555
1783003210809641500,4.685641357421875,-0.7313924431800842,-1.0219497680664062,0.1363874077796936
1783003210819693300,4.695693359375,-0.9928067326545715,-1.2015745639801025,-0.14277739822864532
1783003210829744400,4.705744384765625,-1.1114611625671387,-1.2700961828231812,-0.3900926411151886
1783003210839796200,4.715796142578125,-1.0221550464630127,-1.1871246099472046,-0.5481064915657043
1783003210849847300,4.725847412109375,-0.7667557597160339,-1.166564702987671,-0.46320840716362
1783003210859899400,4.7358994140625,-0.35282251238822937,-0.9240383505821228,-0.15839150547981262
1783003210869950200,4.7459501953125,0.006021939683705568,-0.8788362145423889,0.21350295841693878
1783003210880002300,4.756002197265625,0.06677529960870743,-1.3756768703460693,0.4717954993247986
1783003210890053400,4.766053466796875,-0.12977103888988495,-1.2305748462677002,0.5680607557296753
1783003210900105200,4.776105224609375,-0.20313474535942078,-0.600058913230896,0.4949024021625519
1783003210910156300,4.78615625,0.15604792535305023,0.1639423370361328,0.21339216828346252
1783003210920208400,4.79620849609375,0.48896223306655884,0.5425386428833008,-0.10823113471269608
1783003210930259200,4.80625927734375,0.7935197353363037,0.041682999581098557,-0.20167426764965057
1783003210940311600,4.8163115234375,0.7201619148254395,-1.4139233827590942,-0.5099931955337524
1783003210950362400,4.8263623046875,0.30551543831825256,-2.5334739685058594,-1.1244462728500366
1783003210960414500,4.83641455078125,-0.23052561283111572,-2.506331443786621,-1.902834415435791
1783003210970465500,4.846465576171875,-0.5957608222961426,-1.3649406433105469,-2.573930025100708
1783003210980517400,4.856517333984375,-0.8571170568466187,0.07088828831911087,-2.8226609230041504
1783003210990568400,4.866568359375,-0.9179884195327759,1.1873586177825928,-2.6153998374938965
1783003211000620300,4.876620361328125,-0.7575377821922302,1.9724247455596924,-2.059126377105713
1783003211010671400,4.88667138671875,-0.580849289894104,2.0918567180633545,-1.5342977046966553
1783003211020723500,4.896723388671875,-0.5653954744338989,1.4352291822433472,-1.1906044483184814
1783003211030775300,4.906775390625,-0.560760498046875,0.19935332238674164,-0.8953483700752258
1783003211040826400,4.916826416015625,-0.3610391616821289,-1.0906819105148315,-0.5600747466087341
1783003211050878200,4.926878173828125,-0.10043419897556305,-1.933915138244629,-0.2128819078207016
1783003211060929300,4.93692919921875,0.044228445738554,-2.1966018676757812,0.10920292139053345
1783003211070981400,4.9469814453125,0.02737063728272915,-1.8884522914886475,0.09452970325946808
1783003211081032200,4.9570322265625,-0.27251434326171875,-0.43123820424079895,-0.21085791289806366
1783003211091084300,4.967084228515625,-0.8248925805091858,1.5330758094787598,-0.8756611943244934
1783003211101135400,4.97713525390625,-1.524918556213379,2.7724881172180176,-1.705041766166687
1783003211111187200,4.987187255859375,-2.279761791229248,2.6024692058563232,-2.1982421875
1783003211121238300,4.99723828125,-2.8487017154693604,1.1546896696090698,-2.0939671993255615
1783003211131290400,5.007290283203125,-3.041212797164917,-0.6712268590927124,-1.3583897352218628
1783003211141341400,5.017341552734375,-2.6326942443847656,-2.1852128505706787,0.023432355374097824
1783003211151393500,5.0273935546875,-1.7823612689971924,-3.157092571258545,1.4526177644729614
1783003211161444400,5.0374443359375,-0.8381974697113037,-2.7525384426116943,1.9949712753295898
1783003211171496400,5.047496337890625,-0.1116732656955719,-1.2475626468658447,2.0103371143341064
1783003211181547500,5.057547607421875,0.1673985868692398,0.550737738609314,1.6913912296295166
1783003211191599400,5.067599365234375,0.04668015241622925,2.1128311157226562,1.231481671333313
1783003211201650400,5.077650390625,-0.2504623234272003,2.9813010692596436,0.5946378111839294
1783003211211702300,5.087702392578125,-0.5965248942375183,3.2665727138519287,0.07579249888658524
1783003211221753300,5.09775341796875,-0.9570063948631287,2.876897096633911,-0.16511093080043793
1783003211231805400,5.107805419921875,-1.3485107421875,2.0894813537597656,-0.26724448800086975
1783003211241856300,5.117856201171875,-1.6252765655517578,1.3115301132202148,-0.254445344209671
1783003211251908400,5.127908447265625,-1.6171525716781616,0.7519091963768005,-0.11262162029743195
1783003211261959400,5.13795947265625,-1.0440350770950317,0.8701063990592957,0.34960487484931946
1783003211272011300,5.14801123046875,-0.18921759724617004,1.5341943502426147,1.0018186569213867
1783003211282062300,5.158062255859375,0.41698363423347473,1.9228770732879639,1.564592957496643
1783003211292114200,5.1681142578125,0.6358203887939453,1.809037685394287,1.8074262142181396
1783003211302165200,5.178165283203125,0.6328592300415039,1.5296286344528198,1.7751680612564087
1783003211312217300,5.18821728515625,0.4448690712451935,1.2121537923812866,1.6013175249099731
1783003211322268200,5.19826806640625,0.08414656668901443,0.9882943034172058,1.2864543199539185
1783003211332320500,5.208320556640625,-0.32826468348503113,0.9566026329994202,0.9117803573608398
1783003211342371300,5.218371337890625,-0.6458613276481628,1.1381293535232544,0.6800221800804138
1783003211352423400,5.22842333984375,-0.7143106460571289,1.321770191192627,0.6248212456703186
1783003211362474500,5.238474609375,-0.509880542755127,1.28729248046875,0.7408046126365662
1783003211372526300,5.2485263671875,-0.08874505013227463,1.0524154901504517,1.050534725189209
1783003211382577400,5.258577392578125,0.3698233366012573,0.795663595199585,1.5231289863586426
1783003211392629500,5.26862939453125,0.7790193557739258,0.8082275986671448,2.0826737880706787
1783003211402680300,5.278680419921875,0.9663482308387756,0.9063735604286194,2.548295736312866
1783003211412732400,5.288732421875,0.9877075552940369,0.8450686931610107,3.018596649169922
1783003211422783500,5.298783447265625,0.9881722927093506,0.013263873755931854,2.7112011909484863
1783003211432835300,5.30883544921875,1.0165008306503296,0.1739579439163208,1.8720344305038452
1783003211442887400,5.318887451171875,0.8703764081001282,0.7856650352478027,1.2126197814941406
1783003211452938200,5.328938232421875,0.6872047185897827,1.4268524646759033,1.039398193359375
1783003211462990300,5.338990234375,0.7415292263031006,1.5401332378387451,1.1782243251800537
1783003211473041400,5.34904150390625,0.8275906443595886,0.9886642098426819,1.2671866416931152
1783003211483093200,5.35909326171875,0.8143762946128845,-0.09318800270557404,1.12458336353302
1783003211493144300,5.369144287109375,0.8992629647254944,-1.112337350845337,0.6970872282981873
1783003211503196200,5.379196044921875,0.9794123768806458,-1.7925233840942383,0.06976869702339172
1783003211513247200,5.389247314453125,0.880469799041748,-1.8754364252090454,-0.33531540632247925
