time,seconds_elapsed,z,y,x
1783003206204793300,0.08079345703125,0.13428153097629547,-0.2792525887489319,0.23223449289798737
1783003206214845400,0.090845458984375,0.1606065183877945,-0.3571203351020813,0.36532124876976013
1783003206224896500,0.100896484375,0.19795335829257965,-0.4482358694076538,0.47012701630592346
1783003206234948400,0.1109482421875,0.22699284553527832,-0.5737696886062622,0.5985388159751892
1783003206244999400,0.12099951171875,0.24617986381053925,-0.6386299133300781,0.7598168849945068
1783003206255051300,0.13105126953125,0.22878755629062653,-0.6647694110870361,0.9588671326637268
1783003206265103400,0.141103271484375,0.14653262495994568,-0.6070573329925537,1.1841505765914917
1783003206275154400,0.151154541015625,-0.004523886367678642,-0.4422682225704193,1.4132776260375977
1783003206285206300,0.161206298828125,-0.2048117220401764,-0.18607693910598755,1.6181538105010986
1783003206295257300,0.17125732421875,-0.46950551867485046,0.018843848258256912,1.6477742195129395
1783003206305309200,0.18130908203125,-0.7285932302474976,0.11620502173900604,1.469659447669983
1783003206315360300,0.1913603515625,-0.9279271960258484,0.11409901827573776,1.1785038709640503
1783003206325412400,0.201412353515625,-0.992429256439209,0.029500242322683334,0.8210166692733765
1783003206335463200,0.211463134765625,-0.9621208906173706,-0.0003457751590758562,0.3696439266204834
1783003206345515300,0.221515380859375,-0.8489626049995422,0.015325330197811127,-0.13048385083675385
1783003206355566300,0.23156640625,-0.6723737120628357,0.01442006416618824,-0.5929227471351624
1783003206365618200,0.2416181640625,-0.44413653016090393,-0.09484144300222397,-0.9641652703285217
1783003206375669200,0.251669189453125,-0.17836520075798035,-0.36515477299690247,-1.2079906463623047
1783003206385721300,0.261721435546875,0.09885414689779282,-0.7992417812347412,-1.2679407596588135
1783003206395772400,0.2717724609375,0.4659881293773651,-1.0152338743209839,-1.0426712036132812
1783003206405824500,0.281824462890625,0.8397504687309265,-0.8587478995323181,-0.5657296776771545
1783003206415875300,0.291875244140625,1.0831632614135742,-0.8520333170890808,0.053001150488853455
1783003206425927400,0.301927490234375,1.2506047487258911,-0.641086220741272,0.5548237562179565
1783003206435978500,0.311978515625,1.3737783432006836,-0.06525606662034988,0.8640369176864624
1783003206446030300,0.3220302734375,1.4395304918289185,0.8188217878341675,0.8729446530342102
1783003206456081400,0.332081298828125,1.495743751525879,1.745552897453308,0.6908825635910034
1783003206466133200,0.34213330078125,1.5823941230773926,2.489561080932617,0.42208653688430786
1783003206476184300,0.352184326171875,1.5807956457138062,2.761181354522705,0.026043951511383057
1783003206486236400,0.362236328125,1.3127738237380981,1.0057766437530518,-0.8541070818901062
1783003206496287200,0.372287353515625,0.7798367738723755,-1.069311499595642,-1.8716472387313843
1783003206506339300,0.38233935546875,0.40070122480392456,-1.2184218168258667,-1.5913777351379395
1783003206516390400,0.392390380859375,-0.020305372774600983,-0.3929530382156372,-0.5801935791969299
1783003206526442200,0.402442138671875,-0.03918425366282463,0.36357882618904114,0.4385976791381836
1783003206536493300,0.412493408203125,0.39320701360702515,0.7564689517021179,1.312690019607544
1783003206546545200,0.422545166015625,0.9626068472862244,0.9271981120109558,2.0250635147094727
1783003206556596200,0.43259619140625,1.4523646831512451,0.9835580587387085,2.585315227508545
1783003206566648300,0.4426484375,1.6329251527786255,0.8928300738334656,2.746875047683716
1783003206576699100,0.45269921875,1.519831895828247,0.7395519614219666,2.3768677711486816
1783003206586751200,0.462751220703125,1.2376694679260254,0.6411036849021912,1.4563806056976318
1783003206596802300,0.47280224609375,0.8028270602226257,0.8341307044029236,0.1530919224023819
1783003206606854400,0.4828544921875,0.2914378345012665,1.2836304903030396,-1.3043479919433594
1783003206616905500,0.492905517578125,-0.08054789155721664,1.9880207777023315,-2.5998694896698
1783003206626957300,0.502957275390625,-0.28489330410957336,2.5535080432891846,-3.5795671939849854
1783003206637008400,0.51300830078125,-0.2904790937900543,2.7420973777770996,-4.217222690582275
1783003206647060500,0.523060546875,-0.025661006569862366,2.3715174198150635,-4.503757953643799
1783003206657111300,0.533111328125,0.5083268880844116,1.4217448234558105,-4.452388286590576
1783003206667163400,0.543163330078125,1.2025872468948364,0.3504272699356079,-4.047506809234619
1783003206677214500,0.55321435546875,1.9623825550079346,-0.6110224723815918,-3.327806234359741
1783003206687266300,0.563266357421875,2.6343185901641846,-1.370182752609253,-2.474576473236084
1783003206697318400,0.573318359375,3.141521692276001,-1.942966103553772,-1.6379016637802124
1783003206707369200,0.583369140625,3.377244234085083,-2.281740665435791,-0.9278339147567749
1783003206717417500,0.59341748046875,3.36441707611084,-2.36613130569458,-0.37981393933296204
1783003206727468500,0.603468505859375,3.1356723308563232,-2.3151209354400635,-0.07772146165370941
1783003206737520600,0.613520751953125,2.6872358322143555,-2.2662715911865234,0.027461612597107887
1783003206747571700,0.62357177734375,2.0798184871673584,-2.3107876777648926,0.020176004618406296
1783003206757623600,0.63362353515625,1.4478868246078491,-2.477978467941284,-0.06345630437135696
1783003206767674600,0.643674560546875,0.9859521985054016,-2.692972183227539,-0.09267197549343109
1783003206777726700,0.653726806640625,0.8092328310012817,-2.8324081897735596,0.008524784818291664
1783003206787777500,0.663777587890625,0.7952722311019897,-2.7679569721221924,0.1524776965379715
1783003206797829600,0.67382958984375,0.8568325638771057,-2.51401686668396,0.28766652941703796
1783003206807880700,0.683880615234375,0.9163323640823364,-2.123403310775757,0.3599787950515747
1783003206817932500,0.6939326171875,0.9383561015129089,-1.603845477104187,0.3483316898345947
1783003206827983600,0.703983642578125,0.9055249094963074,-1.0052621364593506,0.26287272572517395
1783003206838035500,0.714035400390625,0.7693700194358826,-0.4436979293823242,0.11550720036029816
1783003206848086500,0.72408642578125,0.550547182559967,0.0464419424533844,-0.03616967797279358
1783003206858138600,0.734138671875,0.2805553674697876,0.4571056663990021,-0.1758580058813095
1783003206868189700,0.744189697265625,-0.03255090117454529,0.7498855590820312,-0.2689719498157501
1783003206878241500,0.754241455078125,-0.3377056121826172,0.8922473788261414,-0.28326353430747986
1783003206888292600,0.764292724609375,-0.5859042406082153,0.8750715851783752,-0.19364097714424133
1783003206898344400,0.774344482421875,-0.7527032494544983,0.8100820779800415,0.06210077926516533
1783003206908395500,0.7843955078125,-0.8366508483886719,0.7148157358169556,0.4568172097206116
1783003206918447600,0.794447509765625,-0.8345993161201477,0.5159707069396973,0.8820040822029114
1783003206928498400,0.80449853515625,-0.7800926566123962,0.23712041974067688,1.2439665794372559
1783003206938550500,0.814550537109375,-0.7173925042152405,-0.02151726372539997,1.5373693704605103
1783003206948601600,0.8246015625,-0.6440748572349548,-0.3011939227581024,1.732254981994629
1783003206958653700,0.83465380859375,-0.6156895756721497,-0.5835853815078735,1.8126170635223389
1783003206968704800,0.844704833984375,-0.6657314300537109,-0.8551812171936035,1.8153319358825684
1783003206978756600,0.854756591796875,-0.8156929612159729,-0.9631646871566772,1.7196202278137207
1783003206988807700,0.8648076171875,-1.048437476158142,-0.8825835585594177,1.463620662689209
1783003206998859500,0.874859619140625,-1.318985104560852,-0.5886198282241821,1.0371606349945068
1783003207008910600,0.88491064453125,-1.544910192489624,-0.09036557376384735,0.5205832719802856
1783003207018962700,0.894962646484375,-1.718337059020996,0.5654997229576111,0.12461978197097778
1783003207029013800,0.905013671875,-1.811046838760376,1.126116394996643,0.017877619713544846
1783003207039065600,0.915065673828125,-1.7805935144424438,1.453148603439331,0.17201100289821625
1783003207049116700,0.92511669921875,-1.6216670274734497,1.5189281702041626,0.5021534562110901
1783003207059168500,0.93516845703125,-1.4186254739761353,1.4129379987716675,0.8461452722549438
1783003207069220600,0.945220703125,-1.3483997583389282,1.3222086429595947,1.107195258140564
1783003207079271700,0.955271728515625,-1.447285532951355,1.2263827323913574,1.1202894449234009
1783003207089322500,0.965322509765625,-1.5581470727920532,0.9752184152603149,0.7469522356987
1783003207099374600,0.97537451171875,-1.5453697443008423,0.7330095171928406,0.14101926982402802
1783003207109426400,0.985426513671875,-1.322095274925232,0.7541001439094543,-0.32082316279411316
1783003207119477500,0.9954775390625,-0.9282188415527344,1.0430543422698975,-0.4516700208187103
1783003207129529600,1.005529541015625,-0.43461874127388,1.2053563594818115,-0.3157619833946228
1783003207139580400,1.015580322265625,0.14290626347064972,1.039331078529358,0.010207992978394032
1783003207149632800,1.0256328125,0.6756593585014343,0.3582679331302643,0.1832820326089859
1783003207159683600,1.03568359375,1.0586739778518677,-0.6384687423706055,0.15708552300930023
1783003207169735700,1.045735595703125,1.3026773929595947,-1.5813672542572021,0.03389248624444008
1783003207179786800,1.055786865234375,1.480177402496338,-2.1310386657714844,-0.16280575096607208
1783003207189838600,1.065838623046875,1.6405447721481323,-2.1523473262786865,-0.4622092545032501
1783003207199889700,1.0758896484375,1.7299237251281738,-1.7512210607528687,-0.8795924186706543
1783003207209941500,1.08594140625,1.693972110748291,-0.9555450081825256,-1.241788387298584
1783003207219992600,1.09599267578125,1.5527821779251099,0.05614997819066048,-1.486918330192566
1783003207230044700,1.106044677734375,1.2935657501220703,0.8741298317909241,-1.6491048336029053
1783003207240095500,1.116095458984375,0.9671698212623596,1.3540666103363037,-1.694178819656372
1783003207250147600,1.126147705078125,0.6026195883750916,1.445397138595581,-1.5480983257293701
1783003207260198700,1.13619873046875,0.27608823776245117,1.2078819274902344,-1.235708236694336
1783003207270250500,1.14625048828125,0.030892569571733475,0.6741295456886292,-0.8339880108833313
1783003207280301600,1.156301513671875,-0.18174828588962555,-0.05453670397400856,-0.38488104939460754
1783003207290353700,1.166353759765625,-0.3184853494167328,-0.6696544885635376,0.04754520207643509
1783003207300404500,1.176404541015625,-0.39994150400161743,-1.0376958847045898,0.36907508969306946
1783003207310456600,1.18645654296875,-0.4164147675037384,-1.1846691370010376,0.5127813816070557
1783003207320507600,1.196507568359375,-0.4015858471393585,-1.202097773551941,0.5071889162063599
1783003207330559500,1.2065595703125,-0.3541743755340576,-1.0854837894439697,0.3897254168987274
1783003207340610600,1.216610595703125,-0.2793513834476471,-0.9397236108779907,0.21686729788780212
1783003207350662400,1.226662353515625,-0.14886073768138885,-0.7934785485267639,0.06984136253595352
1783003207360713500,1.23671337890625,0.062124572694301605,-0.7201442718505859,-0.027076834812760353
1783003207370765600,1.246765625,0.29470083117485046,-0.6875269412994385,-0.08364211022853851
1783003207380816600,1.256816650390625,0.43782058358192444,-0.6143574714660645,-0.1347038298845291
1783003207390868700,1.26686865234375,0.4393678605556488,-0.4398235082626343,-0.18773429095745087
1783003207400919600,1.27691943359375,0.352186918258667,-0.2024725377559662,-0.27484074234962463
1783003207410971600,1.2869716796875,0.2243133932352066,0.1677161604166031,-0.38431236147880554
1783003207421022700,1.297022705078125,0.0721871480345726,0.6984776258468628,-0.47066646814346313
1783003207431074600,1.307074462890625,-0.10465846210718155,1.1924651861190796,-0.49690791964530945
1783003207441125600,1.317125732421875,-0.28167107701301575,1.4241359233856201,-0.4576326012611389
1783003207451177500,1.327177490234375,-0.4610048830509186,1.430317759513855,-0.34038665890693665
1783003207461228500,1.337228515625,-0.6320679187774658,1.124668002128601,-0.18123453855514526
1783003207471280600,1.34728076171875,-0.8009541034698486,0.5173423886299133,-0.00251352833583951
1783003207481332500,1.35733251953125,-0.9132202863693237,-0.22700756788253784,0.24658940732479095
1783003207491383600,1.367383544921875,-0.9274035096168518,-0.6515964269638062,0.5167210102081299
1783003207501434600,1.3774345703125,-0.824996292591095,-0.82327800989151,0.6118676662445068
1783003207511486500,1.387486572265625,-0.6400046348571777,-0.9040037393569946,0.4808047115802765
1783003207521538600,1.39753857421875,-0.4258395731449127,-0.8128781318664551,0.27903276681900024
1783003207531589600,1.407589599609375,-0.2922820448875427,-0.4607924818992615,0.08432584255933762
1783003207541641500,1.417641357421875,-0.3158440589904785,0.2150849848985672,-0.1083144024014473
1783003207551692500,1.427692626953125,-0.5165985226631165,1.0743099451065063,-0.23722338676452637
1783003207561744600,1.43774462890625,-0.8705774545669556,1.7167415618896484,-0.286345511674881
1783003207571795700,1.447795654296875,-1.2264071702957153,2.1744651794433594,-0.11773333698511124
1783003207581847600,1.45784765625,-1.349695086479187,2.3210394382476807,0.1632116436958313
1783003207591898600,1.467898681640625,-1.1923859119415283,1.8793680667877197,0.381927490234375
1783003207601950700,1.47795068359375,-0.8140900135040283,1.0853289365768433,0.5944015979766846
1783003207612001500,1.48800146484375,-0.2945254147052765,-0.07088880985975266,0.7017732858657837
1783003207622053600,1.4980537109375,0.19516852498054504,-1.2968904972076416,0.7345936298370361
1783003207632104700,1.508104736328125,0.4524410665035248,-1.9594930410385132,0.6772403120994568
1783003207642156500,1.518156494140625,0.5167228579521179,-1.7007684707641602,0.5474368929862976
1783003207652207600,1.52820751953125,0.5571685433387756,-0.6856542825698853,0.49479201436042786
1783003207662259500,1.538259521484375,0.6946164965629578,0.38195762038230896,0.5027072429656982
1783003207672310500,1.548310546875,0.9491859078407288,1.0291415452957153,0.46646592020988464
1783003207682362600,1.558362548828125,1.1243747472763062,1.2953286170959473,0.33704155683517456
1783003207692413700,1.56841357421875,1.258160948753357,1.2211084365844727,0.021106243133544922
1783003207702465500,1.578465576171875,1.4096086025238037,0.8638246655464172,-0.4198128283023834
1783003207712516600,1.5885166015625,1.4786763191223145,0.469338595867157,-0.7620458006858826
1783003207722568400,1.598568359375,1.3652974367141724,0.1433873176574707,-0.8925283551216125
1783003207732619500,1.60861962890625,1.079124093055725,-0.03692759573459625,-0.9237821698188782
1783003207742671600,1.618671630859375,0.7105525135993958,-0.157037153840065,-1.0088996887207031
1783003207752722400,1.628722412109375,0.34225788712501526,-0.060823794454336166,-1.1771656274795532
1783003207762774500,1.6387744140625,0.01712745614349842,0.1738044172525406,-1.3916106224060059
1783003207772825600,1.64882568359375,-0.28871023654937744,0.3446246087551117,-1.6000759601593018
1783003207782877400,1.65887744140625,-0.5938456058502197,0.3124389350414276,-1.6662421226501465
1783003207792928500,1.668928466796875,-0.7702329158782959,0.20336143672466278,-1.4660983085632324
1783003207802980400,1.67898046875,-0.7354034781455994,0.06774000078439713,-1.0687458515167236
1783003207813031400,1.689031494140625,-0.5373697280883789,-0.03718295320868492,-0.6266303658485413
1783003207823083500,1.69908349609375,-0.25724613666534424,-0.10457152873277664,-0.1930764764547348
1783003207833134300,1.70913427734375,0.02918536774814129,-0.2079695463180542,0.16078759729862213
1783003207843186400,1.7191865234375,0.29749467968940735,-0.3296150863170624,0.3850882351398468
1783003207853237500,1.729237548828125,0.5434906482696533,-0.45832592248916626,0.4768732786178589
1783003207863289300,1.739289306640625,0.7300031185150146,-0.6315268278121948,0.48529666662216187
1783003207873340400,1.74934033203125,0.7808021306991577,-0.8102195858955383,0.4899049997329712
1783003207883392500,1.759392578125,0.6536718606948853,-0.9216908812522888,0.5220374464988708
1783003207893443300,1.769443359375,0.4244152903556824,-1.0274808406829834,0.5578284859657288
1783003207903495400,1.779495361328125,0.18570341169834137,-1.0251259803771973,0.5421048402786255
1783003207913547500,1.789547607421875,-0.05454433709383011,-0.827313244342804,0.4647669196128845
1783003207923598600,1.7995986328125,-0.2719287574291229,-0.46560385823249817,0.32309532165527344
1783003207933650400,1.809650390625,-0.42694416642189026,0.012206919491291046,0.16472673416137695
1783003207943701500,1.819701416015625,-0.5241089463233948,0.4725986123085022,0.014455406926572323
1783003207953753300,1.82975341796875,-0.5935205221176147,0.7184073328971863,-0.1118633821606636
1783003207963804400,1.839804443359375,-0.6320824027061462,0.7067409753799438,-0.14560352265834808
1783003207973856500,1.8498564453125,-0.6723070740699768,0.4378759264945984,-0.04371897131204605
1783003207983907600,1.859907470703125,-0.747374951839447,-0.0821046456694603,0.18436959385871887
1783003207993959400,1.86995947265625,-0.8722452521324158,-0.6501095294952393,0.5017611384391785
1783003208004010500,1.880010498046875,-1.0076457262039185,-1.113570213317871,0.8789896965026855
1783003208014062300,1.890062255859375,-1.082833170890808,-1.2919026613235474,1.1893044710159302
1783003208024113400,1.900113525390625,-1.0303984880447388,-1.1669795513153076,1.3820569515228271
1783003208034165500,1.91016552734375,-0.8813251852989197,-0.8282164931297302,1.3873831033706665
1783003208044216300,1.92021630859375,-0.685293436050415,-0.3842107355594635,1.2481821775436401
1783003208054268400,1.930268310546875,-0.45614439249038696,0.027289999648928642,1.025303602218628
1783003208064319500,1.940319580078125,-0.26202112436294556,0.20158787071704865,0.7688729763031006
1783003208074371600,1.95037158203125,-0.1848118156194687,0.07928726077079773,0.6376504898071289
1783003208084422400,1.96042236328125,-0.2660977840423584,-0.18180757761001587,0.6953060030937195
1783003208094474500,1.970474609375,-0.4595423638820648,-0.3427506685256958,0.8756225109100342
1783003208104525600,1.980525634765625,-0.7035601139068604,-0.16015759110450745,1.1694749593734741
1783003208114577400,1.990577392578125,-0.8181378245353699,0.2588908076286316,1.5331668853759766
1783003208124628500,2.00062841796875,-0.6582350730895996,0.5437745451927185,1.7091337442398071
1783003208134680600,2.0106806640625,-0.25980302691459656,0.38574573397636414,1.599095344543457
1783003208144731600,2.020731689453125,0.18455424904823303,-0.22098098695278168,1.2299926280975342
1783003208154783500,2.030783447265625,0.47588595747947693,-0.9515579342842102,0.7659991979598999
1783003208164834600,2.04083447265625,0.6018128395080566,-1.2869110107421875,0.3484368622303009
1783003208174886400,2.050886474609375,0.680763304233551,-1.0730940103530884,-0.015347741544246674
1783003208184937500,2.0609375,0.827526330947876,-0.36908021569252014,-0.30784109234809875
1783003208194989600,2.070989501953125,1.0335935354232788,0.4336130619049072,-0.548139750957489
1783003208205040400,2.081040283203125,1.2355595827102661,1.0993906259536743,-0.699065625667572
1783003208215092500,2.091092529296875,1.347213625907898,1.4829838275909424,-0.8508474230766296
1783003208225143600,2.1011435546875,1.3005205392837524,1.5254815816879272,-1.0381145477294922
1783003208235195400,2.1111953125,1.0988608598709106,1.4261558055877686,-1.1841485500335693
1783003208245246500,2.12124658203125,0.8220871090888977,1.3323523998260498,-1.2127124071121216
1783003208255298300,2.13129833984375,0.5951820015907288,1.137609601020813,-1.167759895324707
1783003208265349400,2.141349365234375,0.4433673918247223,0.7996659278869629,-1.141929030418396
1783003208275401500,2.1514013671875,0.3379477560520172,0.39212456345558167,-1.2155297994613647
1783003208285452300,2.161452392578125,0.21051600575447083,0.05115794762969017,-1.3447656631469727
1783003208295504600,2.171504638671875,0.04680882766842842,-0.12243381887674332,-1.4286794662475586
1783003208305556500,2.181556396484375,-0.11523700505495071,-0.06540334224700928,-1.4336243867874146
1783003208315607600,2.191607666015625,-0.23843802511692047,0.22856277227401733,-1.4100182056427002
1783003208325659400,2.201659423828125,-0.3470377027988434,0.6093050837516785,-1.357611894607544
1783003208335710500,2.21171044921875,-0.4560296833515167,0.9558185338973999,-1.2667310237884521
1783003208345762600,2.221762451171875,-0.5691167116165161,1.2142581939697266,-1.156951904296875
1783003208355813400,2.2318134765625,-0.6588852405548096,1.362329363822937,-1.02843177318573
1783003208365865500,2.241865478515625,-0.7217108607292175,1.4179747104644775,-0.9077866673469543
1783003208375916500,2.25191650390625,-0.7677598595619202,1.308407187461853,-0.7993398308753967
1783003208385968400,2.261968505859375,-0.8069978952407837,1.0821324586868286,-0.6986794471740723
1783003208396019500,2.27201953125,-0.8144661784172058,0.796364426612854,-0.5824745893478394
1783003208406071600,2.282071533203125,-0.791846752166748,0.4761737585067749,-0.46871647238731384
1783003208416122400,2.292122314453125,-0.7341871857643127,0.11894611269235611,-0.3616965413093567
1783003208426174500,2.302174560546875,-0.6199389100074768,-0.18189308047294617,-0.29977646470069885
1783003208436225500,2.3122255859375,-0.4463103711605072,-0.3888300061225891,-0.2956184446811676
1783003208446277400,2.32227734375,-0.2632681131362915,-0.5620667934417725,-0.29791927337646484
1783003208456328400,2.332328369140625,-0.07766203582286835,-0.6095948815345764,-0.2908563017845154
1783003208466380300,2.34238037109375,0.07203121483325958,-0.5621005296707153,-0.23385128378868103
1783003208476431400,2.352431396484375,0.18274015188217163,-0.5278746485710144,-0.15072017908096313
1783003208486483500,2.3624833984375,0.25481081008911133,-0.5718838572502136,-0.08446218818426132
1783003208496534300,2.3725341796875,0.2771930694580078,-0.6028150916099548,-0.048204053193330765
1783003208506586600,2.382586669921875,0.26767095923423767,-0.5824570655822754,-0.046741485595703125
1783003208516637400,2.392637451171875,0.20766939222812653,-0.5466735363006592,-0.07514382898807526
1783003208526689500,2.402689453125,0.08443084359169006,-0.45724114775657654,-0.07709573209285736
1783003208536740600,2.41274072265625,-0.056127067655324936,-0.30553391575813293,-0.029347117990255356
1783003208546792400,2.42279248046875,-0.19684255123138428,-0.19586928188800812,0.06517518311738968
1783003208556843500,2.432843505859375,-0.3095341920852661,-0.14274375140666962,0.18445922434329987
1783003208566895400,2.442895263671875,-0.36767134070396423,-0.10228761285543442,0.3460719883441925
1783003208576946400,2.452946533203125,-0.3620387613773346,-0.11297887563705444,0.4898397922515869
1783003208586998500,2.46299853515625,-0.29984232783317566,-0.2056853175163269,0.6110098958015442
1783003208597049600,2.473049560546875,-0.20505906641483307,-0.3926762640476227,0.6587968468666077
1783003208607101400,2.483101318359375,-0.12022076547145844,-0.533958375453949,0.6530471444129944
1783003208617152500,2.493152587890625,-0.05476932227611542,-0.40873682498931885,0.6814524531364441
1783003208627204400,2.503204345703125,-0.06772308051586151,-0.11296708136796951,0.7206038236618042
1783003208637255400,2.51325537109375,-0.1443888247013092,0.13140778243541718,0.7160295844078064
1783003208647307500,2.5233076171875,-0.15043695271015167,0.3051215708255768,0.7395967245101929
1783003208657358300,2.5333583984375,0.029258515685796738,0.32453653216362,0.8004541993141174
1783003208667410400,2.543410400390625,0.3357763886451721,0.05498819798231125,0.9522901177406311
1783003208677462500,2.553462646484375,0.6471222639083862,-0.27320563793182373,1.2096375226974487
1783003208687513300,2.563513427734375,0.8327677845954895,-0.6715693473815918,1.4407811164855957
1783003208697565400,2.5735654296875,0.8049175143241882,-1.2847778797149658,1.47705078125
1783003208707616500,2.583616455078125,0.6219650506973267,-2.0295588970184326,1.3800078630447388
1783003208717669000,2.593669189453125,0.41923269629478455,-2.3995771408081055,1.2356843948364258
1783003208727720000,2.603719970703125,0.27542102336883545,-2.0519354343414307,1.0051095485687256
1783003208737772000,2.61377197265625,0.24970845878124237,-1.0854954719543457,0.7822389006614685
1783003208747823000,2.623822998046875,0.25907790660858154,-0.1396159827709198,0.5847252607345581
1783003208757875000,2.633875,0.2412850558757782,0.3949403762817383,0.33431968092918396
1783003208767926000,2.643926025390625,0.21826936304569244,0.6215654015541077,0.0318894237279892
1783003208777977900,2.653977783203125,0.17039692401885986,0.60884028673172,-0.25604647397994995
1783003208788029000,2.66402880859375,0.13679972290992737,0.3462953269481659,-0.5519651770591736
1783003208798081000,2.6740810546875,0.15446500480175018,-0.09887389093637466,-0.803351640701294
1783003208808131800,2.6841318359375,0.23106592893600464,-0.6353356242179871,-0.9850122332572937
1783003208818184000,2.694183837890625,0.3141363263130188,-1.081686019897461,-1.039088249206543
1783003208828235000,2.704235107421875,0.301121324300766,-1.2892111539840698,-0.9434940814971924
1783003208838287000,2.714287109375,0.15523043274879456,-1.2495529651641846,-0.8050068020820618
1783003208848338000,2.724337890625,-0.07020848989486694,-1.0207122564315796,-0.7088331580162048
1783003208858390000,2.73439013671875,-0.3167703449726105,-0.6982154250144958,-0.693063497543335
1783003208868441000,2.744441162109375,-0.5240210890769958,-0.37002548575401306,-0.7477975487709045
1783003208878493200,2.7544931640625,-0.649544894695282,-0.1529214084148407,-0.8478639721870422
1783003208888544000,2.7645439453125,-0.6920987367630005,-0.11840390413999557,-0.9520410299301147
1783003208898596000,2.77459619140625,-0.6690245866775513,-0.2826221287250519,-0.9997084140777588
1783003208908647200,2.784647216796875,-0.5933289527893066,-0.532532274723053,-0.9723162651062012
1783003208918699000,2.794698974609375,-0.48669540882110596,-0.7796738743782043,-0.8836635947227478
1783003208928750000,2.80475,-0.3610345125198364,-0.9489853382110596,-0.7488361597061157
1783003208938802000,2.814802001953125,-0.23847050964832306,-0.9500340819358826,-0.5551055669784546
1783003208948853000,2.82485302734375,-0.12429850548505783,-0.8267735838890076,-0.3180590271949768
1783003208958905000,2.834905029296875,-0.04040360823273659,-0.6043288111686707,-0.07413796335458755
1783003208968956000,2.844955810546875,-0.00832473486661911,-0.3673916459083557,0.15600328147411346
1783003208979008000,2.855008056640625,-0.053428295999765396,-0.18014398217201233,0.38196638226509094
1783003208989059000,2.86505908203125,-0.1608353853225708,-0.09132255613803864,0.5246472358703613
1783003208999111000,2.87511083984375,-0.29886969923973083,-0.0780634731054306,0.5839923024177551
1783003209009162000,2.885161865234375,-0.4551188349723816,-0.07105731964111328,0.607711136341095
1783003209019213800,2.8952138671875,-0.5922596454620361,-0.07088074833154678,0.6094866394996643
1783003209029265000,2.905264892578125,-0.7017858028411865,-0.10870036482810974,0.6082720160484314
1783003209039317000,2.91531689453125,-0.7811650633811951,-0.16729630529880524,0.5800155997276306
1783003209049369000,2.925369140625,-0.8202275633811951,-0.20428358018398285,0.5185211300849915
1783003209059420200,2.935420166015625,-0.8060188293457031,-0.1713740974664688,0.41352787613868713
1783003209069472000,2.945471923828125,-0.7739927172660828,-0.07862470299005508,0.29243358969688416
1783003209079523000,2.955523193359375,-0.7326737642288208,0.1042415201663971,0.23044584691524506
1783003209089575200,2.9655751953125,-0.694954514503479,0.275112509727478,0.2273012399673462
1783003209099626000,2.9756259765625,-0.6686049103736877,0.3381090462207794,0.2708508372306824
1783003209109678000,2.985677978515625,-0.6413987278938293,0.2410292774438858,0.3651749789714813
1783003209119729200,2.995729248046875,-0.5656355619430542,0.05120261386036873,0.5469114780426025
1783003209129781000,3.005781005859375,-0.4911610186100006,-0.10822170227766037,0.6019274592399597
1783003209139832000,3.01583203125,-0.4532890021800995,-0.17341534793376923,0.5192858576774597
1783003209149884000,3.0258837890625,-0.4365280866622925,-0.10722093284130096,0.3407288193702698
1783003209159935000,3.03593505859375,-0.43453550338745117,-0.00044788094237446785,0.13566088676452637
1783003209169987000,3.045987060546875,-0.43824276328086853,0.19822274148464203,0.016927240416407585
1783003209180038000,3.056037841796875,-0.44420957565307617,0.5438432693481445,0.20609183609485626
1783003209190090000,3.066090087890625,-0.5300631523132324,0.9160596132278442,0.7816765308380127
1783003209200141000,3.07614111328125,-0.6911678910255432,0.9254775643348694,1.5921387672424316
1783003209210193000,3.08619287109375,-0.9294990301132202,0.36708417534828186,2.3580052852630615
1783003209220244000,3.096243896484375,-1.4123256206512451,-0.8394271731376648,2.8968026638031006
1783003209230295800,3.1062958984375,-2.1090774536132812,-2.4835219383239746,3.0978000164031982
1783003209240347000,3.116346923828125,-2.617563486099243,-3.6569740772247314,2.820082426071167
1783003209250399200,3.126399169921875,-2.6813740730285645,-3.62296462059021,2.16957950592041
1783003209260449800,3.13644970703125,-2.2880303859710693,-2.683159351348877,1.617059350013733
1783003209270502100,3.146502197265625,-1.4704874753952026,-1.3487075567245483,1.4751240015029907
1783003209280553200,3.15655322265625,-0.5205023288726807,-0.27656230330467224,1.7391071319580078
1783003209290605000,3.16660498046875,0.08510664850473404,-0.07053543627262115,2.0398287773132324
1783003209300656000,3.17665625,0.21362867951393127,-0.6225562691688538,1.9968258142471313
1783003209310708000,3.1867080078125,0.12496202439069748,-1.324795126914978,1.5835546255111694
1783003209320759000,3.196759033203125,0.1832229346036911,-1.7158037424087524,0.9591924548149109
1783003209330811100,3.20681103515625,0.49771177768707275,-1.7372667789459229,0.25451982021331787
1783003209340862000,3.216862060546875,0.891883909702301,-1.345579743385315,-0.35506895184516907
1783003209350914000,3.2269140625,1.1819145679473877,-0.7344704270362854,-0.8746998310089111
1783003209360965000,3.236965087890625,1.3135117292404175,-0.026841089129447937,-1.3830426931381226
1783003209371017000,3.247016845703125,1.2824804782867432,0.6357837915420532,-1.8181402683258057
1783003209381068000,3.257068115234375,1.104145884513855,0.9801177382469177,-2.060631513595581
1783003209391120000,3.267119873046875,0.8766619563102722,0.9112318158149719,-2.0732123851776123
1783003209401172000,3.277171875,0.7181673645973206,0.5779246687889099,-1.8985732793807983
1783003209411223000,3.28722314453125,0.650477945804596,0.17033012211322784,-1.5945848226547241
1783003209421275000,3.29727490234375,0.6235834956169128,-0.14309890568256378,-1.129704475402832
1783003209431326000,3.307325927734375,0.6338402628898621,-0.25572729110717773,-0.6880156993865967
1783003209441378000,3.3173779296875,0.6818575859069824,-0.1672472357749939,-0.41216328740119934
1783003209451428900,3.327428955078125,0.7533872127532959,0.05797305703163147,-0.29990237951278687
1783003209461481200,3.337481201171875,0.8345667719841003,0.393230140209198,-0.3183594048023224
1783003209471532000,3.347531982421875,0.8525863885879517,0.8204710483551025,-0.4311787784099579
1783003209481584000,3.357584228515625,0.7782546281814575,1.1525592803955078,-0.5743423104286194
1783003209491635200,3.36763525390625,0.5472162365913391,1.268553614616394,-0.6901152729988098
1783003209501687000,3.37768701171875,0.2320774495601654,1.1818206310272217,-0.7223925590515137
1783003209511738000,3.387738037109375,-0.050762735307216644,0.9615119099617004,-0.7128767371177673
1783003209521790000,3.3977900390625,-0.2549491822719574,0.730372965335846,-0.7125981450080872
1783003209531841000,3.407841064453125,-0.3586137592792511,0.5822218656539917,-0.7058890461921692
1783003209541893000,3.41789306640625,-0.37872806191444397,0.5895652174949646,-0.7228544354438782
1783003209551944000,3.42794384765625,-0.3332446813583374,0.7269890308380127,-0.7078830003738403
1783003209561996000,3.43799609375,-0.24479684233665466,0.9328609704971313,-0.6126547455787659
1783003209572047000,3.448047119140625,-0.14468933641910553,1.0882740020751953,-0.47812071442604065
1783003209582099000,3.458098876953125,-0.07536644488573074,1.1212644577026367,-0.3622572124004364
1783003209592150000,3.46814990234375,-0.031656987965106964,1.0709779262542725,-0.2646523714065552
1783003209602201900,3.478201904296875,0.01981845311820507,0.9607976675033569,-0.1349707990884781
1783003209612253000,3.4882529296875,0.08264654129743576,0.7782168388366699,0.02505076304078102
1783003209622305000,3.498304931640625,0.09703373908996582,0.6431517004966736,0.15064117312431335
1783003209632355800,3.50835595703125,0.056552156805992126,0.4952468276023865,0.2070474773645401
1783003209642408000,3.518407958984375,-0.03998050466179848,0.3847528100013733,0.2248070240020752
1783003209652459000,3.528458984375,-0.15972605347633362,0.42935383319854736,0.2851067781448364
1783003209662511000,3.538510986328125,-0.2104233205318451,0.6760812997817993,0.3519044518470764
1783003209672562200,3.548562255859375,-0.14987148344516754,0.9048989415168762,0.3255578279495239
1783003209682614000,3.558614013671875,-0.02276785857975483,0.8491067886352539,0.2896416187286377
1783003209692665000,3.5686650390625,0.1622156798839569,0.5694547891616821,0.24383492767810822
1783003209702717200,3.57871728515625,0.30551663041114807,0.3153444826602936,0.17227526009082794
1783003209712767500,3.588767578125,0.355527400970459,0.2690286636352539,0.07311908155679703
1783003209722819600,3.598819580078125,0.2895853817462921,0.5153851509094238,-0.31084296107292175
1783003209732870700,3.60887060546875,-0.011335423216223717,1.0826820135116577,-0.8843391537666321
1783003209742922500,3.618922607421875,-0.3763093948364258,2.0901944637298584,-1.258228063583374
1783003209752974600,3.628974609375,-0.6159637570381165,3.34104061126709,-1.6114163398742676
1783003209763025400,3.639025390625,-0.8628419637680054,4.406734466552734,-1.7296435832977295
1783003209773077500,3.649077392578125,-0.9605117440223694,4.634401321411133,-1.4316619634628296
1783003209783128600,3.659128662109375,-0.9567487239837646,3.7868635654449463,-1.185907006263733
1783003209793180400,3.669180419921875,-0.985124945640564,2.435122013092041,-1.3021777868270874
1783003209803231500,3.6792314453125,-0.8905693888664246,1.2858607769012451,-1.6336404085159302
1783003209813283300,3.689283447265625,-0.7313781976699829,0.86907559633255,-1.550433874130249
1783003209823334400,3.69933447265625,-0.5283979177474976,1.2595511674880981,-0.5412731766700745
1783003209833386500,3.709386474609375,-0.23443442583084106,1.9610211849212646,0.8160802721977234
1783003209843437300,3.719437255859375,0.1827673316001892,2.213775634765625,1.6723169088363647
1783003209853489400,3.729489501953125,0.40517088770866394,1.8368780612945557,1.8363429307937622
1783003209863540500,3.73954052734375,0.18014174699783325,0.9856053590774536,1.3735755681991577
1783003209873592600,3.749592529296875,0.12102487683296204,0.3573622405529022,0.9182518124580383
1783003209883643400,3.759643310546875,0.12704548239707947,-0.3779754042625427,0.7916951775550842
1783003209893695500,3.769695556640625,0.006429503671824932,-1.2867196798324585,0.7865025997161865
1783003209903746600,3.77974658203125,-0.25445428490638733,-2.0995662212371826,0.5364475250244141
1783003209913798700,3.789798583984375,-0.6131020784378052,-2.5441815853118896,-0.17279759049415588
1783003209923849500,3.799849365234375,-0.9160246849060059,-2.25168776512146,-1.036736011505127
1783003209933901600,3.809901611328125,-1.0801610946655273,-1.4784308671951294,-1.7152587175369263
1783003209943952600,3.81995263671875,-1.0855624675750732,-0.48431840538978577,-2.049877166748047
1783003209954004500,3.83000439453125,-0.9655836820602417,0.31759506464004517,-2.076765537261963
1783003209964055600,3.8400556640625,-0.7911453247070312,0.7825331687927246,-1.8973766565322876
1783003209974107400,3.850107421875,-0.6302047371864319,0.8538990616798401,-1.5972282886505127
1783003209984158500,3.860158447265625,-0.47895342111587524,0.6433607339859009,-1.271492838859558
1783003209994210600,3.87021044921875,-0.3754420578479767,0.2859872579574585,-0.9562826156616211
1783003210004261400,3.880261474609375,-0.27386245131492615,-0.20254673063755035,-0.6721528768539429
1783003210014313500,3.8903134765625,-0.05882923677563667,-0.7940992116928101,-0.43069958686828613
1783003210024364500,3.900364501953125,0.10708117485046387,-1.3595916032791138,-0.3018209636211395
1783003210034416400,3.91041650390625,0.08039849251508713,-1.764173984527588,-0.3189753293991089
1783003210044467500,3.920467529296875,-0.08160106092691422,-1.9221516847610474,-0.43203023076057434
1783003210054519300,3.930519287109375,-0.2144412249326706,-1.792069911956787,-0.5788782835006714
1783003210064570400,3.9405703125,-0.2263985425233841,-1.4368318319320679,-0.7173024415969849
1783003210074622500,3.95062255859375,-0.08455818891525269,-0.9921969771385193,-0.797246515750885
1783003210084673300,3.96067333984375,0.17095479369163513,-0.5367410182952881,-0.7802368998527527
1783003210094725600,3.9707255859375,0.4822186827659607,-0.22374610602855682,-0.6150782108306885
1783003210104777500,3.980777587890625,0.7421575784683228,-0.16480423510074615,-0.37278518080711365
1783003210114828500,3.99082861328125,0.9369465112686157,-0.33572888374328613,-0.04993293434381485
1783003210124880600,4.000880615234375,1.0534694194793701,-0.7087735533714294,0.3350677490234375
1783003210134931500,4.010931396484375,1.1178011894226074,-1.1020430326461792,0.7440569400787354
1783003210144983600,4.020983642578125,1.1490858793258667,-1.424618124961853,1.1040539741516113
1783003210155034600,4.03103466796875,1.1872234344482422,-1.6328285932540894,1.4734212160110474
1783003210165086500,4.04108642578125,1.2530229091644287,-1.7246805429458618,1.88283109664917
1783003210175137500,4.051137451171875,1.135263442993164,-1.6375426054000854,2.0424211025238037
1783003210185189400,4.061189453125,0.8566747903823853,-1.4624794721603394,1.785353183746338
1783003210195240400,4.071240478515625,0.6146289706230164,-1.1806031465530396,1.2596027851104736
1783003210205292500,4.08129248046875,0.3820311725139618,-0.7222398519515991,0.715467095375061
1783003210215343400,4.09134326171875,0.11068815737962723,-0.32859089970588684,0.22316130995750427
1783003210225395500,4.1013955078125,-0.14333267509937286,-0.23190565407276154,-0.19228196144104004
1783003210235446500,4.111446533203125,-0.3220001757144928,-0.3964482843875885,-0.4114741384983063
1783003210245498400,4.121498291015625,-0.38923993706703186,-0.5785639882087708,-0.49826547503471375
1783003210255549400,4.131549560546875,-0.34713202714920044,-0.6327804327011108,-0.49154186248779297
1783003210265601300,4.141601318359375,-0.20910678803920746,-0.6337724924087524,-0.41805726289749146
1783003210275652400,4.15165234375,-0.008967011235654354,-0.5897126793861389,-0.17102329432964325
1783003210285704700,4.16170458984375,0.24237440526485443,-0.528663694858551,0.241379976272583
1783003210295755300,4.17175537109375,0.49644339084625244,-0.6675035357475281,0.5913905501365662
1783003210305807600,4.1818076171875,0.6878935098648071,-0.6852119565010071,0.7429090142250061
1783003210315858700,4.191858642578125,0.7927283644676208,-0.4563974440097809,0.7211899757385254
1783003210325910500,4.20191064453125,0.8394279479980469,-0.1445772647857666,0.6147533059120178
1783003210335961600,4.211961669921875,0.8134832382202148,-0.09969719499349594,0.3172767162322998
1783003210346013400,4.222013427734375,0.6048511862754822,-0.2829277515411377,-0.25862041115760803
1783003210356064500,4.232064453125,0.1983618289232254,-0.5045459866523743,-0.9429441094398499
1783003210366116600,4.24211669921875,-0.3428114056587219,-0.5015302300453186,-1.320142149925232
1783003210376167400,4.25216748046875,-0.8089346885681152,-0.11537636071443558,-1.1012320518493652
1783003210386219500,4.262219482421875,-0.9336132407188416,0.4385153353214264,-0.34908217191696167
1783003210396270600,4.2722705078125,-0.6144771575927734,0.8019628524780273,0.4986096918582916
1783003210406322400,4.282322509765625,-0.06757651269435883,0.8641332983970642,0.9906175136566162
1783003210416373500,4.29237353515625,0.4595170021057129,0.8603544235229492,1.0306637287139893
1783003210426425300,4.30242529296875,0.8450929522514343,0.9069080352783203,0.8441884517669678
1783003210436477400,4.3124775390625,1.0992950201034546,0.8447802066802979,0.6138836145401001
1783003210446528500,4.322528564453125,1.2900713682174683,0.6937004327774048,0.3012785315513611
1783003210456580400,4.332580322265625,1.4459000825881958,0.4799635410308838,-0.0564919114112854
1783003210466631400,4.34263134765625,1.503108024597168,0.26099950075149536,-0.4642234444618225
1783003210476683500,4.35268359375,1.5191818475723267,0.27403414249420166,-0.788392186164856
1783003210486734300,4.362734375,1.5187815427780151,0.6333925724029541,-0.9983997344970703
1783003210496786700,4.37278662109375,1.4820001125335693,1.1498171091079712,-1.159055471420288
1783003210506837500,4.38283740234375,1.3325352668762207,1.483293056488037,-1.1735622882843018
1783003210516889600,4.3928896484375,1.0006362199783325,1.3382607698440552,-0.9364500641822815
1783003210526940700,4.402940673828125,0.5532246828079224,0.6998514533042908,-0.45030999183654785
1783003210536992500,4.412992431640625,0.15810982882976532,-0.2507542669773102,0.13928137719631195
1783003210547043600,4.423043701171875,-0.11141619086265564,-1.1084634065628052,0.5957194566726685
1783003210557095400,4.433095458984375,-0.3079335689544678,-1.5173906087875366,0.7824419736862183
1783003210567146500,4.443146484375,-0.47673243284225464,-1.3926055431365967,0.7289353609085083
1783003210577198600,4.453198486328125,-0.5953404903411865,-0.7958128452301025,0.4549303352832794
1783003210587249400,4.46324951171875,-0.6254091858863831,0.004198376089334488,0.061703432351350784
1783003210597301500,4.473301513671875,-0.6167929172515869,0.8005430698394775,-0.34119704365730286
1783003210607352600,4.4833525390625,-0.5627038478851318,1.4483356475830078,-0.6017223596572876
1783003210617404400,4.493404296875,-0.45189422369003296,1.8279253244400024,-0.6805914640426636
1783003210627455500,4.50345556640625,-0.29065048694610596,1.8894459009170532,-0.6261720657348633
1783003210637507300,4.51350732421875,-0.06672019511461258,1.6874672174453735,-0.48009711503982544
1783003210647558400,4.523558349609375,0.1551211178302765,1.273488163948059,-0.2634314000606537
1783003210657610500,4.533610595703125,0.3401651084423065,0.7331154942512512,0.03276890516281128
1783003210667661300,4.543661376953125,0.4722522795200348,0.13722868263721466,0.3675200045108795
1783003210677713400,4.55371337890625,0.5196192860603333,-0.46895554661750793,0.7055560946464539
1783003210687764500,4.563764404296875,0.4795272648334503,-0.9704554677009583,1.016440510749817
1783003210697816600,4.573816650390625,0.3795139193534851,-1.2244694232940674,1.2612009048461914
1783003210707867600,4.58386767578125,0.25220656394958496,-1.232444167137146,1.4137440919876099
1783003210717920300,4.593920166015625,0.14222599565982819,-1.0152820348739624,1.4549100399017334
1783003210727971300,4.603971435546875,0.10864326357841492,-0.6235533952713013,1.4086309671401978
1783003210738023200,4.614023193359375,0.12836596369743347,-0.2524589002132416,1.3213740587234497
1783003210748074200,4.62407421875,0.16045518219470978,0.011587658897042274,1.2336375713348389
1783003210758126300,4.634126220703125,0.15564106404781342,0.10460041463375092,1.1634875535964966
1783003210768177200,4.64417724609375,0.09384746849536896,-0.015483650378882885,1.084180474281311
1783003210778229200,4.654229248046875,-0.022857997566461563,-0.27274805307388306,0.9495639204978943
1783003210788280300,4.6642802734375,-0.19042488932609558,-0.585209846496582,0.741574764251709
1783003210798332400,4.67433251953125,-0.41700753569602966,-0.7959558367729187,0.47979381680488586
1783003210808384500,4.684384521484375,-0.6929674744606018,-0.9996322393417358,0.16660957038402557
1783003210818435300,4.694435302734375,-0.9583157896995544,-1.1899054050445557,-0.11683843284845352
1783003210828487400,4.7044873046875,-1.10337495803833,-1.2766504287719727,-0.36905232071876526
1783003210838538500,4.71453857421875,-1.0395019054412842,-1.2044748067855835,-0.5385208129882812
1783003210848590300,4.72459033203125,-0.8024879693984985,-1.1693077087402344,-0.5141605734825134
1783003210858641400,4.734641357421875,-0.4057164192199707,-0.9679995179176331,-0.21337051689624786
1783003210868693200,4.744693359375,-0.024697989225387573,-0.8535014390945435,0.16365958750247955
1783003210878744300,4.754744384765625,0.0843491181731224,-1.3283705711364746,0.43758925795555115
1783003210888796400,4.76479638671875,-0.09041443467140198,-1.307273268699646,0.555992066860199
1783003210898847200,4.77484716796875,-0.22946469485759735,-0.6832906007766724,0.5004388689994812
1783003210908899300,4.7848994140625,0.12136788666248322,0.07373105734586716,0.25763416290283203
1783003210918950400,4.794950439453125,0.44713178277015686,0.5174257159233093,-0.09798279404640198
1783003210929002200,4.805002197265625,0.7783493995666504,0.1754782497882843,-0.19478124380111694
1783003210939053300,4.81505322265625,0.7528631687164307,-1.2286014556884766,-0.4602060317993164
1783003210949105200,4.825105224609375,0.37711986899375916,-2.450119972229004,-1.0424164533615112
1783003210959156200,4.83515625,-0.16889159381389618,-2.5859439373016357,-1.8139880895614624
1783003210969208300,4.845208251953125,-0.5521976947784424,-1.548844575881958,-2.515564441680908
1783003210979259100,4.855259033203125,-0.8289303183555603,-0.09887240827083588,-2.8260207176208496
1783003210989311500,4.8653115234375,-0.918100118637085,1.0582804679870605,-2.670893430709839
1783003210999362300,4.8753623046875,-0.7808364629745483,1.8979229927062988,-2.1448028087615967
1783003211009414400,4.885414306640625,-0.5906841158866882,2.1161017417907715,-1.5979018211364746
1783003211019465500,4.895465576171875,-0.5569371581077576,1.5536597967147827,-1.2336809635162354
1783003211029517300,4.905517333984375,-0.5665764212608337,0.3632664680480957,-0.9432970881462097
1783003211039568400,4.915568359375,-0.3916294276714325,-0.9502106308937073,-0.612024188041687
1783003211049620500,4.925620361328125,-0.12317827343940735,-1.8689628839492798,-0.2660854756832123
1783003211059671300,4.93567138671875,0.03585154190659523,-2.197265625,0.07520861178636551
1783003211069723400,4.945723388671875,0.05027655512094498,-1.9791252613067627,0.10747760534286499
1783003211079774500,4.9557744140625,-0.21384082734584808,-0.6778944134712219,-0.16143371164798737
1783003211089826300,4.965826416015625,-0.7431830167770386,1.3054225444793701,-0.7812631726264954
1783003211099877400,4.97587744140625,-1.427837610244751,2.6826012134552,-1.6164674758911133
1783003211109929200,4.98592919921875,-2.1854848861694336,2.702915668487549,-2.1792612075805664
1783003211119980300,4.995980224609375,-2.792494535446167,1.3757479190826416,-2.1488499641418457
1783003211130032400,5.006032470703125,-3.040501356124878,-0.46327176690101624,-1.4955263137817383
1783003211140083200,5.016083251953125,-2.71168851852417,-2.0136873722076416,-0.18904735147953033
1783003211150135300,5.02613525390625,-1.8947436809539795,-3.099330186843872,1.3075644969940186
1783003211160186400,5.036186279296875,-0.9461284875869751,-2.889106035232544,1.9611400365829468
1783003211170238200,5.04623828125,-0.17581714689731598,-1.468785285949707,2.0171501636505127
1783003211180289300,5.056289306640625,0.16180801391601562,0.323987752199173,1.734211802482605
1783003211190341000,5.066341064453125,0.08105725049972534,1.9481444358825684,1.2907429933547974
1783003211200392200,5.07639208984375,-0.20361986756324768,2.9028735160827637,0.6664488911628723
1783003211210444500,5.086444580078125,-0.5474686026573181,3.262625217437744,0.11507925391197205
1783003211220496400,5.096496337890625,-0.9041672945022583,2.9542713165283203,-0.1551351696252823
1783003211230547500,5.10654736328125,-1.2983605861663818,2.185450792312622,-0.26629072427749634
1783003211240599300,5.116599365234375,-1.5971455574035645,1.402590274810791,-0.269410103559494
1783003211250650400,5.126650390625,-1.6378165483474731,0.7854564785957336,-0.15385288000106812
1783003211260702500,5.136702392578125,-1.1424199342727661,0.8128114938735962,0.26133406162261963
1783003211270753300,5.146753173828125,-0.28653672337532043,1.4394779205322266,0.9105650782585144
1783003211280805400,5.156805419921875,0.36834800243377686,1.9023196697235107,1.5012707710266113
1783003211290856400,5.1668564453125,0.6287143230438232,1.8345606327056885,1.785813570022583
1783003211300908300,5.176908203125,0.6456955671310425,1.5617029666900635,1.780631184577942
1783003211310959400,5.18695947265625,0.4863589406013489,1.2488102912902832,1.622374415397644
1783003211321011200,5.19701123046875,0.13803888857364655,1.0016686916351318,1.3239526748657227
1783003211331062300,5.207062255859375,-0.2745974063873291,0.9447566270828247,0.9481569528579712
1783003211341114400,5.2171142578125,-0.6126174330711365,1.1051301956176758,0.6893059611320496
1783003211351165200,5.227165283203125,-0.7174897789955139,1.3035095930099487,0.6144288182258606
1783003211361217300,5.23721728515625,-0.5455015897750854,1.3008631467819214,0.707352340221405
1783003211371268400,5.247268310546875,-0.14085398614406586,1.083685278892517,0.9958096742630005
1783003211381320200,5.2573203125,0.3164716958999634,0.811447024345398,1.446629285812378
1783003211391371300,5.267371337890625,0.7421860098838806,0.790596067905426,2.00368070602417
1783003211401423400,5.27742333984375,0.9581839442253113,0.8920775651931763,2.494596004486084
1783003211411474200,5.28747412109375,1.0078063011169434,0.8881161212921143,2.9313106536865234
1783003211421526500,5.297526611328125,0.9774513244628906,0.09014284610748291,2.7986128330230713
1783003211431577300,5.307577392578125,1.0273269414901733,0.09954673796892166,1.9665637016296387
1783003211441629400,5.31762939453125,0.9005142450332642,0.695909857749939,1.2621779441833496
1783003211451680500,5.327680419921875,0.7057633996009827,1.3587517738342285,1.0289318561553955
1783003211461732400,5.337732421875,0.7292128205299377,1.5595104694366455,1.1512092351913452
1783003211471783400,5.347783447265625,0.8291836380958557,1.0922468900680542,1.257611870765686
1783003211481835300,5.357835205078125,0.8171461224555969,0.04557637870311737,1.1534897089004517
1783003211491886300,5.36788623046875,0.8897819519042969,-1.0008933544158936,0.7553532123565674
1783003211501938400,5.3779384765625,0.9803221225738525,-1.7456141710281372,0.13924089074134827
1783003211511989200,5.3879892578125,0.8928263783454895,-1.909914493560791,-0.30969348549842834
1783003211522041300,5.398041259765625,0.9564076662063599,-1.259880542755127,-0.5538054704666138
