time,seconds_elapsed,z,y,x
1783002482932929000,0.065928955078125,-1.0112457275390625,-0.0313873291015625,-0.0343170166015625
1783002482942981000,0.075981201171875,-1.02490234375,-0.0317840576171875,-0.03021240234375
1783002482953033000,0.086032958984375,-1.035614013671875,-0.031097412109375,-0.035186767578125
1783002482963085000,0.0960849609375,-1.034759521484375,-0.0251617431640625,-0.03887939453125
1783002482973137200,0.10613720703125,-1.0242156982421875,-0.0186004638671875,-0.045196533203125
1783002482983188200,0.116188232421875,-1.0161285400390625,-0.01495361328125,-0.045623779296875
1783002482993240000,0.126239990234375,-1.01348876953125,-0.0115509033203125,-0.0437774658203125
1783002483003291600,0.136291748046875,-1.0197296142578125,-0.006744384765625,-0.0435333251953125
1783002483013343500,0.146343505859375,-1.015838623046875,-0.0069427490234375,-0.0408172607421875
1783002483023395600,0.1563955078125,-1.0120849609375,-0.00738525390625,-0.0389556884765625
1783002483033447400,0.166447509765625,-1.0194091796875,-0.0100250244140625,-0.04742431640625
1783002483043499500,0.17649951171875,-1.0083160400390625,-0.018798828125,-0.052886962890625
1783002483053551400,0.18655126953125,-0.9947357177734375,-0.02728271484375,-0.0626220703125
1783002483063602400,0.1966025390625,-0.9899444580078125,-0.03912353515625,-0.06964111328125
1783002483073654500,0.206654541015625,-0.97808837890625,-0.0556640625,-0.068084716796875
1783002483083706600,0.21670654296875,-0.976409912109375,-0.0718536376953125,-0.076141357421875
1783002483093758500,0.226758544921875,-0.9805755615234375,-0.081268310546875,-0.0867767333984375
1783002483103810600,0.236810546875,-0.97589111328125,-0.0880126953125,-0.093841552734375
1783002483113862400,0.2468623046875,-0.982757568359375,-0.094024658203125,-0.09295654296875
1783002483123914500,0.25691455078125,-0.9933013916015625,-0.098541259765625,-0.09478759765625
1783002483133966300,0.26696630859375,-0.99853515625,-0.093231201171875,-0.09375
1783002483144018400,0.277018310546875,-1.007171630859375,-0.0739288330078125,-0.0809478759765625
1783002483154069500,0.287069580078125,-1.01910400390625,-0.054046630859375,-0.071197509765625
1783002483164121300,0.297121337890625,-1.0229949951171875,-0.038055419921875,-0.073577880859375
1783002483174173700,0.307173583984375,-1.028076171875,-0.0293426513671875,-0.0640869140625
1783002483184225500,0.3172255859375,-1.020416259765625,-0.028564453125,-0.050384521484375
1783002483194277600,0.327277587890625,-1.012054443359375,-0.03594970703125,-0.04620361328125
1783002483204329500,0.33732958984375,-1.0083770751953125,-0.0400390625,-0.0412139892578125
1783002483214381600,0.347381591796875,-1.006866455078125,-0.0410308837890625,-0.04156494140625
1783002483224433400,0.357433349609375,-1.012542724609375,-0.0427703857421875,-0.049346923828125
1783002483234485500,0.367485595703125,-1.0059051513671875,-0.0421295166015625,-0.06494140625
1783002483244536300,0.377536376953125,-1.0037078857421875,-0.0386199951171875,-0.0716400146484375
1783002483254588700,0.387588623046875,-1.0021209716796875,-0.0414886474609375,-0.0699005126953125
1783002483264640500,0.397640625,-0.9996337890625,-0.0487518310546875,-0.0775299072265625
1783002483274692600,0.407692626953125,-0.9964447021484375,-0.04931640625,-0.080291748046875
1783002483284744400,0.417744384765625,-0.98980712890625,-0.048736572265625,-0.07086181640625
1783002483294796500,0.427796630859375,-0.9941864013671875,-0.0461578369140625,-0.06378173828125
1783002483304848400,0.437848388671875,-1.0004119873046875,-0.041107177734375,-0.0628204345703125
1783002483314900500,0.447900390625,-1.01025390625,-0.0359649658203125,-0.0667724609375
1783002483324952600,0.45795263671875,-1.0057220458984375,-0.032806396484375,-0.0698089599609375
1783002483335003600,0.468003662109375,-1.01202392578125,-0.0299835205078125,-0.0799407958984375
1783002483345055500,0.478055419921875,-1.0206756591796875,-0.035736083984375,-0.0798187255859375
1783002483355107600,0.488107666015625,-1.0171661376953125,-0.043365478515625,-0.06585693359375
1783002483365159400,0.498159423828125,-1.0159149169921875,-0.04071044921875,-0.054473876953125
1783002483375211500,0.50821142578125,-1.0097503662109375,-0.029815673828125,-0.0510711669921875
1783002483385263400,0.518263427734375,-1.0157928466796875,-0.022308349609375,-0.0521087646484375
1783002483395315500,0.5283154296875,-1.0196533203125,-0.0204620361328125,-0.05029296875
1783002483405367600,0.538367431640625,-1.0169830322265625,-0.0159912109375,-0.045318603515625
1783002483415419600,0.548419677734375,-1.0167388916015625,-0.0127410888671875,-0.0495452880859375
1783002483425470500,0.558470458984375,-1.0112152099609375,-0.0193634033203125,-0.0483551025390625
1783002483435522600,0.5685224609375,-1.0046844482421875,-0.0263519287109375,-0.0402374267578125
1783002483445574400,0.578574462890625,-0.9997406005859375,-0.028961181640625,-0.038482666015625
1783002483455626500,0.58862646484375,-0.9985809326171875,-0.034454345703125,-0.0435028076171875
1783002483465678300,0.59867822265625,-0.9970855712890625,-0.0391082763671875,-0.0481109619140625
1783002483475730400,0.60873046875,-0.9981536865234375,-0.0415496826171875,-0.0590057373046875
1783002483485782300,0.6187822265625,-1.000946044921875,-0.047943115234375,-0.05584716796875
1783002483495834600,0.628834716796875,-1.001068115234375,-0.049591064453125,-0.0494537353515625
1783002483505886500,0.638886474609375,-0.9987945556640625,-0.0424957275390625,-0.059112548828125
1783002483515937500,0.6489375,-1.00726318359375,-0.0380706787109375,-0.0615081787109375
1783002483525989600,0.65898974609375,-1.006866455078125,-0.0388031005859375,-0.0583343505859375
1783002483536041500,0.66904150390625,-1.00152587890625,-0.036651611328125,-0.053497314453125
1783002483546093600,0.679093505859375,-1.00048828125,-0.0360107421875,-0.046966552734375
1783002483556145400,0.6891455078125,-0.9940185546875,-0.0359954833984375,-0.048004150390625
1783002483566197500,0.699197509765625,-1.00091552734375,-0.0323944091796875,-0.0418853759765625
1783002483576249600,0.70924951171875,-1.013916015625,-0.03125,-0.030609130859375
1783002483586301400,0.719301513671875,-1.0160369873046875,-0.0289459228515625,-0.0443267822265625
1783002483596352500,0.7293525390625,-1.02197265625,-0.0252532958984375,-0.0620269775390625
1783002483606404600,0.739404541015625,-1.0215606689453125,-0.03765869140625,-0.057952880859375
1783002483616456400,0.74945654296875,-1.0116729736328125,-0.0513153076171875,-0.0534515380859375
1783002483626508500,0.759508544921875,-0.9990234375,-0.0498199462890625,-0.053070068359375
1783002483636560400,0.769560302734375,-0.9898529052734375,-0.0490264892578125,-0.0542449951171875
1783002483646612500,0.779612548828125,-0.990203857421875,-0.0480804443359375,-0.0535736083984375
1783002483656664600,0.78966455078125,-1.002960205078125,-0.041717529296875,-0.0460052490234375
1783002483666716700,0.799716552734375,-1.0083770751953125,-0.0380401611328125,-0.04302978515625
1783002483676768500,0.8097685546875,-1.0186614990234375,-0.0337371826171875,-0.0452880859375
1783002483686819600,0.819819580078125,-1.0218963623046875,-0.0356903076171875,-0.04730224609375
1783002483696871400,0.829871337890625,-1.0220794677734375,-0.0390472412109375,-0.0494537353515625
1783002483706923500,0.839923583984375,-1.0159149169921875,-0.0366668701171875,-0.0481719970703125
1783002483716975400,0.849975341796875,-1.0052032470703125,-0.0311431884765625,-0.053802490234375
1783002483727027500,0.86002734375,-0.996734619140625,-0.0275726318359375,-0.0596771240234375
1783002483737079300,0.870079345703125,-0.9934539794921875,-0.0250244140625,-0.0577850341796875
1783002483747131600,0.880131591796875,-1.0030670166015625,-0.023681640625,-0.0479888916015625
1783002483757183500,0.89018359375,-1.0053558349609375,-0.0251312255859375,-0.0432891845703125
1783002483767235600,0.900235595703125,-1.0147552490234375,-0.0272216796875,-0.0547943115234375
1783002483777286700,0.91028662109375,-1.0248260498046875,-0.036102294921875,-0.0640869140625
1783002483787338500,0.92033837890625,-1.0190582275390625,-0.0447845458984375,-0.060089111328125
1783002483797390300,0.930390380859375,-1.00732421875,-0.0454864501953125,-0.05718994140625
1783002483807442400,0.9404423828125,-0.9976959228515625,-0.0400848388671875,-0.0562744140625
1783002483817494300,0.950494384765625,-0.994110107421875,-0.0352325439453125,-0.0613250732421875
1783002483827546600,0.960546630859375,-0.99658203125,-0.0315093994140625,-0.0638275146484375
1783002483837598500,0.970598388671875,-1.0027618408203125,-0.029937744140625,-0.0542449951171875
1783002483847650600,0.980650634765625,-1.0097808837890625,-0.0319671630859375,-0.0466156005859375
1783002483857701600,0.99070166015625,-1.01202392578125,-0.0361328125,-0.054962158203125
1783002483867753500,1.00075341796875,-1.0177001953125,-0.039703369140625,-0.0615386962890625
1783002483877805600,1.0108056640625,-1.0200347900390625,-0.0397186279296875,-0.054443359375
1783002483887857400,1.020857421875,-1.014129638671875,-0.0362091064453125,-0.053009033203125
1783002483897909500,1.030909423828125,-1.00286865234375,-0.032501220703125,-0.064361572265625
1783002483907961600,1.040961669921875,-0.9996795654296875,-0.032135009765625,-0.0674896240234375
1783002483918013700,1.051013671875,-0.9973297119140625,-0.0387115478515625,-0.0588226318359375
1783002483928065500,1.0610654296875,-0.99884033203125,-0.0452880859375,-0.051727294921875
1783002483938117600,1.07111767578125,-1.001983642578125,-0.0402374267578125,-0.0474853515625
1783002483948168400,1.08116845703125,-1.009796142578125,-0.027862548828125,-0.0457000732421875
1783002483958220500,1.091220458984375,-1.0132598876953125,-0.0280303955078125,-0.0553741455078125
1783002483968272400,1.1012724609375,-1.00830078125,-0.02801513671875,-0.0615997314453125
1783002483978324500,1.111324462890625,-1.003692626953125,-0.029022216796875,-0.059814453125
1783002483988376600,1.12137646484375,-1.00091552734375,-0.032196044921875,-0.060882568359375
1783002483998428700,1.1314287109375,-1.0014190673828125,-0.035797119140625,-0.05975341796875
1783002484008481000,1.14148095703125,-0.9962921142578125,-0.0401611328125,-0.058685302734375
1783002484018532900,1.151532958984375,-0.996307373046875,-0.0408477783203125,-0.056396484375
1783002484028585000,1.1615849609375,-1.0020751953125,-0.0356292724609375,-0.0499420166015625
1783002484038636000,1.171635986328125,-1.000701904296875,-0.0327301025390625,-0.05303955078125
1783002484048687900,1.18168798828125,-1.007904052734375,-0.0282745361328125,-0.0660552978515625
1783002484058740000,1.191739990234375,-1.0134124755859375,-0.02874755859375,-0.0679779052734375
1783002484068792000,1.2017919921875,-1.009185791015625,-0.031402587890625,-0.060943603515625
1783002484078844200,1.21184423828125,-1.00836181640625,-0.031707763671875,-0.06939697265625
1783002484088896000,1.22189599609375,-0.99945068359375,-0.0310821533203125,-0.0701446533203125
1783002484098948000,1.231947998046875,-0.992523193359375,-0.02825927734375,-0.0631103515625
1783002484109000000,1.242,-0.991241455078125,-0.0295867919921875,-0.060638427734375
1783002484119052000,1.252052001953125,-0.998565673828125,-0.027435302734375,-0.0624542236328125
1783002484129102800,1.262102783203125,-1.0134735107421875,-0.019256591796875,-0.057098388671875
1783002484139155000,1.272155029296875,-1.0154571533203125,-0.0197296142578125,-0.05316162109375
1783002484149207000,1.28220703125,-1.0202789306640625,-0.0231475830078125,-0.0653228759765625
1783002484159259100,1.292259033203125,-1.0193634033203125,-0.032012939453125,-0.0662841796875
1783002484169311000,1.30231103515625,-1.004425048828125,-0.04315185546875,-0.06207275390625
1783002484179363000,1.312363037109375,-0.99298095703125,-0.04595947265625,-0.065032958984375
1783002484189415000,1.322414794921875,-0.9858245849609375,-0.041717529296875,-0.06500244140625
1783002484199467000,1.332467041015625,-0.978302001953125,-0.03387451171875,-0.0657806396484375
1783002484209518800,1.342518798828125,-0.9846038818359375,-0.0268402099609375,-0.056671142578125
1783002484219570000,1.35256982421875,-1.000244140625,-0.02716064453125,-0.0458831787109375
1783002484229621800,1.362621826171875,-1.0045928955078125,-0.028564453125,-0.03857421875
1783002484239674000,1.372674072265625,-1.0135650634765625,-0.023284912109375,-0.0401611328125
1783002484249726000,1.382725830078125,-1.016571044921875,-0.0204010009765625,-0.045440673828125
1783002484259778000,1.392778076171875,-1.01544189453125,-0.021820068359375,-0.0469818115234375
1783002484269830000,1.402829833984375,-1.0151824951171875,-0.02581787109375,-0.0471649169921875
1783002484279882000,1.412882080078125,-1.01055908203125,-0.02490234375,-0.0506591796875
1783002484289933800,1.422933837890625,-1.0065460205078125,-0.02117919921875,-0.0590362548828125
1783002484299985000,1.43298486328125,-1.009918212890625,-0.02569580078125,-0.05194091796875
1783002484310037000,1.443037109375,-1.0197906494140625,-0.033538818359375,-0.03802490234375
1783002484320089000,1.453089111328125,-1.0287322998046875,-0.0319671630859375,-0.0341644287109375
1783002484330141200,1.46314111328125,-1.0273284912109375,-0.029998779296875,-0.038116455078125
1783002484340193000,1.473193115234375,-1.018218994140625,-0.029815673828125,-0.042449951171875
1783002484350245000,1.4832451171875,-1.01763916015625,-0.0281219482421875,-0.0491790771484375
1783002484360297000,1.493296875,-1.0101165771484375,-0.0313720703125,-0.0538177490234375
1783002484370349000,1.50334912109375,-0.996368408203125,-0.03253173828125,-0.05712890625
1783002484380401000,1.51340087890625,-0.988983154296875,-0.029052734375,-0.0610198974609375
1783002484390452000,1.523451904296875,-0.9837188720703125,-0.0287322998046875,-0.058837890625
1783002484400504000,1.533504150390625,-0.9846343994140625,-0.02593994140625,-0.0509185791015625
1783002484410556200,1.54355615234375,-0.9951324462890625,-0.0176239013671875,-0.0415802001953125
1783002484420608000,1.55360791015625,-1.01739501953125,-0.013336181640625,-0.035552978515625
1783002484430660000,1.56366015625,-1.0207672119140625,-0.0075225830078125,-0.041534423828125
1783002484440712000,1.5737119140625,-1.0269927978515625,-0.0059814453125,-0.0542755126953125
1783002484450764000,1.583763916015625,-1.01995849609375,-0.0128021240234375,-0.0583953857421875
1783002484460816000,1.59381591796875,-1.011688232421875,-0.0199127197265625,-0.05810546875
1783002484470868200,1.6038681640625,-1.008087158203125,-0.0267181396484375,-0.0616607666015625
1783002484480918800,1.613918701171875,-1.0016021728515625,-0.0336151123046875,-0.0679931640625
1783002484490971100,1.62397119140625,-1.0007476806640625,-0.0385589599609375,-0.070037841796875
1783002484501023000,1.63402294921875,-1.0060577392578125,-0.037750244140625,-0.0584716796875
1783002484511075000,1.644074951171875,-1.00616455078125,-0.0318145751953125,-0.0514373779296875
1783002484521127000,1.654126953125,-1.0101318359375,-0.024749755859375,-0.054962158203125
1783002484531179000,1.664178955078125,-1.0139007568359375,-0.02581787109375,-0.0570526123046875
1783002484541230800,1.67423095703125,-1.011749267578125,-0.0283966064453125,-0.056793212890625
1783002484551283000,1.684282958984375,-1.0099029541015625,-0.03179931640625,-0.0599822998046875
1783002484561335000,1.6943349609375,-1.0051116943359375,-0.031494140625,-0.066131591796875
1783002484571386000,1.70438623046875,-0.99847412109375,-0.023834228515625,-0.070068359375
1783002484581438000,1.71443798828125,-0.996246337890625,-0.0202789306640625,-0.0678558349609375
1783002484591490000,1.724489990234375,-0.9949493408203125,-0.0183563232421875,-0.0631103515625
1783002484601542000,1.7345419921875,-1.005157470703125,-0.0115814208984375,-0.0546417236328125
1783002484611594000,1.744593994140625,-1.022918701171875,-0.015411376953125,-0.0454864501953125
1783002484621645800,1.754645751953125,-1.0178985595703125,-0.0234527587890625,-0.0423736572265625
1783002484631698000,1.764697998046875,-1.0157318115234375,-0.019775390625,-0.0533905029296875
1783002484641750000,1.77475,-1.0186309814453125,-0.02252197265625,-0.0616912841796875
1783002484651801000,1.784801025390625,-1.0048065185546875,-0.0295257568359375,-0.0533294677734375
1783002484661853200,1.794853271484375,-0.9967193603515625,-0.029388427734375,-0.055877685546875
1783002484671905000,1.804905029296875,-0.9917449951171875,-0.0279693603515625,-0.061187744140625
1783002484681957000,1.81495703125,-0.9934844970703125,-0.031097412109375,-0.0590667724609375
1783002484692009000,1.825009033203125,-0.996734619140625,-0.026397705078125,-0.0576171875
1783002484702061000,1.83506103515625,-0.9973907470703125,-0.024810791015625,-0.0571746826171875
1783002484712113000,1.84511279296875,-1.0012969970703125,-0.0273895263671875,-0.0601806640625
1783002484722165000,1.8551650390625,-1.0091400146484375,-0.0309600830078125,-0.0623779296875
1783002484732217000,1.865217041015625,-1.00592041015625,-0.0339202880859375,-0.06646728515625
1783002484742268200,1.87526806640625,-0.9966278076171875,-0.034515380859375,-0.06591796875
1783002484752320000,1.885320068359375,-0.9938507080078125,-0.0339202880859375,-0.0558624267578125
1783002484762372000,1.8953720703125,-0.9970245361328125,-0.03497314453125,-0.054534912109375
1783002484772424000,1.905423828125,-1.0024261474609375,-0.033050537109375,-0.0573577880859375
1783002484782476000,1.91547607421875,-1.009429931640625,-0.0270538330078125,-0.051361083984375
1783002484792528000,1.92552783203125,-1.028045654296875,-0.0251312255859375,-0.047393798828125
1783002484802580200,1.935580322265625,-1.027923583984375,-0.0231475830078125,-0.047119140625
1783002484812632000,1.945632080078125,-1.033966064453125,-0.0182037353515625,-0.05084228515625
1783002484822684200,1.95568408203125,-1.0350189208984375,-0.02117919921875,-0.0504302978515625
1783002484832735000,1.96573486328125,-1.0205535888671875,-0.0267181396484375,-0.047515869140625
1783002484842787000,1.975787109375,-1.0129547119140625,-0.026092529296875,-0.0549163818359375
1783002484852839000,1.9858388671875,-0.9993743896484375,-0.0274658203125,-0.0545196533203125
1783002484862891000,1.99589111328125,-0.9911956787109375,-0.031463623046875,-0.0460662841796875
1783002484872942800,2.00594287109375,-0.99298095703125,-0.0308074951171875,-0.045440673828125
1783002484882995000,2.015994873046875,-0.996734619140625,-0.026611328125,-0.0442352294921875
1783002484893047000,2.026047119140625,-1.004547119140625,-0.0245819091796875,-0.04351806640625
1783002484903099100,2.03609912109375,-1.006683349609375,-0.0251312255859375,-0.043975830078125
1783002484913151000,2.04615087890625,-1.0081787109375,-0.0235443115234375,-0.053985595703125
1783002484923202000,2.0562021484375,-1.0070648193359375,-0.024627685546875,-0.06072998046875
1783002484933254000,2.06625390625,-0.999267578125,-0.02764892578125,-0.0578765869140625
1783002484943306000,2.076305908203125,-0.995635986328125,-0.0299072265625,-0.053802490234375
1783002484953357800,2.08635791015625,-0.9932098388671875,-0.0319976806640625,-0.0539093017578125
1783002484963410000,2.096409912109375,-0.991363525390625,-0.0316619873046875,-0.0533294677734375
1783002484973462000,2.1064619140625,-0.9992523193359375,-0.0303802490234375,-0.046539306640625
1783002484983514000,2.11651416015625,-1.0045013427734375,-0.03106689453125,-0.0449981689453125
1783002484993566000,2.12656591796875,-1.00286865234375,-0.02813720703125,-0.05194091796875
1783002485003617300,2.1366171875,-1.011474609375,-0.0293731689453125,-0.071624755859375
1783002485013668400,2.14666845703125,-1.0052337646484375,-0.0393218994140625,-0.07696533203125
1783002485023720200,2.15672021484375,-1.0047149658203125,-0.05126953125,-0.0762481689453125
1783002485033772300,2.166772216796875,-1.00213623046875,-0.06097412109375,-0.0867156982421875
1783002485043824000,2.17682421875,-0.99041748046875,-0.0514984130859375,-0.077667236328125
1783002485053876200,2.186876220703125,-0.99566650390625,-0.0305328369140625,-0.0649871826171875
1783002485063928300,2.19692822265625,-1.0040740966796875,-0.0177154541015625,-0.063812255859375
1783002485073980400,2.20698046875,-1.0229949951171875,-0.0142974853515625,-0.0570526123046875
1783002485084032300,2.2170322265625,-1.0256195068359375,-0.008514404296875,-0.04620361328125
1783002485094084400,2.22708447265625,-1.0283966064453125,0.0050811767578125,-0.0422821044921875
1783002485104135200,2.23713525390625,-1.0290374755859375,0.0063629150390625,-0.03643798828125
1783002485114187300,2.247187255859375,-1.020904541015625,0.0016632080078125,-0.0304412841796875
1783002485124239000,2.257239013671875,-1.0254058837890625,-0.0002288818359375,-0.0270538330078125
1783002485134291200,2.267291259765625,-1.02459716796875,0.001983642578125,-0.030853271484375
1783002485144343000,2.277343017578125,-1.018035888671875,0.0096282958984375,-0.0359344482421875
1783002485154395400,2.2873955078125,-1.0275726318359375,0.011322021484375,-0.0435638427734375
1783002485164447200,2.297447265625,-1.0218353271484375,0.00433349609375,-0.052520751953125
1783002485174499300,2.307499267578125,-1.0145721435546875,0.0011749267578125,-0.0560760498046875
1783002485184551200,2.31755126953125,-1.0022430419921875,-0.002777099609375,-0.0589599609375
1783002485194602200,2.327602294921875,-0.987457275390625,-0.008636474609375,-0.0664520263671875
1783002485204654300,2.337654296875,-0.9805145263671875,-0.0126953125,-0.0739288330078125
1783002485214706200,2.3477060546875,-0.9767913818359375,-0.0143280029296875,-0.07720947265625
1783002485224758300,2.35775830078125,-0.98870849609375,-0.0182037353515625,-0.0760040283203125
1783002485234810400,2.367810302734375,-0.9895477294921875,-0.022613525390625,-0.0771484375
1783002485244862200,2.3778623046875,-0.995025634765625,-0.017364501953125,-0.08319091796875
1783002485254914300,2.387914306640625,-1.00384521484375,-0.0145416259765625,-0.084869384765625
1783002485264966100,2.397966064453125,-0.9994354248046875,-0.0149078369140625,-0.082275390625
1783002485275017200,2.408017333984375,-0.9985504150390625,-0.0121917724609375,-0.0872650146484375
1783002485285069300,2.4180693359375,-0.996551513671875,-0.013916015625,-0.0886077880859375
1783002485295121200,2.42812109375,-0.996246337890625,-0.01654052734375,-0.08111572265625
1783002485305173200,2.43817333984375,-1.0081939697265625,-0.01446533203125,-0.071746826171875
1783002485315225300,2.448225341796875,-1.012420654296875,-0.013275146484375,-0.064727783203125
1783002485325277400,2.45827734375,-1.016265869140625,-0.0087432861328125,-0.072357177734375
1783002485335329300,2.468329345703125,-1.021881103515625,-0.0121612548828125,-0.0792236328125
1783002485345381400,2.47838134765625,-1.0164794921875,-0.0196380615234375,-0.07098388671875
1783002485355433200,2.48843310546875,-1.0056915283203125,-0.0223388671875,-0.065826416015625
1783002485365484300,2.498484375,-0.99945068359375,-0.0204620361328125,-0.06317138671875
1783002485375536000,2.5085361328125,-0.9920501708984375,-0.0170745849609375,-0.0655059814453125
1783002485385588200,2.518588134765625,-0.9935760498046875,-0.0118865966796875,-0.0611114501953125
1783002485395640000,2.52864013671875,-1.0004425048828125,-0.0143585205078125,-0.0506744384765625
1783002485405692400,2.5386923828125,-1.007843017578125,-0.0171051025390625,-0.0482940673828125
1783002485415744300,2.548744140625,-1.010528564453125,-0.0134429931640625,-0.0526885986328125
1783002485425796400,2.55879638671875,-1.01507568359375,-0.0100250244140625,-0.059478759765625
1783002485435848200,2.56884814453125,-1.0177001953125,-0.011077880859375,-0.0577545166015625
1783002485445900300,2.578900390625,-1.012451171875,-0.0152130126953125,-0.058807373046875
1783002485455952100,2.5889521484375,-1.0143890380859375,-0.01702880859375,-0.0625
1783002485466003200,2.599003173828125,-1.00689697265625,-0.0196380615234375,-0.0693817138671875
1783002485476055000,2.609054931640625,-0.9974517822265625,-0.01959228515625,-0.0607147216796875
1783002485486107400,2.619107421875,-0.9977264404296875,-0.0198974609375,-0.0464324951171875
1783002485496159200,2.6291591796875,-1.0001678466796875,-0.02020263671875,-0.046173095703125
1783002485506211300,2.63921142578125,-1.012054443359375,-0.0117950439453125,-0.04571533203125
1783002485516263200,2.64926318359375,-1.015869140625,-0.004852294921875,-0.0579376220703125
1783002485526315300,2.659315185546875,-1.010223388671875,-0.0028839111328125,-0.0687103271484375
1783002485536367000,2.6693671875,-1.020050048828125,-0.0045166015625,-0.0707855224609375
1783002485546418200,2.679418212890625,-1.0179901123046875,-0.0089569091796875,-0.07659912109375
1783002485556470300,2.68947021484375,-1.0081024169921875,-0.006256103515625,-0.0742340087890625
1783002485566522400,2.6995224609375,-1.000335693359375,-0.00360107421875,-0.0655364990234375
1783002485576574200,2.70957421875,-0.99725341796875,-0.007354736328125,-0.0613555908203125
1783002485586626300,2.719626220703125,-1.0074005126953125,-0.0082550048828125,-0.0545501708984375
1783002485596678100,2.72967822265625,-1.0045318603515625,-0.00341796875,-0.0478515625
1783002485606730200,2.739730224609375,-1.000732421875,0.0036163330078125,-0.05804443359375
1783002485616782000,2.749781982421875,-1.0072479248046875,0.002349853515625,-0.0713958740234375
1783002485626834200,2.759834228515625,-1.0029144287109375,-0.0079803466796875,-0.070343017578125
1783002485636885200,2.76988525390625,-1.0001068115234375,-0.0119171142578125,-0.065887451171875
1783002485646937000,2.77993701171875,-0.9952545166015625,-0.012542724609375,-0.078033447265625
1783002485656989400,2.789989501953125,-0.9906158447265625,-0.009796142578125,-0.0776519775390625
1783002485667041300,2.800041259765625,-0.98919677734375,-0.0055694580078125,-0.0640106201171875
1783002485677093400,2.81009326171875,-1.0111846923828125,0.0030364990234375,-0.0497894287109375
1783002485687145200,2.820145263671875,-1.04803466796875,0.0174102783203125,-0.027557373046875
1783002485697197300,2.830197265625,-1.05242919921875,0.0261383056640625,-0.0407257080078125
1783002485707249200,2.840249267578125,-1.0591583251953125,0.0302734375,-0.0545806884765625
1783002485717301200,2.85030126953125,-1.058135986328125,0.0225372314453125,-0.05419921875
1783002485727353300,2.860353271484375,-1.0397796630859375,0.0000152587890625,-0.074554443359375
1783002485737404400,2.870404296875,-1.0234222412109375,-0.0119476318359375,-0.0716552734375
1783002485747456300,2.880456298828125,-1.0020599365234375,-0.02447509765625,-0.067474365234375
1783002485757508400,2.89050830078125,-0.9914093017578125,-0.03759765625,-0.083587646484375
1783002485767560200,2.900560302734375,-1.0014190673828125,-0.02752685546875,-0.0894622802734375
1783002485777612300,2.9106123046875,-0.9813385009765625,-0.0413665771484375,-0.0834197998046875
1783002485787664100,2.9206640625,-0.9810028076171875,-0.0479888916015625,-0.0880584716796875
1783002485797716200,2.93071630859375,-1.004058837890625,-0.03839111328125,-0.0943603515625
1783002485807768300,2.940768310546875,-1.007049560546875,-0.03228759765625,-0.09136962890625
1783002485817819400,2.9508193359375,-0.9908599853515625,-0.0304718017578125,-0.1142120361328125
1783002485827871200,2.960871337890625,-0.984619140625,-0.01983642578125,-0.142242431640625
1783002485837923300,2.97092333984375,-0.9784088134765625,-0.0173187255859375,-0.1430511474609375
1783002485847975200,2.98097509765625,-0.97119140625,-0.0285491943359375,-0.1103363037109375
1783002485858027300,2.99102734375,-0.970306396484375,-0.039794921875,-0.0556488037109375
1783002485868079000,3.0010791015625,-0.975799560546875,-0.0305633544921875,-0.03118896484375
1783002485878131200,3.011131103515625,-0.98187255859375,-0.012664794921875,-0.0525054931640625
1783002485888183300,3.021183349609375,-0.98480224609375,0,-0.080047607421875
1783002485898235400,3.0312353515625,-0.99713134765625,0.005035400390625,-0.067901611328125
1783002485908286200,3.0412861328125,-0.99554443359375,-0.003631591796875,-0.0572357177734375
1783002485918338300,3.05133837890625,-0.98980712890625,-0.0064697265625,-0.0595245361328125
1783002485928390100,3.06139013671875,-0.9957275390625,-0.00640869140625,-0.0497283935546875
1783002485938442200,3.071442138671875,-1.0059814453125,-0.011199951171875,-0.037994384765625
1783002485948494000,3.081494140625,-1.0225830078125,-0.0184326171875,-0.0296478271484375
1783002485958546200,3.091546142578125,-1.02703857421875,-0.013763427734375,-0.0299072265625
1783002485968598300,3.101598388671875,-1.0251922607421875,-0.0031585693359375,-0.0388641357421875
1783002485978650400,3.111650390625,-1.022216796875,-0.0041351318359375,-0.0374908447265625
1783002485988702200,3.1217021484375,-1.0166778564453125,-0.0093841552734375,-0.0382232666015625
1783002485998753300,3.131753173828125,-1.02325439453125,-0.012603759765625,-0.04034423828125
1783002486008809200,3.141809326171875,-1.0264892578125,-0.0094757080078125,-0.03173828125
1783002486018861000,3.151861083984375,-1.0262603759765625,-0.0082550048828125,-0.0233917236328125
1783002486028913000,3.161912841796875,-1.0234832763671875,-0.0084228515625,-0.0296783447265625
1783002486038965000,3.171965087890625,-1.0214385986328125,-0.0055389404296875,-0.03912353515625
1783002486049016800,3.182016845703125,-1.012298583984375,-0.006378173828125,-0.033355712890625
1783002486059069200,3.192069091796875,-1.009063720703125,-0.0052947998046875,-0.0278472900390625
1783002486069121000,3.20212109375,-1.0145416259765625,-0.0047149658203125,-0.0254974365234375
1783002486079173000,3.212173095703125,-1.0108489990234375,0.0019683837890625,-0.0258331298828125
1783002486089225000,3.222224853515625,-1.0216064453125,0.011627197265625,-0.0307159423828125
1783002486099276000,3.232276123046875,-1.02850341796875,0.012176513671875,-0.0562744140625
1783002486109328100,3.242328125,-1.01751708984375,0.01416015625,-0.08416748046875
1783002486119380000,3.2523798828125,-1.0035247802734375,0.0156707763671875,-0.0507354736328125
1783002486129432000,3.26243212890625,-0.997711181640625,0.010406494140625,-0.0157470703125
1783002486139484000,3.27248388671875,-0.9900360107421875,0.0063934326171875,-0.020050048828125
1783002486149536300,3.282536376953125,-0.9906463623046875,0.0044708251953125,-0.0377044677734375
1783002486159588000,3.292588134765625,-0.996185302734375,-0.0021820068359375,-0.049224853515625
1783002486169640200,3.30264013671875,-0.9969482421875,-0.0132904052734375,-0.0640411376953125
1783002486179691000,3.31269091796875,-0.992340087890625,-0.0185394287109375,-0.0667877197265625
1783002486189743000,3.3227431640625,-1.0012054443359375,-0.0186309814453125,-0.05267333984375
1783002486199795000,3.332794921875,-1.0024871826171875,-0.0245819091796875,-0.0557098388671875
1783002486209847000,3.342846923828125,-1.001678466796875,-0.026275634765625,-0.0666656494140625
1783002486219899000,3.35289892578125,-1.001739501953125,-0.0199432373046875,-0.065643310546875
1783002486229951200,3.362951171875,-0.99627685546875,-0.0152740478515625,-0.0655670166015625
1783002486240003000,3.373003173828125,-0.9958648681640625,-0.01116943359375,-0.059417724609375
1783002486250055200,3.38305517578125,-0.9972991943359375,-0.00836181640625,-0.0423431396484375
1783002486260107000,3.39310693359375,-1.0032958984375,-0.0052337646484375,-0.0222015380859375
1783002486270159000,3.4031591796875,-1.0107879638671875,0.001007080078125,-0.0185546875
1783002486280210000,3.4132099609375,-1.0126953125,0.003814697265625,-0.0339813232421875
1783002486290262000,3.423261962890625,-1.02008056640625,0.0021209716796875,-0.0486297607421875
1783002486300313900,3.43331396484375,-1.0193328857421875,0.0001373291015625,-0.041259765625
1783002486310366200,3.4433662109375,-1.0074920654296875,0.000396728515625,-0.029083251953125
1783002486320418000,3.45341796875,-1.0001373291015625,0.001800537109375,-0.03033447265625
1783002486330470100,3.46347021484375,-0.9980010986328125,0.0016021728515625,-0.0301666259765625
1783002486340522000,3.47352197265625,-1.0011444091796875,-0.001953125,-0.02740478515625
1783002486350574000,3.483573974609375,-1.00091552734375,-0.001373291015625,-0.02557373046875
1783002486360626000,3.4936259765625,-1.012969970703125,0.001739501953125,-0.0196380615234375
1783002486370677000,3.503677001953125,-1.0232696533203125,-0.000244140625,-0.024627685546875
1783002486380729000,3.51372900390625,-1.02447509765625,-0.005462646484375,-0.047393798828125
1783002486390781000,3.523781005859375,-1.0307769775390625,-0.00872802734375,-0.0550689697265625
1783002486400833000,3.5338330078125,-1.02386474609375,-0.00689697265625,-0.048004150390625
1783002486410885000,3.543885009765625,-1.008514404296875,-0.0027008056640625,-0.048980712890625
1783002486420937000,3.55393701171875,-1.0068206787109375,0.002105712890625,-0.0524749755859375
1783002486430989000,3.563989013671875,-0.99993896484375,0.0069122314453125,-0.041961669921875
1783002486441041000,3.574041015625,-0.993682861328125,0.0094451904296875,-0.0346832275390625
1783002486451092000,3.584092041015625,-1.0123748779296875,0.013946533203125,-0.024505615234375
1783002486461144000,3.59414404296875,-1.0139923095703125,0.011474609375,-0.025665283203125
1783002486471196000,3.60419580078125,-1.0062713623046875,0.01068115234375,-0.037078857421875
1783002486481248300,3.614248291015625,-1.0102081298828125,0.0128021240234375,-0.04656982421875
1783002486491300000,3.624300048828125,-1.0042572021484375,0.008697509765625,-0.049072265625
1783002486501352200,3.634352294921875,-0.9966888427734375,0.003204345703125,-0.048126220703125
1783002486511404000,3.644404052734375,-0.993133544921875,0.003662109375,-0.0487518310546875
1783002486521456000,3.6544560546875,-0.988983154296875,0.007049560546875,-0.0561981201171875
1783002486531508000,3.664508056640625,-0.9840850830078125,0.013427734375,-0.0573272705078125
1783002486541559000,3.67455908203125,-0.9898223876953125,0.0174407958984375,-0.0466156005859375
1783002486551611000,3.68461083984375,-1.018951416015625,0.0107421875,-0.035369873046875
1783002486561663200,3.694663330078125,-1.0189056396484375,0.0070343017578125,-0.0338897705078125
1783002486571715000,3.704715087890625,-1.022857666015625,0.0185546875,-0.0503082275390625
1783002486581767200,3.71476708984375,-1.0338897705078125,0.0097503662109375,-0.0700531005859375
1783002486591819000,3.724819091796875,-1.0248260498046875,-0.004913330078125,-0.0643310546875
1783002486601871000,3.73487109375,-1.014434814453125,-0.0058746337890625,-0.0526123046875
1783002486611923000,3.7449228515625,-1.0047454833984375,-0.0002899169921875,-0.0484619140625
1783002486621975000,3.75497509765625,-1.005828857421875,0.0010528564453125,-0.0550994873046875
1783002486632025900,3.76502587890625,-1.0087127685546875,0.0038909912109375,-0.0671539306640625
1783002486642078000,3.775077880859375,-1.007293701171875,0.006988525390625,-0.0545501708984375
1783002486652130000,3.785130126953125,-1.0035552978515625,0.0085601806640625,-0.0318450927734375
1783002486662182100,3.79518212890625,-1.0081939697265625,0.0119476318359375,-0.032623291015625
1783002486672234000,3.80523388671875,-1.011962890625,0.0105743408203125,-0.0396575927734375
1783002486682286000,3.8152861328125,-1.01739501953125,0.0096893310546875,-0.0372772216796875
1783002486692338000,3.825337890625,-1.010955810546875,0.0110015869140625,-0.0310821533203125
1783002486702390000,3.83539013671875,-1.0045928955078125,0.0116424560546875,-0.03094482421875
1783002486712442000,3.845442138671875,-1.0091400146484375,0.01141357421875,-0.0394439697265625
1783002486722494200,3.855494140625,-1.0015106201171875,0.0149078369140625,-0.0363922119140625
1783002486732545000,3.865544921875,-1.0057220458984375,0.014373779296875,-0.0295867919921875
1783002486742597000,3.87559716796875,-1.0137481689453125,0.009796142578125,-0.0326385498046875
1783002486752649000,3.88564892578125,-1.01947021484375,0.0069580078125,-0.0355224609375
1783002486762701000,3.895701171875,-1.01239013671875,0.00408935546875,-0.0452423095703125
1783002486772753000,3.9057529296875,-1.0052337646484375,0.00079345703125,-0.049957275390625
1783002486782805000,3.915804931640625,-1.0020294189453125,-0.001068115234375,-0.0457763671875
1783002486792856800,3.92585693359375,-1.0036773681640625,-0.0004425048828125,-0.0422515869140625
1783002486802909200,3.9359091796875,-1.002532958984375,0.006103515625,-0.0413055419921875
1783002486812960300,3.945960205078125,-0.99993896484375,0.01593017578125,-0.0414581298828125
1783002486823012000,3.95601220703125,-1.0067291259765625,0.0175628662109375,-0.04949951171875
1783002486833064200,3.966064208984375,-1.0119476318359375,0.0160064697265625,-0.0595855712890625
1783002486843116000,3.976115966796875,-1.0089263916015625,0.014739990234375,-0.056549072265625
1783002486853168000,3.986168212890625,-1.005157470703125,0.01483154296875,-0.0404205322265625
1783002486863220000,3.996219970703125,-1.0032806396484375,0.0084381103515625,-0.0391082763671875
1783002486873272000,4.00627197265625,-1.000274658203125,0.0031585693359375,-0.04669189453125
1783002486883324200,4.01632421875,-1.00115966796875,0.009063720703125,-0.04669189453125
1783002486893376000,4.0263759765625,-0.997650146484375,0.0086669921875,-0.0362701416015625
1783002486903427000,4.036427001953125,-1.001007080078125,0.0027618408203125,-0.0391845703125
1783002486913479200,4.046479248046875,-1.0136566162109375,0.00396728515625,-0.050140380859375
1783002486923531000,4.056531005859375,-1.0132904052734375,0.0067901611328125,-0.0602874755859375
1783002486933583000,4.0665830078125,-1.01153564453125,0.0101165771484375,-0.057861328125
1783002486943635000,4.076635009765625,-1.02178955078125,0.005584716796875,-0.0477447509765625
1783002486953687000,4.08668701171875,-1.0171661376953125,0.001983642578125,-0.04705810546875
1783002486963739100,4.0967392578125,-1.005401611328125,0.007568359375,-0.04901123046875
1783002486973791200,4.106791259765625,-0.9999542236328125,0.0112152099609375,-0.043609619140625
1783002486983843000,4.116843017578125,-0.9994659423828125,0.0113372802734375,-0.0373992919921875
1783002486993894100,4.12689404296875,-1.006988525390625,0.0152130126953125,-0.0318756103515625
1783002487003946500,4.136946533203125,-1.013031005859375,0.020904541015625,-0.0271759033203125
1783002487013998600,4.14699853515625,-1.0192108154296875,0.020751953125,-0.03314208984375
1783002487024050700,4.15705078125,-1.0189971923828125,0.013397216796875,-0.0429534912109375
1783002487034102800,4.167102783203125,-1.0155029296875,0.00384521484375,-0.054718017578125
1783002487044154600,4.177154541015625,-1.00360107421875,-0.000640869140625,-0.0532989501953125
1783002487054206700,4.187206787109375,-0.9928436279296875,0,-0.0496826171875
1783002487064258600,4.197258544921875,-0.9835052490234375,0.00103759765625,-0.053985595703125
1783002487074310700,4.207310546875,-0.9830169677734375,0.009490966796875,-0.047271728515625
1783002487084361500,4.217361572265625,-0.9922637939453125,0.019744873046875,-0.0486297607421875
1783002487094413600,4.22741357421875,-1.0080108642578125,0.02581787109375,-0.036712646484375
1783002487104465700,4.237465576171875,-1.0211944580078125,0.03021240234375,-0.026092529296875
1783002487114517800,4.247517822265625,-1.0240325927734375,0.0277099609375,-0.039215087890625
1783002487124569600,4.257569580078125,-1.0275726318359375,0.0148773193359375,-0.0499267578125
1783002487134621700,4.26762158203125,-1.0306854248046875,-0.0047149658203125,-0.0538787841796875
1783002487144673500,4.277673583984375,-1.0152130126953125,-0.0081329345703125,-0.0477447509765625
1783002487154725600,4.2877255859375,-1.0043487548828125,-0.001068115234375,-0.0522003173828125
1783002487164777500,4.297777587890625,-1.004180908203125,0.0015411376953125,-0.051361083984375
1783002487174828500,4.30782861328125,-1.00274658203125,0.0058135986328125,-0.0506591796875
1783002487184880600,4.317880615234375,-1.01202392578125,0.0117340087890625,-0.0512847900390625
1783002487194932700,4.3279326171875,-1.0048980712890625,0.0188446044921875,-0.0333099365234375
1783002487204984600,4.337984619140625,-0.993499755859375,0.0286712646484375,-0.033843994140625
1783002487215036700,4.34803662109375,-1.0061798095703125,0.0282745361328125,-0.0307159423828125
1783002487225088500,4.358088623046875,-1.01483154296875,0.020904541015625,-0.0223541259765625
1783002487235140600,4.368140625,-1.009185791015625,0.0232391357421875,-0.0233154296875
1783002487245192400,4.3781923828125,-1.006561279296875,0.0253448486328125,-0.033538818359375
1783002487255244800,4.388244873046875,-1.0005645751953125,0.0220184326171875,-0.037567138671875
1783002487265295600,4.398295654296875,-1.000274658203125,0.0175628662109375,-0.0419464111328125
1783002487275347700,4.40834765625,-1.0008544921875,0.0110015869140625,-0.04949951171875
1783002487285399600,4.418399658203125,-1.00506591796875,0.0080413818359375,-0.0515899658203125
1783002487295451600,4.42845166015625,-1.0054931640625,0.012359619140625,-0.0501861572265625
1783002487305503500,4.43850341796875,-0.99932861328125,0.021331787109375,-0.043853759765625
1783002487315555600,4.4485556640625,-1.003021240234375,0.0254364013671875,-0.035308837890625
1783002487325607400,4.458607421875,-1.0134429931640625,0.021636962890625,-0.0288543701171875
1783002487335659800,4.46865966796875,-1.0151824951171875,0.0224761962890625,-0.031036376953125
1783002487345711600,4.478711669921875,-1.0114898681640625,0.0272979736328125,-0.03912353515625
1783002487355762700,4.4887626953125,-1.0103302001953125,0.02447509765625,-0.03729248046875
1783002487365814800,4.498814697265625,-1.011932373046875,0.0175323486328125,-0.0378570556640625
1783002487375866600,4.50886669921875,-1.0103759765625,0.0173797607421875,-0.043792724609375
1783002487385918700,4.518918701171875,-1.0055694580078125,0.0191192626953125,-0.04119873046875
1783002487395970600,4.528970458984375,-1.0061187744140625,0.0196990966796875,-0.0399322509765625
1783002487406022700,4.539022705078125,-1.009033203125,0.01947021484375,-0.0377349853515625
1783002487416074500,4.549074462890625,-1.017547607421875,0.020721435546875,-0.033294677734375
1783002487426126600,4.559126708984375,-1.0189361572265625,0.022735595703125,-0.031982421875
1783002487436178700,4.5691787109375,-1.0190582275390625,0.0238494873046875,-0.041656494140625
1783002487446229800,4.579229736328125,-1.0161895751953125,0.0211334228515625,-0.0508575439453125
1783002487456281600,4.589281494140625,-1.0076446533203125,0.018096923828125,-0.0437469482421875
1783002487466333700,4.599333740234375,-0.9963531494140625,0.0174102783203125,-0.04217529296875
1783002487476385500,4.609385498046875,-0.99102783203125,0.0178070068359375,-0.04638671875
1783002487486437600,4.619437744140625,-0.984283447265625,0.0176849365234375,-0.0479888916015625
1783002487496489500,4.629489501953125,-0.9823455810546875,0.0216064453125,-0.044403076171875
1783002487506541800,4.639541748046875,-0.9916229248046875,0.025421142578125,-0.0387725830078125
1783002487516593700,4.64959375,-1.010833740234375,0.024749755859375,-0.03375244140625
1783002487526645800,4.659645751953125,-1.01983642578125,0.02239990234375,-0.0349884033203125
1783002487536696600,4.669696533203125,-1.0185089111328125,0.0202484130859375,-0.051971435546875
1783002487546748700,4.679748779296875,-1.0252685546875,0.017120361328125,-0.066802978515625
1783002487556800500,4.689800537109375,-1.0241241455078125,0.008453369140625,-0.058563232421875
1783002487566852600,4.6998525390625,-1.0033111572265625,0.008758544921875,-0.054443359375
1783002487576904400,4.709904541015625,-0.99639892578125,0.014312744140625,-0.05645751953125
1783002487586956800,4.719956787109375,-0.9995880126953125,0.0149688720703125,-0.0579681396484375
1783002487597008600,4.730008544921875,-1.0044708251953125,0.0142364501953125,-0.046295166015625
1783002487607060700,4.740060791015625,-1.003204345703125,0.018218994140625,-0.041656494140625
1783002487617111800,4.75011181640625,-1.005706787109375,0.0247344970703125,-0.03863525390625
1783002487627163600,4.76016357421875,-1.01739501953125,0.025054931640625,-0.0337677001953125
1783002487637215500,4.770215576171875,-1.0174560546875,0.0230712890625,-0.0322418212890625
1783002487647267600,4.780267578125,-1.01629638671875,0.024078369140625,-0.0374908447265625
1783002487657319400,4.7903193359375,-1.01043701171875,0.02252197265625,-0.0372314453125
1783002487667371500,4.80037158203125,-1.006805419921875,0.0197296142578125,-0.033599853515625
1783002487677423600,4.810423583984375,-1.0037384033203125,0.022674560546875,-0.038116455078125
1783002487687475700,4.820475830078125,-1.004150390625,0.0284881591796875,-0.0425567626953125
1783002487697527600,4.830527587890625,-1.008514404296875,0.0267791748046875,-0.044891357421875
1783002487707578600,4.84057861328125,-1.0085601806640625,0.019134521484375,-0.039276123046875
1783002487717630700,4.850630615234375,-1.0122833251953125,0.016845703125,-0.0382232666015625
1783002487727682600,4.8606826171875,-1.0095672607421875,0.017913818359375,-0.0363311767578125
1783002487737734700,4.870734619140625,-1.007843017578125,0.0191650390625,-0.0420989990234375
1783002487747786500,4.880786376953125,-1.0046234130859375,0.0186767578125,-0.048675537109375
1783002487757838800,4.8908388671875,-1.0008697509765625,0.0181121826171875,-0.0487823486328125
1783002487767890700,4.900890625,-0.9990386962890625,0.018157958984375,-0.0427398681640625
1783002487777942800,4.91094287109375,-0.996978759765625,0.0178985595703125,-0.0439605712890625
1783002487787994600,4.92099462890625,-1.009918212890625,0.0186767578125,-0.0476226806640625
1783002487798045700,4.931045654296875,-1.0174102783203125,0.02130126953125,-0.04736328125
1783002487808097500,4.94109765625,-1.02001953125,0.02423095703125,-0.051727294921875
1783002487818149600,4.951149658203125,-1.020843505859375,0.0168914794921875,-0.053955078125
1783002487828201500,4.961201416015625,-1.0117950439453125,0.008087158203125,-0.04547119140625
1783002487838253800,4.97125390625,-1.004425048828125,0.0068511962890625,-0.0405731201171875
1783002487848305700,4.9813056640625,-0.99847412109375,0.0106964111328125,-0.03826904296875
1783002487858357800,4.991357666015625,-0.989715576171875,0.01470947265625,-0.040252685546875
1783002487868409600,5.00140966796875,-0.9885406494140625,0.0221405029296875,-0.0399932861328125
1783002487878461700,5.011461669921875,-0.9970550537109375,0.0289764404296875,-0.039825439453125
1783002487888512500,5.021512451171875,-1.00201416015625,0.03106689453125,-0.040374755859375
1783002487898564600,5.031564697265625,-1.0087127685546875,0.0313568115234375,-0.045166015625
1783002487908616400,5.041616455078125,-1.0169830322265625,0.027099609375,-0.0502777099609375
1783002487918668500,5.05166845703125,-1.01702880859375,0.0176849365234375,-0.0516815185546875
1783002487928720600,5.061720703125,-1.0097808837890625,0.015899658203125,-0.0507354736328125
1783002487938772700,5.071772705078125,-1.0076751708984375,0.01617431640625,-0.052703857421875
1783002487948824600,5.081824462890625,-1.006378173828125,0.0118560791015625,-0.05023193359375
1783002487958876700,5.091876708984375,-1.007904052734375,0.0160675048828125,-0.0421295166015625
1783002487968928500,5.101928466796875,-1.0020751953125,0.021331787109375,-0.0388641357421875
1783002487978979600,5.1119794921875,-1.0050506591796875,0.0215606689453125,-0.0393829345703125
1783002487989031700,5.12203173828125,-1.0070037841796875,0.020172119140625,-0.0425567626953125
1783002487999083500,5.13208349609375,-1.0048065185546875,0.0184326171875,-0.0490570068359375
1783002488009131300,5.14213134765625,-1.0056304931640625,0.01629638671875,-0.053863525390625
1783002488019183000,5.15218310546875,-1.0003204345703125,0.0162811279296875,-0.05133056640625
1783002488029235200,5.162235107421875,-0.999114990234375,0.018524169921875,-0.0484466552734375
1783002488039287000,5.172287109375,-0.9994049072265625,0.0226593017578125,-0.0421295166015625
1783002488049339100,5.182339111328125,-1.00262451171875,0.0233612060546875,-0.0373077392578125
1783002488059391000,5.192390869140625,-1.0113067626953125,0.0191192626953125,-0.035400390625
1783002488069442000,5.202442138671875,-1.02056884765625,0.0144805908203125,-0.0343780517578125
1783002488079494100,5.212494140625,-1.0204620361328125,0.0117034912109375,-0.0386505126953125
1783002488089546200,5.222546142578125,-1.0107574462890625,0.012451171875,-0.043670654296875
1783002488099598000,5.23259814453125,-1.00714111328125,0.00927734375,-0.0438232421875
1783002488109650200,5.242650146484375,-1.000823974609375,0.007965087890625,-0.0405731201171875
1783002488119702000,5.252701904296875,-0.9950714111328125,0.011138916015625,-0.043792724609375
1783002488129754000,5.262754150390625,-0.9974212646484375,0.0143585205078125,-0.0432891845703125
1783002488139806000,5.272805908203125,-0.9986724853515625,0.0153350830078125,-0.039398193359375
1783002488149858300,5.2828583984375,-1.0074005126953125,0.0157012939453125,-0.0397796630859375
1783002488159909000,5.2929091796875,-1.0242767333984375,0.0167083740234375,-0.0348358154296875
1783002488169961200,5.302961181640625,-1.02142333984375,0.018463134765625,-0.0315399169921875
1783002488180013000,5.313012939453125,-1.0190887451171875,0.0218048095703125,-0.0422821044921875
1783002488190065200,5.323065185546875,-1.0225372314453125,0.017333984375,-0.0493621826171875
1783002488200117000,5.333116943359375,-1.010894775390625,0.01446533203125,-0.0469207763671875
1783002488210169000,5.343169189453125,-1.008514404296875,0.016632080078125,-0.047576904296875
1783002488220221000,5.353220947265625,-1.0024871826171875,0.0159149169921875,-0.0514068603515625
1783002488230273000,5.36327294921875,-0.9964752197265625,0.016632080078125,-0.0536651611328125
1783002488240325000,5.3733251953125,-1.000213623046875,0.014678955078125,-0.0582427978515625
1783002488250376200,5.383376220703125,-1.007568359375,0.0121612548828125,-0.054534912109375
1783002488260428300,5.39342822265625,-1.0070953369140625,0.0186614990234375,-0.039520263671875
1783002488270480100,5.403480224609375,-1.0110015869140625,0.02911376953125,-0.04229736328125
1783002488280532200,5.4135322265625,-1.0138702392578125,0.0299835205078125,-0.05194091796875
1783002488290584000,5.423583984375,-1.0143890380859375,0.024658203125,-0.04998779296875
1783002488300636200,5.43363623046875,-1.014404296875,0.021514892578125,-0.045684814453125
1783002488310688000,5.44368798828125,-1.0078582763671875,0.0174102783203125,-0.0530548095703125
1783002488320740000,5.453739990234375,-1.0042724609375,0.0198211669921875,-0.052337646484375
1783002488330791200,5.463791259765625,-0.9936981201171875,0.0229339599609375,-0.0498199462890625
1783002488340843300,5.47384326171875,-0.99072265625,0.027069091796875,-0.052520751953125
1783002488350895000,5.48389501953125,-0.991668701171875,0.02752685546875,-0.0483856201171875
1783002488360947200,5.493947265625,-1.0029144287109375,0.0319061279296875,-0.0516204833984375
1783002488370999000,5.5039990234375,-1.012969970703125,0.0349884033203125,-0.0530242919921875
1783002488381051100,5.514051025390625,-1.016357421875,0.0319976806640625,-0.044769287109375
1783002488391103000,5.52410302734375,-1.02197265625,0.028533935546875,-0.0436859130859375
1783002488401155300,5.5341552734375,-1.018310546875,0.0279388427734375,-0.0402374267578125
1783002488411207200,5.544207275390625,-1.0142669677734375,0.0291748046875,-0.0336456298828125
1783002488421258200,5.55425830078125,-1.00738525390625,0.02880859375,-0.0344390869140625
1783002488431310000,5.56431005859375,-1.000885009765625,0.0246734619140625,-0.0343170166015625
1783002488441362200,5.574362060546875,-0.996795654296875,0.0193634033203125,-0.023712158203125
1783002488451414000,5.5844140625,-1.00128173828125,0.0231781005859375,-0.0309600830078125
1783002488461466000,5.594466064453125,-1.00921630859375,0.035736083984375,-0.0390472412109375
1783002488471518000,5.60451806640625,-1.0136566162109375,0.0430755615234375,-0.0332794189453125
1783002488481570300,5.6145703125,-1.0240020751953125,0.0444488525390625,-0.0346221923828125
1783002488491622100,5.6246220703125,-1.034210205078125,0.0378875732421875,-0.0428466796875
1783002488501674200,5.63467431640625,-1.037384033203125,0.0325927734375,-0.0570526123046875
1783002488511725300,5.644725341796875,-1.0274658203125,0.028411865234375,-0.065093994140625
1783002488521777200,5.654777099609375,-1.0118560791015625,0.0205078125,-0.059906005859375
1783002488531829000,5.6648291015625,-1.00665283203125,0.012603759765625,-0.0619964599609375
1783002488541881000,5.674881103515625,-0.9956207275390625,0.00250244140625,-0.0679473876953125
1783002488551933000,5.684932861328125,-0.978240966796875,0.0006561279296875,-0.0628509521484375
1783002488561985000,5.694985107421875,-0.97259521484375,0.0135345458984375,-0.0523223876953125
1783002488572037000,5.705037109375,-0.9693756103515625,0.026031494140625,-0.0466156005859375
1783002488582089200,5.715089111328125,-0.9748382568359375,0.0351104736328125,-0.0369110107421875
1783002488592141000,5.72514111328125,-1.0068359375,0.0345611572265625,-0.0279998779296875
1783002488602192100,5.735192138671875,-1.0000762939453125,0.0384674072265625,-0.0509185791015625
1783002488612244200,5.745244140625,-0.9544525146484375,0.048614501953125,-0.0507354736328125
1783002488622296000,5.755296142578125,-0.82501220703125,0.1008453369140625,0.0195465087890625
1783002488632348200,5.76534814453125,-1.0664215087890625,0.044891357421875,0.040252685546875
1783002488642400000,5.77539990234375,-1.0071868896484375,-0.0164642333984375,-0.0546875
1783002488652452400,5.785452392578125,-1.0461273193359375,0.0147552490234375,-0.109130859375
1783002488662504200,5.795504150390625,-1.0901031494140625,0.0042266845703125,-0.083740234375
1783002488672556300,5.805556396484375,-1.0857391357421875,-0.044525146484375,-0.0713348388671875
1783002488682608000,5.815608154296875,-1.0936737060546875,-0.045989990234375,-0.072662353515625
1783002488692659200,5.8256591796875,-1.1084442138671875,-0.0384674072265625,-0.0906524658203125
1783002488702711000,5.8357109375,-1.06500244140625,-0.0467529296875,-0.1038360595703125
1783002488712763100,5.84576318359375,-1.04254150390625,-0.0526885986328125,-0.12042236328125
1783002488722815000,5.85581494140625,-1.0189971923828125,-0.044158935546875,-0.113616943359375
1783002488732867300,5.865867431640625,-0.9884490966796875,-0.0270233154296875,-0.089202880859375
1783002488742919200,5.875919189453125,-0.92022705078125,0.00677490234375,-0.037078857421875
