time,seconds_elapsed,z,y,x
1783002482951775000,0.08477490234375,-0.3021130612939596,-0.06980694680092855,0.25323570620454844
1783002482961827000,0.0948271484375,-0.37443244757354255,-0.050556576880626376,0.21298673445712774
1783002482971879000,0.10487890625,-0.34052257918715473,0.0226880527514033,0.1735681125866249
1783002482981930000,0.114929931640625,-0.23044132526814937,0.08695508374497293,0.11143979238849133
1783002482991982000,0.124982177734375,-0.16443769800662994,0.12599157443009315,0.12674210053645074
1783002483002033400,0.135033447265625,-0.16265490624308584,0.18066382473492995,0.1343459996689111
1783002483012085500,0.14508544921875,-0.22002397615015507,0.23283165447078644,0.136683246977441
1783002483022137300,0.155137451171875,-0.15367548097372055,0.2409344430360943,0.16394198691155762
1783002483032189700,0.165189697265625,-0.15854863996803759,0.26173640804626047,0.15308431014753876
1783002483042241500,0.175241455078125,-0.20310674361884593,0.23428996352031825,0.06364778485037385
1783002483052293600,0.185293701171875,-0.06432663396000862,0.16279150170218198,0.015349654421024024
1783002483062345500,0.195345458984375,0.04427461053431034,0.08991495646387337,-0.09006452100239694
1783002483072396500,0.205396484375,0.09032032239437103,-0.03417458373717964,-0.11420469052456318
1783002483082448400,0.215448486328125,0.21921324428915975,-0.19915161278489976,-0.1053779715988785
1783002483092500500,0.22550048828125,0.18415303682386874,-0.34806415367312726,-0.18897863034941256
1783002483102552300,0.23555224609375,0.1788829874664545,-0.4334699256168678,-0.2816532242523506
1783002483112604700,0.245604736328125,0.20691490373015403,-0.5096218027314171,-0.3279852787731215
1783002483122656500,0.255656494140625,0.11254910533726215,-0.5745925432812422,-0.31208719668909907
1783002483132708600,0.26570849609375,0.02414016952216625,-0.615152736402303,-0.33639413761291653
1783002483142760400,0.275760498046875,-0.019759762480854988,-0.5347388909943401,-0.29901670271381736
1783002483152812500,0.2858125,-0.130123340472579,-0.33811372794713823,-0.16272322223894298
1783002483162863600,0.295863525390625,-0.221890939065814,-0.15337974943015723,-0.11456486560646444
1783002483172915500,0.30591552734375,-0.2623199800878763,-0.025524207759089767,-0.1379786936154589
1783002483182967600,0.315967529296875,-0.29006314253807064,0.046948944310098883,-0.019848865536414087
1783002483193019400,0.326019287109375,-0.19747779782116412,0.021401355675421653,0.08871485995911062
1783002483203071500,0.336071533203125,-0.12684417267143724,-0.049382783860899504,0.12356142467372119
1783002483213123600,0.34612353515625,-0.09418342756330966,-0.07759301583357155,0.17328133153449743
1783002483223175400,0.356175537109375,-0.10503156931400298,-0.09454130109027027,0.15199728209581226
1783002483233227500,0.3662275390625,-0.13874328477978706,-0.11180796811375766,0.05397734510954469
1783002483243278600,0.376278564453125,-0.06695815150737762,-0.09611987551860511,-0.10022384023871272
1783002483253330400,0.386330322265625,-0.054829322296380996,-0.06939484060239047,-0.13304580379053949
1783002483263382500,0.396382568359375,-0.03547580252885818,-0.1166047008709982,-0.14125566945951432
1783002483273434400,0.406434326171875,-0.016174889731407165,-0.17683021965511142,-0.23036486249845473
1783002483283486700,0.41648681640625,0.03447159392237663,-0.174135135352239,-0.22469605961441994
1783002483293538600,0.42653857421875,0.07966156573593616,-0.16777528146412224,-0.123826140024513
1783002483303590700,0.436590576171875,0.018746786046028138,-0.14806301138680428,-0.06946344885919242
1783002483313642500,0.446642578125,-0.04589665877819061,-0.10207509412858634,-0.07163008884117007
1783002483323694600,0.456694580078125,-0.12262158654034137,-0.06730148505233227,-0.11229250022768973
1783002483333745400,0.466745361328125,-0.06836158856451512,-0.04193372823027894,-0.15663834936730564
1783002483343797500,0.476797607421875,-0.16795009004175662,-0.032561230256408454,-0.26672647141851485
1783002483353849300,0.486849365234375,-0.21775895382761953,-0.1059059409957379,-0.22432638605181127
1783002483363901700,0.496901611328125,-0.18206103298068047,-0.1599705625299364,-0.08619904121328145
1783002483373953500,0.50695361328125,-0.1600426779180765,-0.10121011132970452,0.007642806370742618
1783002483384005600,0.517005615234375,-0.11029343536496161,0.006056249565351754,0.02131857276279479
1783002483394057500,0.527057373046875,-0.19710604189932346,0.06128417925788089,0.011426343497447668
1783002483404109600,0.537109619140625,-0.19899580116868018,0.07167606514105573,0.03849642899166792
1783002483414161400,0.547161376953125,-0.18723405170440674,0.12389043743237853,0.0712596115609631
1783002483424212500,0.55721240234375,-0.16925649646520613,0.1343616721620783,0.017720109879411756
1783002483434264300,0.567264404296875,-0.11090192265212535,0.06094959527496248,0.05853362017441541
1783002483444316400,0.57731640625,-0.049772038906812664,0.008084832783509046,0.12959062183536588
1783002483454368500,0.587368408203125,-0.007148702710866928,-0.013023312098998575,0.12964870869815348
1783002483464420600,0.597420654296875,-0.0007826748102903366,-0.0721609077822417,0.0860866668799892
1783002483474472400,0.607472412109375,0.00827273830473423,-0.10654438502974807,0.02272186368945986
1783002483484524500,0.617524658203125,-0.004038461735844612,-0.14144368457859383,-0.0671598115593195
1783002483494576400,0.627576416015625,-0.036302316480875015,-0.2063499450574629,0.006742094671353697
1783002483504628500,0.63762841796875,-0.014197452178597449,-0.19564123004376888,0.029600517287291586
1783002483514679600,0.647679443359375,-0.02089548851251602,-0.12681169517394156,-0.07323076550345868
1783002483524731400,0.6577314453125,-0.10485855083465576,-0.10085516041219234,-0.06794080586917697
1783002483534783500,0.667783447265625,-0.06429448525607585,-0.10859123455695807,-0.04245824529472738
1783002483544835600,0.677835693359375,-0.03145429192781448,-0.08301210000654682,0.0204686779351905
1783002483554887400,0.687887451171875,-0.014001052823662758,-0.08790600952794775,0.06998370987363159
1783002483564939500,0.697939453125,0.05051788883805275,-0.08705403234111145,0.06270305134616792
1783002483574991400,0.707991455078125,-0.07425649182200432,-0.05495663847047835,0.1688107254590839
1783002483585043500,0.71804345703125,-0.15999299355745314,-0.05368758664904162,0.24469156707990913
1783002483595095300,0.72809521484375,-0.18876666809916495,-0.015460549183283,0.06053089493885636
1783002483605146400,0.738146484375,-0.24310265392065047,-0.008670669847447425,-0.06588774579688907
1783002483615198700,0.74819873046875,-0.20981413230299947,-0.15778355561336502,-0.007132445695810019
1783002483625250600,0.75825048828125,-0.10143968230187893,-0.24972108567971735,0.015761925016343593
1783002483635302700,0.768302734375,0.01828384470939636,-0.22330895263757555,0.014013072055019437
1783002483645354500,0.7783544921875,0.09681611415445804,-0.22906293132072314,-0.0006825023714452981
1783002483655406600,0.788406494140625,0.05269640192091465,-0.2122131745350547,0.02461677405796945
1783002483665458400,0.79845849609375,-0.06900514716506004,-0.1541541861350648,0.10416326204687357
1783002483675510500,0.808510498046875,-0.11652794584035872,-0.1223318646124564,0.12061291359905153
1783002483685561300,0.818561279296875,-0.22033669536113737,-0.08584719556830823,0.09496296056844293
1783002483695613400,0.828613525390625,-0.23397417556941508,-0.11825442257309332,0.07387531048469245
1783002483705665500,0.83866552734375,-0.2290922487467527,-0.13442441693367435,0.0674387015659362
1783002483715717600,0.848717529296875,-0.146675246822834,-0.09756746224472299,0.07499171076137572
1783002483725769500,0.85876953125,-0.050263037294149396,-0.04683227739417925,0.0056379693543538445
1783002483735821600,0.868821533203125,0.03298690832257271,-0.01942547075888142,-0.02968519989605993
1783002483745873400,0.878873291015625,0.02378419569134712,0.006568491670116782,0.012124335698969662
1783002483755925500,0.888925537109375,-0.06077566348016262,0.01750471356306225,0.11655830444600432
1783002483765977300,0.898977294921875,-0.08027765180766581,0.005847721381206065,0.12728844584021717
1783002483776028400,0.9090283203125,-0.20212299327850342,-0.01552676455359906,-0.008457081895694137
1783002483786080500,0.91908056640625,-0.26163024425804615,-0.11410559579795226,-0.06551967966947704
1783002483796132600,0.929132568359375,-0.17632161254584788,-0.1779712977153249,-0.021363434817828236
1783002483806184400,0.939184326171875,-0.0646194794267416,-0.16231495196530593,0.0012769246006384492
1783002483816236500,0.949236572265625,0.022525720062851903,-0.10670644372366368,-0.000580137975513935
1783002483826288400,0.959288330078125,0.032628011882305144,-0.061916869404539464,-0.05010105166547
1783002483836340500,0.969340576171875,0.005272971966862678,-0.034727431846968825,-0.04691851263921708
1783002483846392300,0.979392333984375,-0.0709194563537836,-0.028085619212314485,0.06813249251637607
1783002483856444700,0.989444580078125,-0.12385200511813163,-0.05837567140003666,0.10816091684829443
1783002483866495500,0.99949560546875,-0.15067746820151806,-0.09337607496948912,0.0013109730007126927
1783002483876547600,1.009547607421875,-0.20433365506529808,-0.12183171480428427,-0.022421565568633377
1783002483886599400,1.019599365234375,-0.2131120048046112,-0.10959031033059581,0.05350735297761857
1783002483896651500,1.029651611328125,-0.12733283297121525,-0.06753465448739007,0.02748834743890911
1783002483906703400,1.039703369140625,-0.035029812327027315,-0.03219510035775602,-0.08915708730127662
1783002483916755500,1.04975537109375,-0.01324585054218769,-0.048358884173259134,-0.0804044199924916
1783002483926807300,1.059807373046875,0.01017068088054657,-0.12399314888818189,0.010407266115397214
1783002483936859600,1.069859619140625,-0.022977555483579635,-0.17003146289307622,0.07705649780407547
1783002483946911500,1.079911376953125,-0.049560441982746124,-0.09875042495159432,0.12354659243077039
1783002483956962600,1.089962646484375,-0.14169395127892492,0.0006761274295859039,0.12706946932729332
1783002483967014700,1.1000146484375,-0.1370078392893076,-0.01933636770332232,0.010044862543791533
1783002483977066500,1.11006640625,-0.09425999993085861,-0.00811274370374158,-0.018942966205254198
1783002483987118600,1.12011865234375,-0.04353460582196712,-0.024653014415130018,-0.011723828606680035
1783002483997170400,1.13017041015625,-0.03229249631762504,-0.05168167192041874,-0.026985549015924332
1783002484007222800,1.140222900390625,-0.02372808158993721,-0.09035239803306758,-0.013471841317787765
1783002484017275100,1.150275146484375,0.02275602168738842,-0.12758326406832785,-0.008667728971689938
1783002484027327000,1.160326904296875,0.0032166239589452744,-0.12303473391849547,0.03441960800681263
1783002484037379000,1.170379150390625,-0.04509235665798187,-0.07774743921030312,0.09027407209984957
1783002484047430100,1.18043017578125,-0.028698855739831924,-0.053327283702977,0.029789463988132772
1783002484057482000,1.19048193359375,-0.12880816622078417,-0.012357760862354189,-0.09296528394520283
1783002484067534000,1.2005341796875,-0.13980769914090632,-0.03335170478066429,-0.06578004763871431
1783002484077586000,1.2105859375,-0.10959785431623459,-0.05174173154458403,-0.03019665654953569
1783002484087638000,1.220637939453125,-0.08760872534811497,-0.05482117552254349,-0.12674823801629245
1783002484097690000,1.230690185546875,0.010029226583242417,-0.04411355648739263,-0.0972560399416834
1783002484107742000,1.240741943359375,0.059978960144519804,-0.024876849766261873,-0.033610081722214816
1783002484117794000,1.2507939453125,0.05744798036217689,-0.04033197385575622,-0.02061634277757257
1783002484127845000,1.26084521484375,-0.0406336236834526,0.008972703267633914,-0.032410314011015
1783002484137897000,1.27089697265625,-0.1733101557701826,0.08224109736774116,0.03980904596019536
1783002484147949000,1.280948974609375,-0.17302081743478773,0.0794549189816229,0.024733130446635186
1783002484158001000,1.2910009765625,-0.2355769345909357,0.04256391589259729,-0.10110950049944221
1783002484168053000,1.301052978515625,-0.1781768850237131,-0.05143177054626867,-0.08517342449259012
1783002484178105000,1.31110498046875,-0.027664251995086667,-0.1518080431340262,-0.07145944498199969
1783002484188157200,1.3211572265625,0.0625321517586708,-0.16252274949708953,-0.10311967127807438
1783002484198209000,1.331208984375,0.1466109494149685,-0.1155229152499698,-0.10393745393436402
1783002484208261000,1.34126123046875,0.19478022930026054,-0.049795474581327284,-0.10552282342966646
1783002484218312000,1.35131201171875,0.0936807387381792,-0.002138491599727422,0.0032725919298827646
1783002484228364000,1.361364013671875,-0.03828384568691254,-0.036524635728355494,0.10191917291451245
1783002484238416000,1.371415771484375,-0.0743400784522295,-0.045872711647022515,0.16033464660197497
1783002484248468000,1.381468017578125,-0.17304595187604427,-0.006604768559895455,0.12477346734460443
1783002484258519800,1.391519775390625,-0.16845160982310772,-0.005086692147143185,0.07916238404214382
1783002484268572200,1.401572265625,-0.1719634173363447,-0.0398953908030875,0.06575286737084389
1783002484278624000,1.4116240234375,-0.15395780504643916,-0.0879492093488574,0.05932798542249947
1783002484288676000,1.421676025390625,-0.10828618719577789,-0.059509844795428216,0.00015763824712485073
1783002484298728000,1.43172802734375,-0.07750994065999985,-0.03956756535451859,-0.06948909475710242
1783002484308779000,1.441779052734375,-0.13446575359106064,-0.10033089907607064,0.04267028061021119
1783002484318830800,1.451830810546875,-0.23144904100596903,-0.1609995585178025,0.1571586469143629
1783002484328883000,1.461883056640625,-0.30864158627986904,-0.12410481083542108,0.18384839132148773
1783002484338934800,1.471934814453125,-0.26007015533447264,-0.1185817182986997,0.13496884427499026
1783002484348987100,1.481987060546875,-0.18729542650282383,-0.10277935167411342,0.09434705715980381
1783002484359039000,1.4920390625,-0.18636603669822216,-0.09721720576863735,0.02053323107138276
1783002484369091000,1.502091064453125,-0.07695522938668728,-0.1309096868109889,-0.012906097193807363
1783002484379143000,1.512142822265625,0.042538580521941184,-0.12736848880648613,-0.0604825622851029
1783002484389195000,1.522195068359375,0.11068564955294131,-0.09523180410508066,-0.087319350480102
1783002484399246000,1.53224609375,0.14639818344712258,-0.10171639861771836,-0.05316540767215192
1783002484409298000,1.5422978515625,0.12849018631279469,-0.061527431695535775,0.037412433147244156
1783002484419350000,1.55235009765625,-0.026244448325037955,0.005706906404718756,0.13694876604583114
1783002484429402000,1.562402099609375,-0.20878362021148203,0.03731648022579029,0.17778141943272202
1783002484439454000,1.572453857421875,-0.2287935580611229,0.08580727454987354,0.09893913419041782
1783002484449506000,1.582506103515625,-0.27984336181879044,0.07534136444926262,-0.021326281145215033
1783002484459558000,1.592557861328125,-0.18244506386220455,-0.0038675712815020233,-0.04287632457632571
1783002484469610000,1.60260986328125,-0.11723404828310012,-0.06242951336810365,-0.051465544951707125
1783002484479661000,1.6126611328125,-0.0869710119664669,-0.1289296463091392,-0.10033873532265424
1783002484489713000,1.622712890625,-0.015090601626038551,-0.18873526831390336,-0.16402677911818025
1783002484499765000,1.632764892578125,-0.03893500307202339,-0.22469094504788517,-0.14778686132654548
1783002484509816800,1.64281689453125,-0.07898761199712753,-0.2029603391517885,-0.018061361065134406
1783002484519869200,1.652869140625,-0.07886778500974177,-0.13799565388341434,0.028965580384619532
1783002484529921000,1.662921142578125,-0.1301759474426508,-0.08924993495019153,-0.003091865068115294
1783002484539973000,1.67297314453125,-0.1488672039091587,-0.11561357094179839,-0.0060443581981584425
1783002484550025000,1.68302490234375,-0.13013269282281398,-0.13959109724815935,-0.005606660900637507
1783002484560077000,1.6930771484375,-0.10556757588684558,-0.17353534282818436,-0.05106050781477242
1783002484570128000,1.7031279296875,-0.04644903196394443,-0.14152978282631373,-0.11401804537866264
1783002484580180000,1.713179931640625,0.0018190321207046509,-0.06404213619651272,-0.14050766410380602
1783002484590231800,1.723231689453125,0.03052490212321281,-0.034834691613726314,-0.12040453154537827
1783002484600284200,1.7332841796875,0.018856676161289214,0.0037574893699958917,-0.07290292178858071
1783002484610336000,1.7433359375,-0.10904197399914264,0.06995642000790685,0.021404607078433037
1783002484620388000,1.75338818359375,-0.25703005698621273,0.006728029613383114,0.09703267951458693
1783002484630440000,1.76343994140625,-0.164713592338562,-0.03269815450906753,0.09884268807861954
1783002484640492000,1.773491943359375,-0.19042144956886767,0.006771740890946239,-0.03581245060469955
1783002484650543900,1.7835439453125,-0.17186112600564957,-0.03736791815208271,-0.0695422497164458
1783002484660595000,1.793594970703125,-0.03704758189022541,-0.09052161712013185,0.009024835313670336
1783002484670646800,1.803646728515625,0.03313713044822216,-0.07175084741031751,-0.0531227741068229
1783002484680699100,1.81369921875,0.059062429821491236,-0.07619874846357852,-0.06975377357527614
1783002484690751000,1.8237509765625,0.045313890454173084,-0.0927274200687185,-0.0585828296110034
1783002484700803000,1.833802978515625,0.006430909830331802,-0.05055648554908111,-0.036082645848207175
1783002484710855000,1.84385498046875,0.010991349613666533,-0.050542000366002315,-0.04657189115863293
1783002484720907000,1.853906982421875,-0.04959785138368606,-0.08235960918087512,-0.07616101026907562
1783002484730958800,1.863958740234375,-0.11162439170777796,-0.12049189930157735,-0.1018399336658418
1783002484741011000,1.874010986328125,-0.046025838115811346,-0.14538451289255172,-0.14865564351771027
1783002484751062000,1.88406201171875,0.029949732583761213,-0.1518984613638371,-0.11154106080587953
1783002484761113900,1.89411376953125,0.03879705590605736,-0.1548049416613765,-0.013256335403583943
1783002484771166200,1.904166259765625,-0.0016530279040336607,-0.1740625998389907,-0.030186098622903227
1783002484781218000,1.914218017578125,-0.047807460835576056,-0.15358376583596692,-0.028739699206873772
1783002484791270100,1.924270263671875,-0.14893150131702423,-0.10338257826426997,0.04222129473369568
1783002484801322000,1.934322021484375,-0.31117958032488824,-0.1033927434652578,0.06863028597068041
1783002484811373800,1.944373779296875,-0.2850952909976244,-0.0703383593970444,0.0636109599713236
1783002484821426000,1.954426025390625,-0.3731494220256805,-0.0314295867448207,0.024745405406318602
1783002484831478000,1.96447802734375,-0.3226034761369228,-0.07640879275137558,0.040324302005954084
1783002484841528800,1.97452880859375,-0.19547814843654632,-0.11333877614391967,0.047963418582268054
1783002484851581200,1.984581298828125,-0.11586918967068195,-0.09646193042192608,-0.03435271678306162
1783002484861633000,1.994633056640625,0.024247137027978895,-0.12516882333774118,0.014431626260653137
1783002484871685000,2.00468505859375,0.07056991226375102,-0.1535199981510639,0.08601893540602176
1783002484881737000,2.014737060546875,0.04409282422661781,-0.14517221271558664,0.08929653230458498
1783002484891789000,2.0247890625,0.00036649522483348846,-0.10508831360307522,0.1095102125653997
1783002484901841000,2.0348408203125,-0.07500175723135472,-0.09686016335873864,0.12075330845043063
1783002484911893000,2.04489306640625,-0.08256254787445068,-0.10318381342231295,0.10480247326586395
1783002484921943800,2.05494384765625,-0.09898469036519526,-0.08778669399721548,-0.007082067215442657
1783002484931996200,2.06499609375,-0.0694119744002819,-0.11152511431807652,-0.04910648767016828
1783002484942048000,2.075048095703125,0.005734159737825394,-0.1346915434372611,-0.008166464918665588
1783002484952100000,2.08510009765625,0.031124037060141562,-0.1610513069713488,0.023997436583228407
1783002484962152000,2.09515185546875,0.05833294650316238,-0.17956318828295914,0.01995758660789579
1783002484972204000,2.1052041015625,0.060606736654043196,-0.17444582700291647,0.05181698873788118
1783002484982255900,2.115255859375,-0.037731472501158714,-0.17627565451227128,0.1300221816530451
1783002484992308000,2.125307861328125,-0.05427753363251686,-0.18209352874448523,0.13246018592230974
1783002485002360000,2.135360107421875,-0.0652209524512291,-0.15939550258833915,0.04488159998413175
1783002485012410000,2.14541015625,-0.12919804232120513,-0.20263545457897705,-0.15237141263782977
1783002485022462500,2.15546240234375,-0.05572480983138084,-0.32254659485053266,-0.14412377224173395
1783002485032514300,2.165514404296875,-0.07104980473518371,-0.4510889497419819,-0.17799984795637427
1783002485042566400,2.17556640625,-0.006995557975769042,-0.5340551099812612,-0.24934235202781854
1783002485052618200,2.1856181640625,0.07401099262833595,-0.40088370704967524,-0.11397785949874668
1783002485062670300,2.19567041015625,0.008633972832560538,-0.2109558496840298,-0.016986425310000778
1783002485072722200,2.20572216796875,-0.09903262116014958,-0.12436937092258595,-0.005636471517011523
1783002485082774300,2.215774169921875,-0.2743494405776262,-0.09804669712902978,0.08671871770583092
1783002485092826400,2.225826416015625,-0.26233108600378036,-0.021706567433383315,0.16894764971174298
1783002485102877200,2.235877197265625,-0.3160609226256609,0.10308879208262078,0.20052056305054575
1783002485112929300,2.24592919921875,-0.2776572499513626,0.07982545106075703,0.2526073086405173
1783002485122981400,2.2559814453125,-0.22497429203391073,0.03824536314031575,0.308326200187765
1783002485133033200,2.266033203125,-0.27957506627142426,0.03367530386197613,0.3230854875002056
1783002485143085300,2.276085205078125,-0.23403321228027343,0.07311015306478366,0.28374405905175953
1783002485153137200,2.28613720703125,-0.21093699885308742,0.1636577266100794,0.23830281589087096
1783002485163189200,2.296189208984375,-0.28995325242280956,0.1583902162696235,0.14963859014045447
1783002485173241000,2.306240966796875,-0.21527882744967936,0.11022904662555083,0.07637333784550428
1783002485183293400,2.31629345703125,-0.14047814574837683,0.09417799333636648,0.05142411696277559
1783002485193344300,2.32634423828125,0.0016208792001008987,0.051641312510566785,0.015272278335876762
1783002485203396400,2.336396240234375,0.1242103170365095,0.005010448573157191,-0.05940145251750946
1783002485213448200,2.3464482421875,0.18839198956787584,-0.030861751128453758,-0.12276610957756638
1783002485223500300,2.356500244140625,0.18891864379048345,-0.03993551275092177,-0.13388802676834166
1783002485233552100,2.36655224609375,0.0729541770517826,-0.0928513935082592,-0.11573613787554204
1783002485243604200,2.376604248046875,0.08369184416532516,-0.1091917120676022,-0.14392777474559842
1783002485253656000,2.386656005859375,-0.0022241057902574538,-0.04933592164502479,-0.19446217632703483
1783002485263708400,2.39670849609375,-0.05335749617815017,-0.03593183920066804,-0.190006365961954
1783002485273760300,2.40676025390625,-0.006841244196891784,-0.031947692334791646,-0.18161621182262896
1783002485283811300,2.416811279296875,-0.003967150065302848,-0.01114328877236694,-0.23411051530018448
1783002485293863400,2.426863525390625,0.019823475366830826,-0.04396958143943921,-0.22475911491326986
1783002485303915300,2.436915283203125,-0.0028910452663898465,-0.06097951548919081,-0.1361662738986313
1783002485313967000,2.446967041015625,-0.1271434478789568,-0.04406029193019494,-0.04478533653542399
1783002485324019200,2.457019287109375,-0.14414251347482204,-0.02296116147120483,-0.0017667174115777015
1783002485334071000,2.467071044921875,-0.19850889443457126,0.013658239868516102,-0.11330445374920964
1783002485344123400,2.477123291015625,-0.23231296435892582,-0.03702937038009986,-0.14571414670571683
1783002485354175200,2.48717529296875,-0.15602701253592968,-0.10616033588191494,-0.06519187248721718
1783002485364227300,2.497227294921875,-0.05424538492858409,-0.11807552234223112,-0.02728080563545227
1783002485374278400,2.5072783203125,-0.0008656769186258316,-0.10034596878103912,-0.016202764119021593
1783002485384330200,2.517330322265625,0.06823650088012218,-0.0662771652395837,-0.04212627339400351
1783002485394382300,2.52738232421875,0.028424714973568913,-0.032982497008936476,0.036029052497446534
1783002485404434200,2.53743408203125,-0.040438393372297286,-0.07757288636099546,0.1221572934968397
1783002485414486300,2.547486328125,-0.111292383274436,-0.09332165050166659,0.130276521740295
1783002485424538000,2.5575380859375,-0.12456687538921832,-0.049374189562490206,0.06289740487448871
1783002485434590500,2.567590576171875,-0.18503391131162641,-0.02809227271538693,0.015910722369886932
1783002485444642300,2.577642333984375,-0.17475860101282595,-0.049577429650165136,0.025836196317709982
1783002485454694100,2.587694091796875,-0.14148703052997588,-0.0807104446012061,-0.0012295417949557304
1783002485464745200,2.5977451171875,-0.15425883381962777,-0.09888632629094644,-0.05819156527109444
1783002485474797300,2.60779736328125,-0.05511339993476867,-0.12406153794927521,-0.11376001549698411
1783002485484849200,2.61784912109375,0.013635726642608642,-0.11831326748770661,0.015998437185958028
1783002485494901200,2.6279013671875,0.0018657938718795776,-0.1313700982638169,0.12115597096718847
1783002485504953000,2.637953125,-0.040028643527626986,-0.12449217531834729,0.13012045439574868
1783002485515005400,2.64800537109375,-0.16150924333930014,-0.03590564531348645,0.12007990270089357
1783002485525057300,2.658057373046875,-0.16061200223863123,0.01572836524003651,-0.01107004087306559
1783002485535109400,2.668109375,-0.12742811003923415,0.021728459604782983,-0.1003546270115301
1783002485545161200,2.6781611328125,-0.23007190743386743,-0.006131716821203008,-0.11905523582827299
1783002485555212300,2.68821240234375,-0.16967033796310424,-0.036022659289278086,-0.17955774492286145
1783002485565264100,2.69826416015625,-0.07509995690882205,0.001243122795736417,-0.13943104784823954
1783002485575316200,2.708316162109375,-0.0036316345006227493,0.014292994108097626,-0.054927229712903494
1783002485585368000,2.7183681640625,-0.004616553884744644,-0.03084973646367434,-0.020513795718550682
1783002485595420400,2.72842041015625,-0.10451192935407161,-0.028338278799131512,0.07285667149405926
1783002485605472300,2.73847216796875,-0.03802081083655357,0.02574657267234288,0.10451072377767413
1783002485615524400,2.7485244140625,-0.04554711468815803,0.08331121081728488,-0.020024222103320062
1783002485625576200,2.758576171875,-0.08527063778936862,0.03182415956995683,-0.131655883802101
1783002485635628300,2.768628173828125,-0.03595978665351868,-0.06804806106935721,-0.08570040750876069
1783002485645679400,2.778679443359375,-0.007402969732880592,-0.10066103521273471,-0.080930307030119
1783002485655731200,2.788731201171875,0.038164018699526785,-0.10892387317796237,-0.2028033767580986
1783002485665783000,2.798782958984375,0.08711538887321948,-0.08896814973358996,-0.1339727459097281
1783002485675835100,2.808835205078125,0.06544774694442748,-0.05087092179311439,0.006123743577301502
1783002485685887200,2.81888720703125,-0.23020810103416442,0.036112378832767716,0.1961660576354712
1783002485695939300,2.828939208984375,-0.5289414567619561,0.1673178017538972,0.3654628861110657
1783002485705991200,2.8389912109375,-0.5350614009469747,0.2378777588792145,0.18150792914256453
1783002485716043300,2.849043212890625,-0.6212450619280337,0.26566351836211977,0.11560995421260595
1783002485726095000,2.85909521484375,-0.5524953508287668,0.1532304406199604,0.04965798407308757
1783002485736146200,2.869146240234375,-0.3661743223160505,-0.049674971740506585,-0.11319697478674351
1783002485746198300,2.8791982421875,-0.21651216863691805,-0.10752632700549437,-0.04959953188411891
1783002485756250000,2.88925,0.023806407523155212,-0.2646833116857335,-0.03350209130309522
1783002485766302500,2.899302490234375,0.027657822254300114,-0.28034612370915707,-0.204847595936805
1783002485776354300,2.909354248046875,-0.0068944356888532635,-0.19963320402307436,-0.171228088799119
1783002485786406400,2.919406494140625,0.1923158850133419,-0.33016127110533416,-0.12056677290238439
1783002485796458200,2.929458251953125,0.11050795489847659,-0.32383648853059854,-0.1797891425259411
1783002485806510300,2.93951025390625,-0.1043120228677988,-0.20351539748497305,-0.2084748465232551
1783002485816562200,2.949562255859375,-0.06195932030677795,-0.1563913340699859,-0.22046923569962382
1783002485826613200,2.95961328125,0.09398936629593371,-0.10091785038486123,-0.5159450509361923
1783002485836665000,2.9696650390625,0.13152911561727523,0.005894702328089624,-0.7632170994959772
1783002485846717400,2.979717529296875,0.21351766299605368,0.007398293557763099,-0.7136527850557118
1783002485856769300,2.989769287109375,0.2675263165593147,-0.1311808684351854,-0.3235466022059321
1783002485866821400,2.9998212890625,0.26487550978958607,-0.2042714948155917,0.17502324329838156
1783002485876873200,3.009873291015625,0.19602116927206514,-0.08723722515460103,0.2823158894121647
1783002485886925300,3.01992529296875,0.15533143148720263,0.062419439498661085,-0.00694605627823621
1783002485896977200,3.02997705078125,0.1073883615732193,0.1473796139662154,-0.22005210626609623
1783002485907029200,3.040029296875,-0.009956161347031593,0.14295135832834058,-0.05191588253509253
1783002485917080000,3.050080078125,0.05646364549994468,0.03217719024172984,-0.025203268709033725
1783002485927132400,3.06013232421875,0.07400690097510815,0.003867073524580337,-0.03813029909301549
1783002485937184300,3.070184326171875,0.009589081600308417,-0.02212007100456394,0.06942315338142216
1783002485947236400,3.080236328125,-0.11413549774587153,-0.09472171742478384,0.17183756246697157
1783002485957288200,3.0902880859375,-0.26044834099709985,-0.17495485423728824,0.23816950836740433
1783002485967340300,3.10034033203125,-0.2723240722298622,-0.11315888953236862,0.19161610271353274
1783002485977392000,3.11039208984375,-0.2564858671069145,-0.04820282596186735,0.11100019539482892
1783002485987444200,3.1204443359375,-0.20991525458991525,-0.09764989809747784,0.12999744907058775
1783002485997496300,3.130496337890625,-0.18423545441031455,-0.15496175792459396,0.0876238133193925
1783002486007551000,3.140551025390625,-0.25287176826298235,-0.1743369050020352,0.08395250439550728
1783002486017603000,3.15060302734375,-0.2726280236124992,-0.137982200746797,0.16975586082208902
1783002486027655200,3.1606552734375,-0.2618921100646257,-0.13781957579730078,0.21881478302348403
1783002486037707000,3.17070703125,-0.23478899908363818,-0.12578050722898915,0.11624430659338832
1783002486047759000,3.180759033203125,-0.20704934376478193,-0.10658720125816762,0.05466306235138327
1783002486057811000,3.19081103515625,-0.10703823296129703,-0.11564361902019009,0.12703688223194332
1783002486067863000,3.200863037109375,-0.11714461643397807,-0.10726330128828994,0.16835688074436037
1783002486077915000,3.210914794921875,-0.14398644613027572,-0.0950111927574966,0.19146346943508832
1783002486087967200,3.22096728515625,-0.12851765884160996,-0.01481073437188752,0.17375614597201347
1783002486098018000,3.23101806640625,-0.25330022280812264,0.06248890170541126,0.09630462096836417
1783002486108070100,3.241070068359375,-0.27666706987023354,0.07309785070563667,-0.23782968195378779
1783002486118122000,3.2511220703125,-0.13960019387006758,0.11173621805179863,-0.39228228477984667
1783002486128174000,3.261174072265625,-0.025264205116033552,0.13232527096364646,0.01708082559518516
1783002486138226000,3.271225830078125,0.036217560806870455,0.09072948771715164,0.25973858529254795
1783002486148278000,3.281278076171875,0.09540390926897525,0.07983069349145516,0.16451291866730897
1783002486158329900,3.291329833984375,0.0727191992521286,0.05853758396347984,0.0019108751226216553
1783002486168382000,3.3013818359375,0.013347557350993156,-0.017307489940931554,-0.10385631498955189
1783002486178434000,3.31143408203125,0.03789046245515346,-0.12963546562409028,-0.24808537423666566
1783002486188485000,3.321485107421875,0.0543149430334568,-0.16018530125916003,-0.2133308717196807
1783002486198537200,3.331537109375,-0.04139700927138328,-0.1733135167710483,-0.08716372152697295
1783002486208589000,3.341589111328125,-0.022910335466265676,-0.2439753633682616,-0.16441135798897594
1783002486218641200,3.35164111328125,-0.03260638457238674,-0.23332760302787645,-0.24324619057718663
1783002486228693000,3.36169287109375,-0.013394903624057769,-0.1794117240482941,-0.23177765190582722
1783002486238745000,3.3717451171875,0.03599719605445861,-0.14930903852568006,-0.23695640625059602
1783002486248797000,3.381796875,0.02888064204752445,-0.11936168969525024,-0.15146872817706317
1783002486258849000,3.39184912109375,0.009433598777651786,-0.10641468510231934,0.032695085769146676
1783002486268901000,3.401901123046875,-0.062198389759659765,-0.07809870033338666,0.21335553123690187
1783002486278952200,3.4119521484375,-0.12117547938525676,-0.026060716655431315,0.18893811567593366
1783002486289004000,3.422004150390625,-0.14563713594675062,-0.025842900053132323,0.015457535242289305
1783002486299056000,3.43205615234375,-0.21451310377418994,-0.052877841168735173,-0.09212514332663267
1783002486309108000,3.44210791015625,-0.17654957608282565,-0.07738837837325409,0.022204415686614812
1783002486319160000,3.45216015625,-0.05451484951972961,-0.07248308894131332,0.10263576021865009
1783002486329212000,3.4622119140625,-0.0033376199901103973,-0.06319537404091097,0.08266757915150373
1783002486339264300,3.47226416015625,0.011924831071496009,-0.08126037923470139,0.09737736476641148
1783002486349316000,3.482316162109375,-0.023092706295847892,-0.12208320534732192,0.12479560611117631
1783002486359368200,3.4923681640625,-0.02935468930006027,-0.11199699701298958,0.1615940355459228
1783002486369419000,3.5024189453125,-0.17599018863439558,-0.10476903678714297,0.21672394822407512
1783002486379471000,3.51247119140625,-0.2407926234126091,-0.14288471369976177,0.12355937884710728
1783002486389523000,3.52252294921875,-0.263866625007987,-0.2059520135147497,-0.10155340834204107
1783002486399575000,3.532574951171875,-0.3122562696456909,-0.2267518413667567,-0.11065039557646959
1783002486409627000,3.542626953125,-0.2056178496569395,-0.20019481996120883,-0.051971740908175704
1783002486419679000,3.552678955078125,-0.0716477706283331,-0.15241784559544175,-0.08930387536082417
1783002486429731000,3.56273095703125,-0.07579086178243159,-0.099849983691331,-0.09414287635721266
1783002486439783200,3.572783203125,0.02364040330648422,-0.059757672943500796,0.01168740558642894
1783002486449835000,3.5828349609375,0.024754502028226853,-0.031016548964520916,0.08791841235179454
1783002486459886000,3.592885986328125,-0.1656856522411108,-0.0027371790120843797,0.18524875963870435
1783002486469938000,3.60293798828125,-0.11764555169343947,-0.035536282278131694,0.1452758283536881
1783002486479990000,3.612989990234375,-0.07811608985960483,-0.029097718864306805,0.03288940276484936
1783002486490041900,3.623041748046875,-0.10568974096179008,-0.016699872586736456,-0.04355261640269309
1783002486500094000,3.633093994140625,-0.027357962524890898,-0.07232099371477961,-0.053211621434055265
1783002486510146000,3.64314599609375,0.031740123131871224,-0.11597278704247437,-0.039691885853931304
1783002486520198100,3.6531982421875,0.06897066037356853,-0.11220318710957654,-0.06496887738630175
1783002486530250000,3.66325,0.10723872396945952,-0.07672810609992593,-0.13494911666121334
1783002486540302000,3.673302001953125,0.15541384907364844,-0.02254073496889323,-0.10895126350838691
1783002486550353200,3.683353271484375,0.025129180559515952,-0.017243432278372346,0.017243213082663713
1783002486560405000,3.693405029296875,-0.2361608719587326,-0.10525458268122746,0.12229122207481413
1783002486570457000,3.70345703125,-0.17619126416444778,-0.09381565369684249,0.099629564139992
1783002486580509000,3.713509033203125,-0.2842021415501833,-0.005027765034139156,-0.09898706498537212
1783002486590561000,3.72356103515625,-0.3296756064802408,-0.1377201522771269,-0.24658465081751346
1783002486600613000,3.733613037109375,-0.2318167052745819,-0.25264817037386816,-0.15135112967938183
1783002486610665000,3.7436650390625,-0.12174363466203213,-0.2285955330046825,-0.054870458024367685
1783002486620717000,3.753717041015625,-0.05278524924814701,-0.18040992303909734,-0.03527633443400264
1783002486630769000,3.763768798828125,-0.07486088745594024,-0.16932364341728387,-0.1335953274320811
1783002486640820000,3.773820068359375,-0.1027478422909975,-0.13187153584677724,-0.22277948540337383
1783002486650872000,3.7838720703125,-0.06693418610990047,-0.10727246184227987,-0.03708681792207062
1783002486660924000,3.793923828125,-0.0555915388405323,-0.08380454729218036,0.1378888599075377
1783002486670976000,3.80397607421875,-0.09770400290489197,-0.05440048415875062,0.0849895923582837
1783002486681028000,3.814028076171875,-0.1449672738611698,-0.07318559292117133,0.037698373949155206
1783002486691080200,3.824080078125,-0.18079437404572962,-0.08092267171293496,0.08054229409322142
1783002486701132000,3.834132080078125,-0.08711071269810199,-0.0698469865503721,0.1314134533483535
1783002486711184100,3.84418408203125,-0.07423194190263747,-0.07277268300503492,0.11572590874247252
1783002486721236000,3.854236083984375,-0.0841384188890457,-0.06813939718119799,0.031380788300186396
1783002486731287000,3.864287109375,-0.02717442265152931,-0.028646614095941183,0.1027632955884561
1783002486741339000,3.8743388671875,-0.08371756312847137,-0.047278906916826964,0.13364771520644425
1783002486751391000,3.884390869140625,-0.1665834778636694,-0.0860451110268943,0.10201598435249179
1783002486761443000,3.894443115234375,-0.1913964320808649,-0.10564191976469009,0.05743851841408759
1783002486771495200,3.9044951171875,-0.11451251436471939,-0.13852998908897862,-0.041361718762293456
1783002486781547000,3.914547119140625,-0.04539630804061889,-0.16520113839348777,-0.06310447175391018
1783002486791599000,3.92459912109375,-0.03377835096120834,-0.18252046718597412,-0.009818141115829349
1783002486801651000,3.93465087890625,-0.04727963756918907,-0.1661890169196762,0.020990363721735773
1783002486811703000,3.944703125,-0.029193945780396458,-0.09306642449842766,0.03685742961298674
1783002486821753900,3.95475390625,-0.013961889857053756,-0.007262702745664864,0.021576273850910363
1783002486831806000,3.964805908203125,-0.10204115532636641,-0.008419288902264089,-0.07147409456185996
1783002486841858000,3.974858154296875,-0.12388649190962314,-0.02085599675234407,-0.16150263093542308
1783002486851910100,3.98491015625,-0.0896592281371355,-0.023353768384829162,-0.08737024041712284
1783002486861962000,3.9949619140625,-0.05461421824097633,-0.02450242696329951,0.04796086129900068
1783002486872014000,4.00501416015625,-0.03514613218307495,-0.09535614287080242,0.017168905737437307
1783002486882066000,4.01506591796875,-0.012931962287425994,-0.12416110759992152,-0.04592961119972169
1783002486892118000,4.025117919921875,-0.019421324306726453,-0.06273205824494361,-0.0071423825679346915
1783002486902169900,4.035169921875,0.016848843470215796,-0.11073179024960846,0.08930449641533196
1783002486912221000,4.045220947265625,-0.05268704957067966,-0.15534463802864773,0.03606635230053216
1783002486922273300,4.055273193359375,-0.1613151820719242,-0.14811041245879605,-0.07318593998104334
1783002486932325000,4.0653251953125,-0.1267161623775959,-0.11367261120816692,-0.1501802227364853
1783002486942377200,4.075377197265625,-0.14672726927101612,-0.09370965430540963,-0.09827150059454143
1783002486952429000,4.085428955078125,-0.2352361583292484,-0.14651625686883926,-0.011694054522924125
1783002486962481000,4.09548095703125,-0.14932254646122456,-0.15889858591686934,-0.03559548338577151
1783002486972533000,4.105532958984375,-0.044531800165772434,-0.09620461292630061,-0.03683021281249821
1783002486982584800,4.115584716796875,-0.0030330840855836865,-0.07677174431225285,0.027079620507545768
1783002486992637200,4.12563720703125,-0.024036709147691727,-0.07452478736937046,0.08468458152972161
1783002487002688000,4.13568798828125,-0.09213058668673038,-0.029951687078829854,0.1456619050618261
1783002487012740600,4.14574072265625,-0.16022621779143809,0.021158669493347406,0.17206961765717713
1783002487022792700,4.155792724609375,-0.20631810688078403,0.00291442614197731,0.09498524546548724
1783002487032844500,4.165844482421875,-0.19176351182758808,-0.07625053344974293,-0.011851838900521397
1783002487042896400,4.175896484375,-0.1415133340150118,-0.16113346882946789,-0.11078505480680614
1783002487052948700,4.18594873046875,-0.015869184783101082,-0.18766444247830658,-0.06377064404506236
1783002487063000600,4.19600048828125,0.07801204496324061,-0.18625037442930042,-0.0579881151208654
1783002487073052700,4.206052734375,0.16713643557131289,-0.1739626831284724,-0.07434888281319289
1783002487083104500,4.2161044921875,0.1381792211562395,-0.08417120691379532,-0.002012581931427121
1783002487093155600,4.226155517578125,0.030106968972086905,-0.013102039891015738,-0.028623525481298564
1783002487103207700,4.236207763671875,-0.13370529061257838,0.04118802442951128,0.15286405499298125
1783002487113259500,4.246259521484375,-0.23387539137005806,0.0635569282291457,0.15620569357108324
1783002487123311600,4.2563115234375,-0.251374807703495,0.028254692168906328,0.026808950340002774
1783002487133363700,4.26636376953125,-0.2959960397183895,-0.1273552457324229,-0.09247329917717724
1783002487143415800,4.276415771484375,-0.2933861494809389,-0.2945900453779846,-0.09160374980103224
1783002487153467600,4.286467529296875,-0.11170680929422377,-0.2754231159574352,-0.054130599442496895
1783002487163519700,4.296519775390625,-0.05880173305869102,-0.22019518626490606,-0.11727894687075167
1783002487173571600,4.306571533203125,-0.03779343182146549,-0.1938098864307627,-0.08536839907541871
1783002487183622700,4.31662255859375,-0.05802139633595943,-0.1541245216491632,-0.11918814149294048
1783002487193674500,4.326674560546875,-0.13352467334866522,-0.08826329853301867,-0.07869509532395749
1783002487203726600,4.3367265625,-0.014430676412582397,-0.008541837569698691,0.06653773413822055
1783002487213778700,4.34677880859375,0.043532267734408374,0.0831658657961525,0.03820698105841875
1783002487223830800,4.356830810546875,-0.1121896243751049,0.05005553202331066,0.08427771776188164
1783002487233882600,4.366882568359375,-0.14055880976915358,-0.00999333328595385,0.15906696475371718
1783002487243934700,4.376934814453125,-0.09489011452794074,0.023080997591745107,0.11296952270641922
1783002487253986600,4.386986572265625,-0.05729892728030681,0.021583708238694814,0.022950448280945418
1783002487264037600,4.39703759765625,-0.011092471900582313,-0.026411237992998212,-0.00006944850701838732
1783002487274089500,4.40708935546875,-0.012161562436819076,-0.0750516242550686,-0.05606149443984031
1783002487284141600,4.4171416015625,-0.02514671621620655,-0.1456392000396736,-0.11534523886181414
1783002487294193400,4.427193359375,-0.06959785236120224,-0.15966275695608928,-0.12513817247115075
1783002487304245800,4.437245849609375,-0.0477881716132164,-0.10236382967578246,-0.09487615906782448
1783002487314297600,4.447297607421875,0.0006868132203817367,-0.012905823199171572,-0.022819698040746152
1783002487324349700,4.457349609375,-0.0684925214678049,0.0012191847977228462,0.061623220220208164
1783002487334401500,4.467401611328125,-0.15473872629106045,-0.03580879734288901,0.10955375944618136
1783002487344453600,4.47745361328125,-0.15148703101873398,-0.010387501969002186,0.05982274666950106
1783002487354505500,4.48750537109375,-0.11668342866301536,0.023557529062312094,-0.0005547843385487794
1783002487364556500,4.497556640625,-0.11498714613914489,-0.025024240614008156,0.0276394828800112
1783002487374608600,4.507608642578125,-0.12529226705431937,-0.08289696746058761,0.005658902544528246
1783002487384660700,4.51766064453125,-0.10041033925414085,-0.0759616517720744,-0.03764065241254866
1783002487394712600,4.527712646484375,-0.06277706643044949,-0.05701278554899618,-0.0007954246940091252
1783002487404764700,4.5377646484375,-0.0739127929508686,-0.05682902647992596,0.006055464114062488
1783002487414816500,4.54781640625,-0.12063713472485542,-0.053470418500714004,0.04253247957471758
1783002487424868600,4.55786865234375,-0.19300503632128238,-0.03447320135757327,0.08171057068761438
1783002487434920400,4.56792041015625,-0.1977741504192352,-0.004939173435233533,0.07824884939379989
1783002487444971500,4.577971435546875,-0.19337620772123335,0.00008329436928033829,-0.0455718472706154
1783002487455023600,4.588023681640625,-0.1526747794985771,-0.024795601223595438,-0.08867938678693026
1783002487465075700,4.59807568359375,-0.05659633196890354,-0.04600355321876704,-0.013033340302668511
1783002487475127800,4.6081279296875,0.04411971223354339,-0.04665984343672171,-0.02121102073509246
1783002487485179600,4.6181796875,0.08993219985961913,-0.05195469844182953,-0.053180751371756194
1783002487495231700,4.628231689453125,0.15524492224752903,-0.049506081447005267,-0.05344389581996947
1783002487505283600,4.63828369140625,0.14907996987700461,-0.014957805559225379,0.0015741905141621827
1783002487515335700,4.648335693359375,0.024168226572871206,0.0063864131014794105,0.061083743048645556
1783002487525387500,4.658387451171875,-0.1566401759982109,-0.01304676603982225,0.11474906306695193
1783002487535438600,4.6684384765625,-0.2088292129188776,-0.04136690639406442,0.0745838240802288
1783002487545490700,4.67849072265625,-0.20071078839302062,-0.05747205535750836,-0.12047434537857771
1783002487555542800,4.688542724609375,-0.2793558705627918,-0.10951097975037992,-0.2032341328581795
1783002487565594600,4.6985947265625,-0.2026023012280464,-0.18613955273227764,-0.11170257151052355
1783002487575646700,4.708646728515625,-0.011913140633702277,-0.15943501261482015,-0.09100910837613045
1783002487585698600,4.718698486328125,0.019539397728443146,-0.11555862588416785,-0.12874171338845045
1783002487595750700,4.728750732421875,-0.025371172621846197,-0.12987181339692325,-0.11267072242293506
1783002487605802500,4.738802490234375,-0.0575128622919321,-0.13268075160412118,-0.001999284058436751
1783002487615854800,4.748854736328125,-0.042731472745537756,-0.08688254823172464,0.023251988510787486
1783002487625905400,4.758905517578125,-0.09330372211933136,-0.02990286123473197,0.0509718796832487
1783002487635957800,4.768957763671875,-0.19802724839746952,-0.04045678754551336,0.09828085294477641
1783002487646009600,4.779009521484375,-0.17772037342786787,-0.0511724437566474,0.0908433598877862
1783002487656061700,4.789061767578125,-0.16380407627820967,-0.0409812680773437,0.03883413651343435
1783002487666113500,4.799113525390625,-0.10539514192938804,-0.0670694298621267,0.06820343886073678
1783002487676165600,4.80916552734375,-0.06678805563747882,-0.08045527339689433,0.0855999062763527
1783002487686217500,4.819217529296875,-0.05086100318729877,-0.03765015089325607,0.034304018803127105
1783002487696269600,4.82926953125,-0.059927522218227385,0.019850856564100832,-0.018384272876568138
1783002487706321700,4.83932177734375,-0.10446341403722763,-0.016146394289284945,-0.015778693488053976
1783002487716372700,4.849372802734375,-0.09568623334169388,-0.07668969205198808,0.02569638598822057
1783002487726424600,4.859424560546875,-0.13563771997988222,-0.08120008214851841,0.04050959544498473
1783002487736476700,4.8694765625,-0.09470423656702041,-0.06340007543331012,0.043121385378576814
1783002487746528500,4.879528564453125,-0.08331365850269794,-0.05323319394504651,-0.023102387439645825
1783002487756580600,4.88958056640625,-0.04672317273020744,-0.06430719860717654,-0.07887143827155232
1783002487766632400,4.899632568359375,-0.017882278171181678,-0.06907583778109401,-0.05127082609720528
1783002487776684500,4.9096845703125,0.008325345274806021,-0.07803960882360116,-0.0018294439168646932
1783002487786736600,4.919736572265625,0.0001467149943113327,-0.0772326032896526,-0.02044964444115758
1783002487796788700,4.929788818359375,-0.14513035546839237,-0.07038396123759448,-0.05214903370384127
1783002487806839800,4.93983984375,-0.18101649236381054,-0.0309818521104753,-0.052216180655919014
1783002487816891600,4.9498916015625,-0.21961539534926414,-0.012527728868089616,-0.11708989057205617
1783002487826943700,4.95994384765625,-0.1961672997444868,-0.09921479106033221,-0.11266396388858556
1783002487836995600,4.96999560546875,-0.10379238290786742,-0.16260405283868312,-0.030761341227591037
1783002487847047700,4.980047607421875,-0.04055646679401397,-0.15898295799838377,0.008885682571306824
1783002487857099500,4.990099609375,0.026052725145220754,-0.12138331344965844,0.02810381245613098
1783002487867151600,5.000151611328125,0.10443944863975048,-0.0845947112891823,0.012284677359834312
1783002487877203700,5.01020361328125,0.08513561323285103,-0.019059779251646248,0.028504648341983557
1783002487887255600,5.020255615234375,-0.004252396747469901,0.03296592033347115,0.03477682394664734
1783002487897306600,5.030306640625,-0.039058921712636946,0.03677227208018303,0.022912052499316632
1783002487907358700,5.040358642578125,-0.1258358724117279,0.03654346829298884,-0.03152111008632928
1783002487917410600,5.05041064453125,-0.18564999738335608,-0.025810513887181877,-0.07812021804545075
1783002487927462700,5.060462646484375,-0.16468378172218798,-0.10259215853894128,-0.0842692787270993
1783002487937514500,5.070514404296875,-0.10090426025092601,-0.09516816428434104,-0.08296488159764558
1783002487947566600,5.080566650390625,-0.08091887232065201,-0.10146682603713124,-0.10736888968776911
1783002487957618700,5.09061865234375,-0.08027823632955551,-0.13751191635392607,-0.05854578553624451
1783002487967670800,5.1006708984375,-0.07799275574088096,-0.07312856550430878,0.013940627873316406
1783002487977722600,5.11072265625,-0.024459318473935125,-0.037609965013340116,0.03908650383930653
1783002487987773700,5.120773681640625,-0.07808394115567206,-0.04506656462959945,0.029713585740327834
1783002487997825500,5.130825439453125,-0.07154489477574826,-0.0630917218701914,-0.004147913459688425
1783002488007873000,5.140873046875,-0.06335515857934951,-0.09257034807717428,-0.07346618169452995
1783002488017925000,5.150925048828125,-0.05872749877870082,-0.1135533870089799,-0.1017723483223468
1783002488027977200,5.160977294921875,-0.005413841742277145,-0.11619586434178053,-0.0748281907627359
1783002488038029300,5.171029296875,-0.008894669595360755,-0.08869469395391642,-0.04070928273554891
1783002488048081200,5.1810810546875,-0.00995499230325222,-0.0559304154060781,0.02268178740739822
1783002488058133200,5.19113330078125,-0.05935293720066547,-0.05695530147440731,0.060321928363293406
1783002488068184000,5.20118408203125,-0.14332301378548146,-0.10804781186264008,0.07867131258957087
1783002488078236200,5.211236083984375,-0.23202947124242781,-0.14745393957775085,0.07951609285064042
1783002488088288000,5.2212880859375,-0.1852525224983692,-0.1672219766966067,0.02633358791321516
1783002488098340000,5.231340087890625,-0.10997311736941337,-0.16085899926964192,-0.015242540784738957
1783002488108392200,5.24139208984375,-0.06999415820240974,-0.1987681481589563,0.0014326631516218184
1783002488118444300,5.2514443359375,-0.0060392801642417905,-0.20190761522846296,0.027655264971032736
1783002488128496000,5.26149609375,0.040457098072767254,-0.17172277698088437,-0.01120181402657181
1783002488138548200,5.27154833984375,-0.00047112464308738706,-0.1542311238287948,0.023662651670910417
1783002488148600000,5.28160009765625,-0.006632569882273674,-0.15273374314419924,0.04773461479507386
1783002488158651100,5.291651123046875,-0.13031857078373432,-0.14968984540365635,0.054827934056892985
1783002488168703000,5.301702880859375,-0.2690174318999052,-0.14068318506749347,0.11732512410003691
1783002488178755000,5.311755126953125,-0.19979542711377143,-0.11049664805317297,0.10989004219584167
1783002488188807000,5.321806884765625,-0.22288521080017087,-0.08893792812526226,-0.01197141015958041
1783002488198859300,5.331859375,-0.21119360396265982,-0.1446293288773857,-0.05097370631415397
1783002488208911000,5.3419111328125,-0.10379296742975712,-0.1527896015172824,-0.02796608448587358
1783002488218963200,5.351963134765625,-0.09754442842900753,-0.13954081009933725,-0.04100095915850252
1783002488229015000,5.36201513671875,-0.010970306825637816,-0.15232479701712726,-0.07945574096553028
1783002488239067100,5.372067138671875,0.018620529317855832,-0.14663842194378376,-0.09705711983609944
1783002488249118200,5.3821181640625,-0.0421370139837265,-0.1787763852868229,-0.14350757657215
1783002488259170000,5.392170166015625,-0.0882996302217245,-0.1869307213762775,-0.054045003518275916
1783002488269222100,5.40222216796875,-0.08938859450221061,-0.1003937899781391,0.06828647750169038
1783002488279274200,5.412274169921875,-0.1329945119947195,-0.009805610427819193,-0.000029335692338645455
1783002488289326000,5.422326171875,-0.14911737927794455,-0.03456599420756101,-0.07299085580036044
1783002488299378200,5.432378173828125,-0.16385843681395054,-0.07900017921775579,-0.02402465338371694
1783002488309430000,5.442429931640625,-0.14142857834100722,-0.1223422581423074,-0.009152151487767695
1783002488319482000,5.452482177734375,-0.08122691535651683,-0.15542685468569398,-0.08062065655905754
1783002488329534000,5.462533935546875,-0.042021278649568554,-0.1351250212173909,-0.04040028985161334
1783002488339585000,5.4725849609375,0.06658581106364726,-0.10630571743566543,-0.036902803124673665
1783002488349637000,5.48263720703125,0.07022796695828437,-0.0824222626209259,-0.04277794223576784
1783002488359689200,5.492689208984375,0.050880876931548115,-0.07872753628883511,-0.0040579336212947965
1783002488369741300,5.5027412109375,-0.07983224612772465,-0.030549671238288282,-0.058110170597955584
1783002488379793200,5.512793212890625,-0.15430734913647173,-0.013028591062314807,-0.039675409643165765
1783002488389845200,5.52284521484375,-0.1882254008293152,-0.044245274841971695,0.02076601691395044
1783002488399897000,5.53289697265625,-0.23363690643906593,-0.0636238194528967,0.02015329184308648
1783002488409949200,5.54294921875,-0.17901508941352368,-0.05832213284820318,0.06179908824376761
1783002488420001000,5.5530009765625,-0.14414485156238077,-0.04655607253499329,0.10969075676407665
1783002488430052000,5.563052001953125,-0.06751286278069019,-0.05726630365233868,0.08666782776881009
1783002488440104000,5.57310400390625,-0.012609306204319,-0.10985307118631898,0.1255435384016484
1783002488450156300,5.58315625,0.01594634167253971,-0.15516897093448787,0.21998565343376247
1783002488460208000,5.5932080078125,-0.049840427967906,-0.09225867004580796,0.1072804076867178
1783002488470260200,5.60326025390625,-0.12627894000411033,0.026749913629144428,0.08532160079162568
1783002488480312000,5.61331201171875,-0.16115034689903257,0.08890833670459687,0.12195362415090202
1783002488490364200,5.6233642578125,-0.2856383118331432,0.08653674873504787,0.10316212218031287
1783002488500416000,5.633416015625,-0.36689153067469593,0.0259909119553864,-0.01071136362850666
1783002488510468000,5.643468017578125,-0.36964930495023723,-0.004665361462533474,-0.15005239510573445
1783002488520519000,5.653518798828125,-0.24546938305199145,-0.04312286494961008,-0.20091705155484377
1783002488530571300,5.6635712890625,-0.10565408512651919,-0.1097042555664666,-0.1560379357887432
1783002488540623000,5.673623046875,-0.0677256287485361,-0.17527789391288534,-0.21062862702365964
1783002488550675200,5.68367529296875,0.0791325734257698,-0.2687856872369535,-0.24744071965757755
1783002488560727000,5.69372705078125,0.22211422642767428,-0.24057277011685071,-0.1712476702824235
1783002488570779100,5.703779052734375,0.2642839736372232,-0.1100225825343281,-0.07353091749381274
1783002488580831000,5.7138310546875,0.2909580455511808,0.0007420870715752244,-0.012518084256909787
1783002488590883000,5.723883056640625,0.15674129828512667,0.056440556885302064,0.12259389481581746
1783002488600934100,5.73393408203125,-0.09040741615593433,0.02559902656096965,0.12163769006952643
1783002488610986200,5.743986328125,-0.02837269252538681,0.083896609489806,-0.09394391971901059
1783002488621038000,5.7540380859375,1.1679255889981985,0.3120464262872934,0.01027728306017816
1783002488631090200,5.764090087890625,0.8939724542617797,0.7627218633249402,0.7932102328300475
1783002488641142000,5.77414208984375,-0.5819114149272442,0.06809418806629255,0.7339157478183508
1783002488651194000,5.784194091796875,-0.07690320693850516,-0.18742442317735403,-0.26788181546609846
1783002488661246000,5.794245849609375,-0.6372644688367843,0.22911583055173976,-0.4679764812547713
1783002488671298000,5.804298095703125,-0.901435629749298,-0.0011926803832873702,-0.18434545412342995
1783002488681350100,5.81435009765625,-0.8651806595414876,-0.3471136845478788,-0.0703219653846696
1783002488691401200,5.824401123046875,-0.9901257205933331,-0.26834261964457107,-0.1570337784256786
1783002488701453300,5.834453369140625,-1.0227402884721755,-0.245588789914269,-0.331973800420016
1783002488711505200,5.844505126953125,-0.5564619163721799,-0.36186076996587213,-0.5166560122171416
1783002488721557200,5.85455712890625,-0.3997293859153986,-0.43010552721768613,-0.675737261224538
1783002488731609000,5.864609130859375,-0.11264905858039856,-0.3606619886353612,-0.5803155240379274
1783002488741661200,5.8746611328125,0.20427403383255005,-0.2248547755737789,-0.31998441621232776
