time,seconds_elapsed,z,y,x
1783002482951775000,0.08477490234375,0.029187677428126335,-0.034643400460481644,-0.009553512558341026
1783002482961827000,0.0948271484375,0.04194694384932518,-0.023801546543836594,0.030103271827101707
1783002482971879000,0.10487890625,0.07051174342632294,-0.009346706792712212,0.0696466863155365
1783002482981930000,0.114929931640625,0.08719372004270554,0.013975543901324272,0.09883447736501694
1783002482991982000,0.124982177734375,0.0951688215136528,0.0347982682287693,0.11458148062229156
1783002483002033400,0.135033447265625,0.09335924685001373,0.03543563559651375,0.14145450294017792
1783002483012085500,0.14508544921875,0.08398332446813583,0.05558617785573006,0.17422549426555634
1783002483022137300,0.155137451171875,0.07868791371583939,0.057563893496990204,0.19513936340808868
1783002483032189700,0.165189697265625,0.10494774580001831,0.03166065737605095,0.19937245547771454
1783002483042241500,0.175241455078125,0.14976173639297485,0.012709418311715126,0.19642756879329681
1783002483052293600,0.185293701171875,0.19864778220653534,-0.01772492006421089,0.17215818166732788
1783002483062345500,0.195345458984375,0.24286651611328125,-0.0633954256772995,0.12202485650777817
1783002483072396500,0.205396484375,0.2696680426597595,-0.08868639916181564,0.061716776341199875
1783002483082448400,0.215448486328125,0.27877378463745117,-0.11039119958877563,-0.0034948820248246193
1783002483092500500,0.22550048828125,0.25754573941230774,-0.08865367621183395,-0.046407993882894516
1783002483102552300,0.23555224609375,0.2028026282787323,-0.04850538820028305,-0.0700783059000969
1783002483112604700,0.245604736328125,0.12763462960720062,-0.029625706374645233,-0.08547484129667282
1783002483122656500,0.255656494140625,0.0512729212641716,-0.014930582605302334,-0.09603219479322433
1783002483132708600,0.26570849609375,-0.013814468868076801,0.00383618101477623,-0.09740052372217178
1783002483142760400,0.275760498046875,-0.050457704812288284,0.01652669534087181,-0.09344786405563354
1783002483152812500,0.2858125,-0.040708404034376144,0.06128458306193352,-0.07567498087882996
1783002483162863600,0.295863525390625,-0.0014096284285187721,0.09811603277921677,-0.055714819580316544
1783002483172915500,0.30591552734375,0.031204240396618843,0.09141631424427032,-0.03709240257740021
1783002483182967600,0.315967529296875,0.04888789728283882,0.06368720531463623,-0.014156192541122437
1783002483193019400,0.326019287109375,0.06257441639900208,0.019167941063642502,-0.005354444496333599
1783002483203071500,0.336071533203125,0.05004178360104561,-0.02150397002696991,-0.010480948723852634
1783002483213123600,0.34612353515625,0.03199833631515503,-0.037588927894830704,-0.024895841255784035
1783002483223175400,0.356175537109375,0.01115543395280838,-0.018243346363306046,-0.03708893805742264
1783002483233227500,0.3662275390625,-0.00006126845255494118,0.020678751170635223,-0.03144223615527153
1783002483243278600,0.376278564453125,-0.015868205577135086,0.04233879595994949,-0.011088763363659382
1783002483253330400,0.386330322265625,-0.0343494787812233,0.06103232130408287,0.003447568044066429
1783002483263382500,0.396382568359375,-0.03982466086745262,0.06274258345365524,0.006712337955832481
1783002483273434400,0.406434326171875,-0.04338211193680763,0.04558330401778221,-0.005740070249885321
1783002483283486700,0.41648681640625,-0.05409672483801842,0.019948415458202362,-0.027443522587418556
1783002483293538600,0.42653857421875,-0.06779415905475616,-0.012901144102215767,-0.06685404479503632
1783002483303590700,0.436590576171875,-0.073239266872406,-0.03168973699212074,-0.10284853726625443
1783002483313642500,0.446642578125,-0.07375352084636688,-0.02059314399957657,-0.11194030195474625
1783002483323694600,0.456694580078125,-0.07930415868759155,0.03849635645747185,-0.08997025340795517
1783002483333745400,0.466745361328125,-0.08581452071666718,0.07851248234510422,-0.053417839109897614
1783002483343797500,0.476797607421875,-0.0944863110780716,0.07636013627052307,-0.014149269089102745
1783002483353849300,0.486849365234375,-0.10543297231197357,0.04239923506975174,0.017376698553562164
1783002483363901700,0.496901611328125,-0.11584576219320297,0.01655092090368271,0.02507852204144001
1783002483373953500,0.50695361328125,-0.12239579856395721,0.016146652400493622,0.011179482564330101
1783002483384005600,0.517005615234375,-0.10486694425344467,0.005682710558176041,-0.018559955060482025
1783002483394057500,0.527057373046875,-0.08104310184717178,0.014570745639503002,-0.03219880163669586
1783002483404109600,0.537109619140625,-0.058007314801216125,0.03134699910879135,-0.028760451823472977
1783002483414161400,0.547161376953125,-0.028015322983264923,0.040700823068618774,-0.00666766706854105
1783002483424212500,0.55721240234375,0.005896653048694134,0.030662212520837784,0.024146946147084236
1783002483434264300,0.567264404296875,0.026273030787706375,0.0009599765762686729,0.044472724199295044
1783002483444316400,0.57731640625,0.03741919994354248,-0.031793899834156036,0.04895574599504471
1783002483454368500,0.587368408203125,0.03532329201698303,-0.035647496581077576,0.03993109613656998
1783002483464420600,0.597420654296875,0.02202078327536583,-0.016922850161790848,0.013804357498884201
1783002483474472400,0.607472412109375,0.015623603016138077,-0.012454599142074585,-0.016730383038520813
1783002483484524500,0.617524658203125,-0.002220895141363144,-0.027943216264247894,-0.028222661465406418
1783002483494576400,0.627576416015625,-0.010509984567761421,-0.029503561556339264,-0.025574680417776108
1783002483504628500,0.63762841796875,-0.006938553880900145,-0.010414592921733856,-0.019234657287597656
1783002483514679600,0.647679443359375,-0.0007853196002542973,0.008928745985031128,-0.015154693275690079
1783002483524731400,0.6577314453125,0.005878950469195843,0.027691997587680817,-0.008787132799625397
1783002483534783500,0.667783447265625,0.0038980916142463684,0.018097426742315292,-0.012518487870693207
1783002483544835600,0.677835693359375,-0.0035696751438081264,-0.015086350962519646,-0.02897736057639122
1783002483554887400,0.687887451171875,0.00739296106621623,-0.04748663678765297,-0.04923442751169205
1783002483564939500,0.697939453125,0.0050635309889912605,-0.10318895429372787,-0.06674832105636597
1783002483574991400,0.707991455078125,0.000655733048915863,-0.09694304317235947,-0.050062015652656555
1783002483585043500,0.71804345703125,0.009324653074145317,-0.03645135462284088,-0.018572881817817688
1783002483595095300,0.72809521484375,0.018355432897806168,0.017094429582357407,0.010853982530534267
1783002483605146400,0.738146484375,0.017741180956363678,0.04919218271970749,0.025300737470388412
1783002483615198700,0.74819873046875,0.010804979130625725,0.053198911249637604,0.026654422283172607
1783002483625250600,0.75825048828125,-0.00024549709632992744,0.03482319042086601,0.011542430147528648
1783002483635302700,0.768302734375,-0.012009212747216225,0.018283098936080933,-0.0236459169536829
1783002483645354500,0.7783544921875,-0.013975445181131363,-0.01379152201116085,-0.056621238589286804
1783002483655406600,0.788406494140625,-0.01558505930006504,-0.033975619822740555,-0.06649384647607803
1783002483665458400,0.79845849609375,-0.015193682163953781,-0.031627994030714035,-0.040466006845235825
1783002483675510500,0.808510498046875,-0.017101038247346878,-0.021322892978787422,-0.008499284274876118
1783002483685561300,0.818561279296875,-0.013771569356322289,-0.015843205153942108,0.01890590973198414
1783002483695613400,0.828613525390625,0.001265169819816947,-0.024312324821949005,0.02800406515598297
1783002483705665500,0.83866552734375,0.013634194619953632,-0.025038059800863266,0.02688760682940483
1783002483715717600,0.848717529296875,0.026077549904584885,-0.02396853268146515,0.006642787717282772
1783002483725769500,0.85876953125,0.044523000717163086,-0.01900044083595276,-0.012468751519918442
1783002483735821600,0.868821533203125,0.05055266246199608,-0.031850993633270264,-0.01587599888443947
1783002483745873400,0.878873291015625,0.04330454021692276,-0.04771876335144043,0.01609000563621521
1783002483755925500,0.888925537109375,0.03318293020129204,-0.024998269975185394,0.058896854519844055
1783002483765977300,0.898977294921875,0.026539962738752365,0.010783204808831215,0.0726819708943367
1783002483776028400,0.9090283203125,0.021620837971568108,0.033825673162937164,0.06280217319726944
1783002483786080500,0.91908056640625,0.017405802384018898,0.033303093165159225,0.04560549184679985
1783002483796132600,0.929132568359375,0.012032609432935715,0.008403871208429337,0.031733617186546326
1783002483806184400,0.939184326171875,0.0175703726708889,-0.014651698060333729,0.0033554425463080406
1783002483816236500,0.949236572265625,0.03136235103011131,-0.02364599145948887,-0.015567116439342499
1783002483826288400,0.959288330078125,0.04940735548734665,-0.03054605983197689,-0.028927519917488098
1783002483836340500,0.969340576171875,0.03929533436894417,-0.04173000529408455,-0.01949220523238182
1783002483846392300,0.979392333984375,0.016900362446904182,-0.028900858014822006,-0.00231430446729064
1783002483856444700,0.989444580078125,0.002020748797804117,-0.003557418240234256,0.017115052789449692
1783002483866495500,0.99949560546875,-0.00586458295583725,0.00207120506092906,0.0209394171833992
1783002483876547600,1.009547607421875,-0.011797839775681496,-0.008014185354113579,0.026985324919223785
1783002483886599400,1.019599365234375,-0.012337337248027325,0.007681021932512522,0.02794664353132248
1783002483896651500,1.029651611328125,-0.00034432392567396164,0.03224601969122887,0.027728263288736343
1783002483906703400,1.039703369140625,0.009028429165482521,0.029919782653450966,0.00890590064227581
1783002483916755500,1.04975537109375,0.006744768470525742,-0.00505045335739851,-0.015810362994670868
1783002483926807300,1.059807373046875,-0.00013990141451358795,-0.049066346138715744,-0.03908729553222656
1783002483936859600,1.069859619140625,-0.007601546123623848,-0.06753882765769958,-0.04955138638615608
1783002483946911500,1.079911376953125,-0.013756942003965378,-0.0584183968603611,-0.04864310473203659
1783002483956962600,1.089962646484375,-0.00013753771781921387,-0.018300004303455353,-0.035484425723552704
1783002483967014700,1.1000146484375,0.012575321830809116,0.012498664669692516,-0.002083591651171446
1783002483977066500,1.11006640625,0.019038282334804535,0.038392845541238785,0.03562410548329353
1783002483987118600,1.12011865234375,0.018406298011541367,0.051438022404909134,0.048407748341560364
1783002483997170400,1.13017041015625,0.02053629606962204,0.050838809460401535,0.037284791469573975
1783002484007222800,1.140222900390625,0.023293092846870422,0.03094320185482502,0.0011065062135457993
1783002484017275100,1.150275146484375,0.021096251904964447,-0.016161460429430008,-0.03674446791410446
1783002484027327000,1.160326904296875,0.010125687345862389,-0.055914074182510376,-0.05547643080353737
1783002484037379000,1.170379150390625,0.007903012447059155,-0.03692653402686119,-0.04825367033481598
1783002484047430100,1.18043017578125,0.007971069775521755,-0.01967083290219307,-0.02757219597697258
1783002484057482000,1.19048193359375,-0.0020022024400532246,0.0037902849726378918,-0.009515430778265
1783002484067534000,1.2005341796875,-0.006802470423281193,0.017398139461874962,-0.001470840536057949
1783002484077586000,1.2105859375,0.001197932055220008,0.02099207602441311,-0.00983716081827879
1783002484087638000,1.220637939453125,0.0062446873635053635,0.015363866463303566,-0.014787260442972183
1783002484097690000,1.230690185546875,0.00568142905831337,-0.0063065411522984505,-0.0262036994099617
1783002484107742000,1.240741943359375,0.0036563556641340256,-0.019411681219935417,-0.011921964585781097
1783002484117794000,1.2507939453125,-0.004973351024091244,-0.02911916933953762,0.016720065847039223
1783002484127845000,1.26084521484375,-0.025896575301885605,-0.004978355951607227,0.06802263110876083
1783002484137897000,1.27089697265625,-0.03320695459842682,0.05729726701974869,0.1089189276099205
1783002484147949000,1.280948974609375,-0.028278443962335587,0.09232860058546066,0.10747354477643967
1783002484158001000,1.2910009765625,-0.021054884418845177,0.10255194455385208,0.07492439448833466
1783002484168053000,1.301052978515625,-0.012865688651800156,0.08586721122264862,0.019448023289442062
1783002484178105000,1.31110498046875,-0.008535655215382576,0.053817134350538254,-0.04459407553076744
1783002484188157200,1.3211572265625,-0.003046377096325159,0.034339539706707,-0.07783651351928711
1783002484198209000,1.331208984375,-0.00025112321600317955,0.03464367240667343,-0.09359496831893921
1783002484208261000,1.34126123046875,-0.007689442951232195,0.01798720471560955,-0.1163344755768776
1783002484218312000,1.35131201171875,-0.007570932153612375,-0.005298676434904337,-0.13201382756233215
1783002484228364000,1.361364013671875,-0.006649091839790344,-0.00765905249863863,-0.14303575456142426
1783002484238416000,1.371415771484375,-0.003706032410264015,-0.002594518940895796,-0.14915835857391357
1783002484248468000,1.381468017578125,0.00651507917791605,0.013273452408611774,-0.14716610312461853
1783002484258519800,1.391519775390625,0.012481358833611012,0.020334556698799133,-0.14153911173343658
1783002484268572200,1.401572265625,0.013947634026408195,0.02849595621228218,-0.11897271871566772
1783002484278624000,1.4116240234375,0.013335106894373894,0.044052544981241226,-0.06209133192896843
1783002484288676000,1.421676025390625,0.012686315923929214,0.058597858995199203,-0.005591692868620157
1783002484298728000,1.43172802734375,0.018085874617099762,0.038317885249853134,0.01896238699555397
1783002484308779000,1.441779052734375,0.025444623082876205,-0.003266517771407962,0.018204674124717712
1783002484318830800,1.451830810546875,0.029429243877530098,-0.044037651270627975,0.014944166876375675
1783002484328883000,1.461883056640625,0.034535426646471024,-0.041114628314971924,0.026922840625047684
1783002484338934800,1.471934814453125,0.03445473313331604,-0.015956813469529152,0.03912757709622383
1783002484348987100,1.481987060546875,0.03720590099692345,0.00309621449559927,0.031754717230796814
1783002484359039000,1.4920390625,0.03295895829796791,0.024534661322832108,0.01734808087348938
1783002484369091000,1.502091064453125,0.03582455962896347,0.04229404032230377,0.00031462498009204865
1783002484379143000,1.512142822265625,0.02979915775358677,0.04326662793755531,-0.00867460947483778
1783002484389195000,1.522195068359375,0.018973633646965027,0.024859299883246422,-0.021857909858226776
1783002484399246000,1.53224609375,0.00918998010456562,-0.012437204830348492,-0.04895850270986557
1783002484409298000,1.5422978515625,0.009406446479260921,-0.07199913263320923,-0.07401125133037567
1783002484419350000,1.55235009765625,0.014918657019734383,-0.09050410985946655,-0.08978062123060226
1783002484429402000,1.562402099609375,0.030923523008823395,-0.066156305372715,-0.08696068823337555
1783002484439454000,1.572453857421875,0.043134912848472595,-0.01817600056529045,-0.06594941020011902
1783002484449506000,1.582506103515625,0.04597041755914688,0.038783036172389984,-0.025570107623934746
1783002484459558000,1.592557861328125,0.03620247542858124,0.0640934482216835,0.019136643037199974
1783002484469610000,1.60260986328125,0.019184639677405357,0.05554387345910072,0.04827748239040375
1783002484479661000,1.6126611328125,0.01390465535223484,0.04535621777176857,0.056432612240314484
1783002484489713000,1.622712890625,0.009149204939603806,-0.0020868529099971056,0.031299788504838943
1783002484499765000,1.632764892578125,0.014955694787204266,-0.061947256326675415,0.000014303252100944519
1783002484509816800,1.64281689453125,0.025942819193005562,-0.09426157176494598,-0.02434995397925377
1783002484519869200,1.652869140625,0.03954677656292915,-0.09873062372207642,-0.03506731241941452
1783002484529921000,1.662921142578125,0.036003097891807556,-0.0763397291302681,-0.02942725084722042
1783002484539973000,1.67297314453125,0.020206289365887642,-0.04294528812170029,-0.025131305679678917
1783002484550025000,1.68302490234375,-0.0022398773580789566,-0.009376101195812225,-0.007650787942111492
1783002484560077000,1.6930771484375,-0.011551620438694954,0.022440152242779732,0.019330229610204697
1783002484570128000,1.7031279296875,-0.023383736610412598,0.0483168326318264,0.04193499684333801
1783002484580180000,1.713179931640625,-0.022186115384101868,0.0677989199757576,0.06303016096353531
1783002484590231800,1.723231689453125,-0.010906834155321121,0.0705675557255745,0.08281132578849792
1783002484600284200,1.7332841796875,0.005018336232751608,0.030515216290950775,0.08041128516197205
1783002484610336000,1.7433359375,0.01801203563809395,-0.010834063403308392,0.08223144710063934
1783002484620388000,1.75338818359375,0.024175921455025673,0.017646845430135727,0.0849771723151207
1783002484630440000,1.76343994140625,0.03294803947210312,0.031314536929130554,0.06973884999752045
1783002484640492000,1.773491943359375,0.04024030640721321,0.02357698790729046,0.05646032840013504
1783002484650543900,1.7835439453125,0.032626181840896606,0.016666343435645103,0.048265352845191956
1783002484660595000,1.793594970703125,0.030314825475215912,0.010983957909047604,0.03289704769849777
1783002484670646800,1.803646728515625,0.020038405433297157,0.003855041228234768,-0.0010190862230956554
1783002484680699100,1.81369921875,0.015140052884817123,-0.00681331567466259,-0.030315455049276352
1783002484690751000,1.8237509765625,0.00402178755030036,-0.01325810793787241,-0.03396722301840782
1783002484700803000,1.833802978515625,0.0036377597134560347,-0.0015820106491446495,-0.02763529121875763
1783002484710855000,1.84385498046875,0.0016952038276940584,0.013280218467116356,-0.031031742691993713
1783002484720907000,1.853906982421875,-0.00093493377789855,0.024640465155243874,-0.03208475559949875
1783002484730958800,1.863958740234375,-0.002206426113843918,0.0338398814201355,-0.028722558170557022
1783002484741011000,1.874010986328125,-0.013325655832886696,0.021784549579024315,-0.029534820467233658
1783002484751062000,1.88406201171875,-0.021866697818040848,-0.006591483950614929,-0.052298251539468765
1783002484761113900,1.89411376953125,-0.02072979509830475,-0.03410646319389343,-0.08770950883626938
1783002484771166200,1.904166259765625,-0.019211363047361374,-0.04734710231423378,-0.10932642966508865
1783002484781218000,1.914218017578125,-0.022528329864144325,-0.04968828707933426,-0.10715887695550919
1783002484791270100,1.924270263671875,-0.028843756765127182,-0.04309801757335663,-0.07440918684005737
1783002484801322000,1.934322021484375,-0.0292016863822937,-0.005927481222897768,-0.03440131992101669
1783002484811373800,1.944373779296875,-0.02093430608510971,0.010562244802713394,-0.005030009895563126
1783002484821426000,1.954426025390625,-0.011316832154989243,0.024873539805412292,0.021753136068582535
1783002484831478000,1.96447802734375,-0.002207984682172537,0.03756199777126312,0.04356347769498825
1783002484841528800,1.97452880859375,0.009778104722499847,0.021618451923131943,0.04856143146753311
1783002484851581200,1.984581298828125,0.015960145741701126,0.0017699855379760265,0.032284315675497055
1783002484861633000,1.994633056640625,0.01893995702266693,-0.02985558658838272,-0.0032385229133069515
1783002484871685000,2.00468505859375,0.014504848048090935,-0.06002948060631752,-0.03510980308055878
1783002484881737000,2.014737060546875,0.011417180299758911,-0.07320840656757355,-0.04711879417300224
1783002484891789000,2.0247890625,0.002812466584146023,-0.06868989765644073,-0.0362047515809536
1783002484901841000,2.0348408203125,-0.000016076955944299698,-0.03295666724443436,-0.022292928770184517
1783002484911893000,2.04489306640625,0.012856638990342617,-0.006344906985759735,-0.014424169436097145
1783002484921943800,2.05494384765625,0.027853963896632195,0.015266643837094307,-0.00596996396780014
1783002484931996200,2.06499609375,0.03627920150756836,0.013386559672653675,0.00394916906952858
1783002484942048000,2.075048095703125,0.033424291759729385,-0.0012136881705373526,-0.0015667704865336418
1783002484952100000,2.08510009765625,0.03456594794988632,-0.02533693239092827,-0.027373462915420532
1783002484962152000,2.09515185546875,0.037294358015060425,-0.06264355778694153,-0.05173792317509651
1783002484972204000,2.1052041015625,0.038315415382385254,-0.11656990647315979,-0.06687825918197632
1783002484982255900,2.115255859375,0.03180798143148422,-0.12110979110002518,-0.055790986865758896
1783002484992308000,2.125307861328125,0.02305220440030098,-0.08659970015287399,-0.05765923857688904
1783002485002360000,2.135360107421875,0.005774680059403181,-0.04638011008501053,-0.06874197721481323
1783002485012410000,2.14541015625,-0.04052960127592087,-0.01484727393835783,-0.09778185188770294
1783002485022462500,2.15546240234375,-0.10412269830703735,-0.02594945952296257,-0.1338474303483963
1783002485032514300,2.165514404296875,-0.14971193671226501,-0.03852821886539459,-0.1653292179107666
1783002485042566400,2.17556640625,-0.17152881622314453,-0.04645645245909691,-0.15240409970283508
1783002485052618200,2.1856181640625,-0.15902778506278992,-0.05737404525279999,-0.1152816042304039
1783002485062670300,2.19567041015625,-0.1196947693824768,-0.050616804510354996,-0.08337000757455826
1783002485072722200,2.20572216796875,-0.07032248377799988,-0.023167729377746582,-0.053606174886226654
1783002485082774300,2.215774169921875,-0.031242460012435913,0.03621463477611542,-0.025009414181113243
1783002485092826400,2.225826416015625,0.002184371231123805,0.067881278693676,-0.011574073694646358
1783002485102877200,2.235877197265625,0.02539515122771263,0.07042086869478226,-0.0070456345565617085
1783002485112929300,2.24592919921875,0.03056993894279003,0.05442778393626213,-0.004581944085657597
1783002485122981400,2.2559814453125,0.04057064279913902,-0.0010927298571914434,0.010384488850831985
1783002485133033200,2.266033203125,0.06101140379905701,-0.03465985879302025,0.05195997655391693
1783002485143085300,2.276085205078125,0.0702429860830307,-0.038133688271045685,0.1000465452671051
1783002485153137200,2.28613720703125,0.08724667131900787,-0.023088036105036736,0.1317925900220871
1783002485163189200,2.296189208984375,0.11283645033836365,-0.005180408246815205,0.1468154788017273
1783002485173241000,2.306240966796875,0.13468784093856812,-0.010060341097414494,0.13328063488006592
1783002485183293400,2.31629345703125,0.1515730768442154,-0.014678262174129486,0.10453794151544571
1783002485193344300,2.32634423828125,0.16659455001354218,-0.0271599180996418,0.07064837962388992
1783002485203396400,2.336396240234375,0.16557401418685913,-0.04105682298541069,0.035230204463005066
1783002485213448200,2.3464482421875,0.14415603876113892,-0.05301503464579582,0.01642443612217903
1783002485223500300,2.356500244140625,0.10750880837440491,-0.058021776378154755,0.01347205601632595
1783002485233552100,2.36655224609375,0.07264313101768494,-0.029649723321199417,0.02713429555296898
1783002485243604200,2.376604248046875,0.05700691044330597,-0.022518575191497803,0.030309583991765976
1783002485253656000,2.386656005859375,0.05801375210285187,-0.021355517208576202,0.02288917824625969
1783002485263708400,2.39670849609375,0.06648659706115723,-0.008112415671348572,0.00496264174580574
1783002485273760300,2.40676025390625,0.06930219382047653,-0.0017453967593610287,-0.01684647426009178
1783002485283811300,2.416811279296875,0.06373858451843262,-0.00033312244340777397,-0.03306752070784569
1783002485293863400,2.426863525390625,0.04475528374314308,-0.016055934131145477,-0.04057210311293602
1783002485303915300,2.436915283203125,0.022769559174776077,-0.027429230511188507,-0.023994991555809975
1783002485313967000,2.446967041015625,-0.0063384217210114,0.013409754261374474,0.0005577942356467247
1783002485324019200,2.457019287109375,-0.01552153192460537,0.054582491517066956,0.014950316399335861
1783002485334071000,2.467071044921875,-0.006111872382462025,0.07192112505435944,0.015102400444447994
1783002485344123400,2.477123291015625,-0.001756005920469761,0.07593237608671188,0.003193276934325695
1783002485354175200,2.48717529296875,-0.0056240009143948555,0.05792829766869545,-0.015381534583866596
1783002485364227300,2.497227294921875,-0.0109420670196414,0.04379010573029518,-0.030381787568330765
1783002485374278400,2.5072783203125,-0.005065478850156069,0.027128934860229492,-0.04846499487757683
1783002485384330200,2.517330322265625,-0.009484728798270226,-0.004090501926839352,-0.06593000888824463
1783002485394382300,2.52738232421875,-0.03226892650127411,-0.01680985651910305,-0.07229568809270859
1783002485404434200,2.53743408203125,-0.050824232399463654,-0.00567757710814476,-0.05813991650938988
1783002485414486300,2.547486328125,-0.05786285176873207,0.019956903532147408,-0.031800080090761185
1783002485424538000,2.5575380859375,-0.05571181699633598,0.035414423793554306,-0.015606728382408619
1783002485434590500,2.567590576171875,-0.039063673466444016,0.05761810392141342,0.0027496591210365295
1783002485444642300,2.577642333984375,-0.028102103620767593,0.07819022238254547,0.012451821006834507
1783002485454694100,2.587694091796875,-0.022244971245527267,0.09311173111200333,0.0071804821491241455
1783002485464745200,2.5977451171875,-0.01163866464048624,0.08917318284511566,0.008965598419308662
1783002485474797300,2.60779736328125,-0.00865432620048523,0.04036730155348778,-0.008792361244559288
1783002485484849200,2.61784912109375,-0.00740850018337369,-0.022061720490455627,-0.031530432403087616
1783002485494901200,2.6279013671875,-0.009413028135895729,-0.07054287195205688,-0.05182971805334091
1783002485504953000,2.637953125,-0.018349532037973404,-0.09133683145046234,-0.060523875057697296
1783002485515005400,2.64800537109375,-0.01858704537153244,-0.05805656313896179,-0.04054711386561394
1783002485525057300,2.658057373046875,-0.013982705771923065,-0.0023312480188906193,-0.02497854083776474
1783002485535109400,2.668109375,-0.008707735687494278,0.034972235560417175,-0.013423491269350052
1783002485545161200,2.6781611328125,0.002367019187659025,0.06544066965579987,0.0014784932136535645
1783002485555212300,2.68821240234375,0.008467603474855423,0.06640625,0.012874665670096874
1783002485565264100,2.69826416015625,0.011416254565119743,0.037665944546461105,0.009853842668235302
1783002485575316200,2.708316162109375,0.021282164379954338,-0.010689164511859417,-0.01876993477344513
1783002485585368000,2.7183681640625,0.02538103610277176,-0.06930480152368546,-0.036785684525966644
1783002485595420400,2.72842041015625,0.02515210583806038,-0.06315377354621887,-0.03682558983564377
1783002485605472300,2.73847216796875,0.025302842259407043,-0.02521384507417679,-0.03197091445326805
1783002485615524400,2.7485244140625,0.04255088418722153,0.003642736468464136,-0.041312240064144135
1783002485625576200,2.758576171875,0.044874757528305054,0.015291668474674225,-0.049201857298612595
1783002485635628300,2.768628173828125,0.04061310738325119,0.005873541347682476,-0.06823991239070892
1783002485645679400,2.778679443359375,0.040958255529403687,-0.0213927011936903,-0.0866338312625885
1783002485655731200,2.788731201171875,0.039582014083862305,-0.05625011399388313,-0.1080310270190239
1783002485665783000,2.798782958984375,0.030516615137457848,-0.09026001393795013,-0.12047810852527618
1783002485675835100,2.808835205078125,0.019979408010840416,-0.1495598405599594,-0.12804058194160461
1783002485685887200,2.81888720703125,0.03675013408064842,-0.16075550019741058,-0.10282231122255325
1783002485695939300,2.828939208984375,0.08524500578641891,-0.08024406433105469,-0.04033750295639038
1783002485705991200,2.8389912109375,0.1288990080356598,-0.008683595806360245,0.027105184271931648
1783002485716043300,2.849043212890625,0.1782786250114441,0.04710419476032257,0.10379408299922943
1783002485726095000,2.85909521484375,0.22735562920570374,0.05281933769583702,0.16049598157405853
1783002485736146200,2.869146240234375,0.24922648072242737,-0.012276733294129372,0.18803973495960236
1783002485746198300,2.8791982421875,0.25837016105651855,-0.06670961529016495,0.21347106993198395
1783002485756250000,2.88925,0.23626120388507843,-0.15163449943065643,0.23990711569786072
1783002485766302500,2.899302490234375,0.1600511223077774,-0.22191397845745087,0.26211389899253845
1783002485776354300,2.909354248046875,0.06574833393096924,-0.1911046802997589,0.2692863345146179
1783002485786406400,2.919406494140625,-0.0076784840784966946,-0.11326926946640015,0.23711372911930084
1783002485796458200,2.929458251953125,-0.04283053055405617,-0.060701239854097366,0.16637615859508514
1783002485806510300,2.93951025390625,-0.041311461478471756,0.01673203334212303,0.13840363919734955
1783002485816562200,2.949562255859375,-0.016349632292985916,0.12496241182088852,0.13894298672676086
1783002485826613200,2.95961328125,-0.004220264498144388,0.20436561107635498,0.12960276007652283
1783002485836665000,2.9696650390625,-0.026703163981437683,0.23931755125522614,0.08789405226707458
1783002485846717400,2.979717529296875,-0.06985995173454285,0.193169504404068,0.020727533847093582
1783002485856769300,2.989769287109375,-0.12787379324436188,0.12441137433052063,-0.05393331125378609
1783002485866821400,2.9998212890625,-0.1779891550540924,0.08663522452116013,-0.11917143315076828
1783002485876873200,3.009873291015625,-0.18354955315589905,0.12393388152122498,-0.1751859039068222
1783002485886925300,3.01992529296875,-0.1587619036436081,0.165061354637146,-0.22488075494766235
1783002485896977200,3.02997705078125,-0.14001384377479553,0.1586613953113556,-0.24897350370883942
1783002485907029200,3.040029296875,-0.12344339489936829,0.15751037001609802,-0.22965732216835022
1783002485917080000,3.050080078125,-0.11780663579702377,0.1376693695783615,-0.1967986822128296
1783002485927132400,3.06013232421875,-0.11564254760742188,0.09783754497766495,-0.1845819652080536
1783002485937184300,3.070184326171875,-0.11386611312627792,0.05863655358552933,-0.18339282274246216
1783002485947236400,3.080236328125,-0.11751304566860199,0.04251590371131897,-0.1968761384487152
1783002485957288200,3.0902880859375,-0.10090170055627823,0.06997206807136536,-0.20708654820919037
1783002485967340300,3.10034033203125,-0.0705624371767044,0.08162207156419754,-0.20335039496421814
1783002485977392000,3.11039208984375,-0.04135800898075104,0.09839772433042526,-0.18364104628562927
1783002485987444200,3.1204443359375,-0.024300459772348404,0.11891072243452072,-0.12526589632034302
1783002485997496300,3.130496337890625,-0.025812458246946335,0.11831338703632355,-0.06386096030473709
1783002486007551000,3.140551025390625,-0.028229275718331337,0.09975595027208328,-0.008497036062180996
1783002486017603000,3.15060302734375,-0.02271520532667637,0.09143277257680893,0.01624852791428566
1783002486027655200,3.1606552734375,-0.006167921703308821,0.08277163654565811,0.01233953982591629
1783002486037707000,3.17070703125,0.011179503053426743,0.05919837951660156,-0.00275515578687191
1783002486047759000,3.180759033203125,0.008247895166277885,0.034128181636333466,-0.011464491486549377
1783002486057811000,3.19081103515625,-0.006030027288943529,-0.005603085272014141,-0.021608227863907814
1783002486067863000,3.200863037109375,-0.011895639821887016,-0.016665589064359665,-0.027518315240740776
1783002486077915000,3.210914794921875,-0.005323923658579588,-0.0035879381466656923,-0.019897902384400368
1783002486087967200,3.22096728515625,-0.004606468137353659,0.03730197250843048,-0.0009186184033751488
1783002486098018000,3.23101806640625,0.006619599647819996,0.09925597906112671,0.04970046877861023
1783002486108070100,3.241070068359375,0.01937081478536129,0.14292621612548828,0.12577739357948303
1783002486118122000,3.2511220703125,0.009369738399982452,0.1060718521475792,0.1826385110616684
1783002486128174000,3.261174072265625,0.006466093473136425,0.025746123865246773,0.20738273859024048
1783002486138226000,3.271225830078125,0.02679203450679779,-0.03440341353416443,0.18395912647247314
1783002486148278000,3.281278076171875,0.044628024101257324,-0.05868372321128845,0.12319350987672806
1783002486158329900,3.291329833984375,0.050634030252695084,-0.04381442070007324,0.04215497523546219
1783002486168382000,3.3013818359375,0.05496033653616905,-0.009838076308369637,-0.01982077769935131
1783002486178434000,3.31143408203125,0.040081582963466644,-0.0006463257595896721,-0.040575139224529266
1783002486188485000,3.321485107421875,0.003959797788411379,-0.02076757326722145,-0.041049182415008545
1783002486198537200,3.331537109375,-0.01254754513502121,-0.024745279923081398,-0.04070322960615158
1783002486208589000,3.341589111328125,-0.015372093766927719,-0.010101355612277985,-0.04449237883090973
1783002486218641200,3.35164111328125,-0.016815992072224617,0.026016835123300552,-0.0653090626001358
1783002486228693000,3.36169287109375,-0.02356604114174843,0.06996351480484009,-0.08323639631271362
1783002486238745000,3.3717451171875,-0.029323631897568703,0.07566807419061661,-0.10595879703760147
1783002486248797000,3.381796875,-0.03715306147933006,0.0331624299287796,-0.11553153395652771
1783002486258849000,3.39184912109375,-0.057013604789972305,-0.012746790423989296,-0.10859671980142593
1783002486268901000,3.401901123046875,-0.0629013180732727,-0.013070364482700825,-0.10099632292985916
1783002486278952200,3.4119521484375,-0.03449844568967819,0.025226444005966187,-0.10241259634494781
1783002486289004000,3.422004150390625,-0.0027991067618131638,0.04006211459636688,-0.1041998416185379
1783002486299056000,3.43205615234375,0.0105668343603611,0.04254801571369171,-0.08270687609910965
1783002486309108000,3.44210791015625,0.013225201517343521,0.035645365715026855,-0.048200566321611404
1783002486319160000,3.45216015625,0.013834942132234573,0.0207681767642498,-0.02972472459077835
1783002486329212000,3.4622119140625,0.02259487845003605,-0.006686882581561804,-0.04697295278310776
1783002486339264300,3.47226416015625,0.036725033074617386,-0.04034986346960068,-0.07637543976306915
1783002486349316000,3.482316162109375,0.04004546254873276,-0.06753887236118317,-0.10387150943279266
1783002486359368200,3.4923681640625,0.03755008801817894,-0.0874025821685791,-0.10927506536245346
1783002486369419000,3.5024189453125,0.038846246898174286,-0.06361310184001923,-0.10522626340389252
1783002486379471000,3.51247119140625,0.045921504497528076,-0.02659134939312935,-0.09079313278198242
1783002486389523000,3.52252294921875,0.03562173247337341,-0.008711418136954308,-0.06108344718813896
1783002486399575000,3.532574951171875,0.029081089422106743,0.009431257843971252,-0.016069918870925903
1783002486409627000,3.542626953125,0.02707706019282341,0.03322553634643555,0.022015681490302086
1783002486419679000,3.552678955078125,0.027984946966171265,0.039973754435777664,0.03575899079442024
1783002486429731000,3.56273095703125,0.033401284366846085,0.031918756663799286,0.03026355803012848
1783002486439783200,3.572783203125,0.047694552689790726,-0.01187143474817276,-0.002716784831136465
1783002486449835000,3.5828349609375,0.06407219916582108,-0.08205531537532806,-0.03483850136399269
1783002486459886000,3.592885986328125,0.07614710927009583,-0.08084754645824432,-0.029577799141407013
1783002486469938000,3.60293798828125,0.07233159989118576,-0.04929574579000473,-0.0011131344363093376
1783002486479990000,3.612989990234375,0.06404273957014084,-0.02020319178700447,0.02031933143734932
1783002486490041900,3.623041748046875,0.060645874589681625,-0.011938603594899178,0.010390001349151134
1783002486500094000,3.633093994140625,0.051915936172008514,-0.022122997790575027,-0.022729111835360527
1783002486510146000,3.64314599609375,0.05136359483003616,-0.020103255286812782,-0.06457003206014633
1783002486520198100,3.6531982421875,0.05516209825873375,-0.008557827211916447,-0.09033732861280441
1783002486530250000,3.66325,0.05660739541053772,-0.011634044349193573,-0.09811722487211227
1783002486540302000,3.673302001953125,0.05495740473270416,-0.06105652451515198,-0.09800159931182861
1783002486550353200,3.683353271484375,0.046501338481903076,-0.10633958131074905,-0.07306748628616333
1783002486560405000,3.693405029296875,0.028896572068333626,-0.05892827361822128,-0.03054327890276909
1783002486570457000,3.70345703125,0.025265619158744812,-0.01107792742550373,-0.009387392550706863
1783002486580509000,3.713509033203125,0.0337095782160759,0.028732895851135254,-0.004653726704418659
1783002486590561000,3.72356103515625,0.025051910430192947,0.0397072471678257,0.003321109339594841
1783002486600613000,3.733613037109375,-0.0006033503450453281,0.019831636920571327,0.009769010357558727
1783002486610665000,3.7436650390625,-0.010787544772028923,0.0061411247588694096,0.021150294691324234
1783002486620717000,3.753717041015625,-0.026704762130975723,0.034598495811223984,0.01691894605755806
1783002486630769000,3.763768798828125,-0.02272307127714157,0.05148639902472496,0.013946060091257095
1783002486640820000,3.773820068359375,-0.026913469657301903,0.04699674993753433,0.019056640565395355
1783002486650872000,3.7838720703125,-0.02877368964254856,0.020011473447084427,0.029058407992124557
1783002486660924000,3.793923828125,-0.023358561098575592,0.012026227079331875,0.028757041320204735
1783002486670976000,3.80397607421875,-0.013664653524756432,0.008529496379196644,0.010844089090824127
1783002486681028000,3.814028076171875,-0.005637682043015957,0.0011755842715501785,-0.01811610721051693
1783002486691080200,3.824080078125,-0.000022673048079013824,-0.005401358474045992,-0.04459378868341446
1783002486701132000,3.834132080078125,0.00798782892525196,-0.01667935401201248,-0.050675977021455765
1783002486711184100,3.84418408203125,0.016695566475391388,-0.009143407456576824,-0.023836906999349594
1783002486721236000,3.854236083984375,0.017932357266545296,0.0019156858325004578,0.01301224809139967
1783002486731287000,3.864287109375,0.013983688317239285,0.0165388360619545,0.0433879978954792
1783002486741339000,3.8743388671875,0.0144724790006876,0.01965414546430111,0.04908081144094467
1783002486751391000,3.884390869140625,0.012280164286494255,0.02651071920990944,0.04064258560538292
1783002486761443000,3.894443115234375,0.018197037279605865,0.02636474370956421,0.02767416276037693
1783002486771495200,3.9044951171875,0.02248206175863743,0.007379600778222084,0.006200294941663742
1783002486781547000,3.914547119140625,0.013017040677368641,-0.022290682420134544,-0.016527287662029266
1783002486791599000,3.92459912109375,0.009600471705198288,-0.057792484760284424,-0.0309339240193367
1783002486801651000,3.93465087890625,0.016421567648649216,-0.07248393446207047,-0.030644357204437256
1783002486811703000,3.944703125,0.017723586410284042,-0.0554780587553978,-0.022923052310943604
1783002486821753900,3.95475390625,0.023581845685839653,-0.01949855126440525,-0.014005150645971298
1783002486831806000,3.964805908203125,0.02813665010035038,0.036807600408792496,0.008890844881534576
1783002486841858000,3.974858154296875,0.019187897443771362,0.06791331619024277,0.04862174391746521
1783002486851910100,3.98491015625,0.0017330057453364134,0.06389008462429047,0.06994247436523438
1783002486861962000,3.9949619140625,0.0013350481167435646,0.03962026163935661,0.049010854214429855
1783002486872014000,4.00501416015625,0.015462584793567657,0.012322859838604927,0.011137508787214756
1783002486882066000,4.01506591796875,0.018495822325348854,-0.0397980734705925,-0.03920213505625725
1783002486892118000,4.025117919921875,0.01655544340610504,-0.08072632551193237,-0.07243332266807556
1783002486902169900,4.035169921875,0.004826410673558712,-0.09852171689271927,-0.09806127101182938
1783002486912221000,4.045220947265625,0.003345693228766322,-0.0693822056055069,-0.08182024955749512
1783002486922273300,4.055273193359375,-0.013119715265929699,-0.008017654530704021,-0.03882341459393501
1783002486932325000,4.0653251953125,-0.03047074005007744,0.030141979455947876,0.01056304294615984
1783002486942377200,4.075377197265625,-0.040888186544179916,0.03822394832968712,0.02563932165503502
1783002486952429000,4.085428955078125,-0.02688075415790081,0.04063703864812851,0.02493411675095558
1783002486962481000,4.09548095703125,-0.013292181305587292,0.0236256904900074,0.005250077694654465
1783002486972533000,4.105532958984375,0.0002188337966799736,0.0033204201608896255,-0.02491847798228264
1783002486982584800,4.115584716796875,0.008601196110248566,-0.023716408759355545,-0.038397081196308136
1783002486992637200,4.12563720703125,0.006768674589693546,-0.0339709110558033,-0.0308438241481781
1783002487002688000,4.13568798828125,-0.001300047617405653,-0.02354145422577858,0.004815735854208469
1783002487012740600,4.14574072265625,-0.003578116185963154,0.0035732537508010864,0.034835152328014374
1783002487022792700,4.155792724609375,0.0044348230585455894,0.022555774077773094,0.04765487462282181
1783002487032844500,4.165844482421875,0.016217179596424103,0.022195981815457344,0.038020890206098557
1783002487042896400,4.175896484375,0.00872071087360382,0.008827028796076775,0.007661571726202965
1783002487052948700,4.18594873046875,0.0052183871157467365,-0.018438946455717087,-0.037457436323165894
1783002487063000600,4.19600048828125,0.014103676192462444,-0.03781146928668022,-0.07792174816131592
1783002487073052700,4.206052734375,0.01639452576637268,-0.039396848529577255,-0.11289198696613312
1783002487083104500,4.2161044921875,0.03455837070941925,-0.025968095287680626,-0.12421248853206635
1783002487093155600,4.226155517578125,0.03402547165751457,-0.006466298829764128,-0.10345714539289474
1783002487103207700,4.236207763671875,0.029014918953180313,0.035197898745536804,-0.042816147208213806
1783002487113259500,4.246259521484375,0.01821846514940262,0.08297234773635864,0.013629283756017685
1783002487123311600,4.2563115234375,0.01818501017987728,0.08679366111755371,0.039008453488349915
1783002487133363700,4.26636376953125,0.022066302597522736,0.06441058963537216,0.04410494118928909
1783002487143415800,4.276415771484375,0.005526985041797161,0.0644797757267952,0.03762461245059967
1783002487153467600,4.286467529296875,-0.013189977966248989,0.05934413895010948,0.005195033736526966
1783002487163519700,4.296519775390625,-0.019642630591988564,0.060846272855997086,-0.0182290468364954
1783002487173571600,4.306571533203125,-0.021155040711164474,0.07622762769460678,-0.031243648380041122
1783002487183622700,4.31662255859375,-0.03123355284333229,0.08388758450746536,-0.010463920421898365
1783002487193674500,4.326674560546875,-0.031013041734695435,0.08921869844198227,0.03149711340665817
1783002487203726600,4.3367265625,-0.030216487124562263,0.07899217307567596,0.05608927085995674
1783002487213778700,4.34677880859375,-0.02609231509268284,0.04821934178471565,0.040158770978450775
1783002487223830800,4.356830810546875,-0.018173303455114365,0.03368028998374939,0.006998462602496147
1783002487233882600,4.366882568359375,-0.0034050103276968002,0.011854885146021843,-0.030618153512477875
1783002487243934700,4.376934814453125,0.01623549498617649,-0.023607851937413216,-0.06284519284963608
1783002487253986600,4.386986572265625,0.03091643750667572,-0.03752978891134262,-0.07375696301460266
1783002487264037600,4.39703759765625,0.028054727241396904,-0.04765941575169563,-0.0722993016242981
1783002487274089500,4.40708935546875,0.01917494833469391,-0.042919255793094635,-0.0582500696182251
1783002487284141600,4.4171416015625,0.0023961535189300776,-0.033019110560417175,-0.040378641337156296
1783002487294193400,4.427193359375,-0.013448057696223259,-0.017790624871850014,-0.010863359086215496
1783002487304245800,4.437245849609375,-0.01642116904258728,-0.008437519893050194,0.014686333015561104
1783002487314297600,4.447297607421875,-0.014702897518873215,-0.014402201399207115,0.011603990569710732
1783002487324349700,4.457349609375,-0.014986524358391762,-0.011356344446539879,-0.006573415361344814
1783002487334401500,4.467401611328125,-0.007386927958577871,-0.0013401955366134644,-0.01765030063688755
1783002487344453600,4.47745361328125,0.0021857027895748615,0.003912681248039007,-0.022359609603881836
1783002487354505500,4.48750537109375,0.002359074540436268,-0.00607656966894865,-0.020714309066534042
1783002487364556500,4.497556640625,0.007262567989528179,-0.018649453297257423,-0.020465590059757233
1783002487374608600,4.507608642578125,0.014643251895904541,-0.02638433873653412,-0.012740559875965118
1783002487384660700,4.51766064453125,0.009139640256762505,-0.017639432102441788,-0.0037627913989126682
1783002487394712600,4.527712646484375,0.003276958130300045,-0.016064438968896866,-0.00007484573870897293
1783002487404764700,4.5377646484375,-0.0028569968417286873,-0.025651060044765472,0.009163693524897099
1783002487414816500,4.54781640625,-0.010310651734471321,-0.029146192595362663,0.035527389496564865
1783002487424868600,4.55786865234375,-0.023877691477537155,-0.007053891196846962,0.05904173105955124
1783002487434920400,4.56792041015625,-0.01988108642399311,0.008278992027044296,0.0732550248503685
1783002487444971500,4.577971435546875,-0.009971875697374344,0.007666438817977905,0.06667818129062653
1783002487455023600,4.588023681640625,-0.0020060953684151173,-0.005453091114759445,0.0515008307993412
1783002487465075700,4.59807568359375,0.001951446058228612,-0.02568361908197403,0.016575047746300697
1783002487475127800,4.6081279296875,0.0021996526047587395,-0.0359751395881176,-0.02963399328291416
1783002487485179600,4.6181796875,0.002932104282081127,-0.047642555087804794,-0.06703171879053116
1783002487495231700,4.628231689453125,-0.0008959234692156315,-0.057988669723272324,-0.08059626072645187
1783002487505283600,4.63828369140625,-0.013021038845181465,-0.08214591443538666,-0.08442455530166626
1783002487515335700,4.648335693359375,-0.03143865987658501,-0.09611818939447403,-0.059369005262851715
1783002487525387500,4.658387451171875,-0.041232880204916,-0.07135676592588425,-0.03603094816207886
1783002487535438600,4.6684384765625,-0.032361626625061035,-0.02250480093061924,-0.015340583398938179
1783002487545490700,4.67849072265625,-0.01441904529929161,-0.012021951377391815,-0.01897880993783474
1783002487555542800,4.688542724609375,-0.010468246415257454,-0.0046974592842161655,-0.01407406572252512
1783002487565594600,4.6985947265625,-0.021762019023299217,0.017534391954541206,-0.02027314156293869
1783002487575646700,4.708646728515625,-0.02196069061756134,0.03536425530910492,-0.038111262023448944
1783002487585698600,4.718698486328125,-0.0188237726688385,0.036538951098918915,-0.06050664559006691
1783002487595750700,4.728750732421875,-0.01959102973341942,0.04112278297543526,-0.07257982343435287
1783002487605802500,4.738802490234375,-0.03617925941944122,0.052507445216178894,-0.05459125339984894
1783002487615854800,4.748854736328125,-0.049477752298116684,0.04974600672721863,-0.02523549646139145
1783002487625905400,4.758905517578125,-0.054645489901304245,0.03517822548747063,0.005027437582612038
1783002487635957800,4.768957763671875,-0.04232890158891678,0.023923177272081375,0.018895316869020462
1783002487646009600,4.779009521484375,-0.020615382120013237,0.0019528032280504704,0.01725521869957447
1783002487656061700,4.789061767578125,0.0007876446470618248,-0.0196670051664114,0.004269379191100597
1783002487666113500,4.799113525390625,0.012448295019567013,-0.019701369106769562,-0.0015616104938089848
1783002487676165600,4.80916552734375,0.013483199290931225,0.009506583213806152,0.022950123995542526
1783002487686217500,4.819217529296875,0.00688990717753768,0.042886435985565186,0.051845379173755646
1783002487696269600,4.82926953125,0.0057961465790867805,0.046084627509117126,0.06926192343235016
1783002487706321700,4.83932177734375,0.013669312931597233,0.029903383925557137,0.07273220270872116
1783002487716372700,4.849372802734375,0.017324235290288925,0.009219145402312279,0.06405669450759888
1783002487726424600,4.859424560546875,0.017925169318914413,0.00033056316897273064,0.045276179909706116
1783002487736476700,4.8694765625,0.024601712822914124,-0.0009408299811184406,0.020769506692886353
1783002487746528500,4.879528564453125,0.035546157509088516,0.0007551796734333038,-0.004459397867321968
1783002487756580600,4.88958056640625,0.03172052651643753,-0.019261673092842102,-0.021042369306087494
1783002487766632400,4.899632568359375,0.029071660712361336,-0.040194541215896606,-0.032967984676361084
1783002487776684500,4.9096845703125,0.024783706292510033,-0.045853760093450546,-0.04039793834090233
1783002487786736600,4.919736572265625,0.01810741052031517,-0.026579713448882103,-0.023269876837730408
1783002487796788700,4.929788818359375,0.0028906413353979588,0.030982380732893944,0.020385989919304848
1783002487806839800,4.93983984375,-0.001243875827640295,0.06405839323997498,0.060086119920015335
1783002487816891600,4.9498916015625,0.006219367031008005,0.07095704972743988,0.06910865008831024
1783002487826943700,4.95994384765625,0.002379294019192457,0.04441212862730026,0.05919564515352249
1783002487836995600,4.96999560546875,-0.005655729677528143,-0.0007662677671760321,0.028593523427844048
1783002487847047700,4.980047607421875,-0.020323805510997772,-0.03652489557862282,-0.014303630217909813
1783002487857099500,4.990099609375,-0.018725642934441566,-0.05388497933745384,-0.06506321579217911
1783002487867151600,5.000151611328125,-0.006258833687752485,-0.07690530270338058,-0.10159613192081451
1783002487877203700,5.01020361328125,0.009179777465760708,-0.08042573183774948,-0.10804470628499985
1783002487887255600,5.020255615234375,0.0031323740258812904,-0.04297669604420662,-0.0749218687415123
1783002487897306600,5.030306640625,-0.0004213480278849602,-0.0028034448623657227,-0.030766654759645462
1783002487907358700,5.040358642578125,0.007286510430276394,0.021207118406891823,0.008600886911153793
1783002487917410600,5.05041064453125,0.007296364288777113,0.03507712483406067,0.042915716767311096
1783002487927462700,5.060462646484375,0.0008107484318315983,0.0443214476108551,0.05929889157414436
1783002487937514500,5.070514404296875,-0.0012614568695425987,0.040789563208818436,0.05817609652876854
1783002487947566600,5.080566650390625,-0.0017272243276238441,0.016932744532823563,0.031724050641059875
1783002487957618700,5.09061865234375,-0.012415820732712746,-0.017171964049339294,0.008894367143511772
1783002487967670800,5.1006708984375,-0.02184167504310608,-0.033784203231334686,-0.005861510988324881
1783002487977722600,5.11072265625,-0.02630859613418579,-0.03458767756819725,-0.021898534148931503
1783002487987773700,5.120773681640625,-0.021811407059431076,-0.02195865660905838,-0.03709803521633148
1783002487997825500,5.130825439453125,-0.010974738746881485,-0.010570446029305458,-0.05904461443424225
1783002488007873000,5.140873046875,-0.010376205667853355,0.0006883181631565094,-0.07159705460071564
1783002488017925000,5.150925048828125,-0.01574593596160412,0.010925243608653545,-0.06851258128881454
1783002488027977200,5.160977294921875,-0.01454845443367958,0.013634983450174332,-0.04768815636634827
1783002488038029300,5.171029296875,-0.014621691778302193,0.00892678089439869,-0.018745988607406616
1783002488048081200,5.1810810546875,-0.008249260485172272,-0.004378596320748329,-0.004123306833207607
1783002488058133200,5.19113330078125,-0.004303786437958479,-0.007819400168955326,-0.0012625395320355892
1783002488068184000,5.20118408203125,-0.011718319728970528,-0.0056665330193936825,0.0006450209766626358
1783002488078236200,5.211236083984375,-0.018373025581240654,0.01828274130821228,0.001385379582643509
1783002488088288000,5.2212880859375,-0.0193624310195446,0.018999315798282623,-0.0010278336703777313
1783002488098340000,5.231340087890625,-0.018546968698501587,-0.004639701452106237,-0.011174743995070457
1783002488108392200,5.24139208984375,-0.010235466063022614,-0.025711633265018463,-0.03145086020231247
1783002488118444300,5.2514443359375,-0.002076872158795595,-0.03313679248094559,-0.051950808614492416
1783002488128496000,5.26149609375,-0.0009771292097866535,-0.04719776660203934,-0.06360523402690887
1783002488138548200,5.27154833984375,-0.002731087151914835,-0.04294123500585556,-0.06244063377380371
1783002488148600000,5.28160009765625,-0.00401110528036952,-0.03866945952177048,-0.04761938750743866
1783002488158651100,5.291651123046875,-0.017340758815407753,-0.023798365145921707,-0.01579461060464382
1783002488168703000,5.301702880859375,-0.03456506133079529,0.024043375626206398,0.019182156771421432
1783002488178755000,5.311755126953125,-0.03380978852510452,0.04258536919951439,0.025381196290254593
1783002488188807000,5.321806884765625,-0.024601683020591736,0.03750290721654892,0.014269569888710976
1783002488198859300,5.331859375,-0.008184360340237617,0.01753559149801731,-0.0009384122677147388
1783002488208911000,5.3419111328125,0.009234326891601086,-0.01724231243133545,-0.0238170363008976
1783002488218963200,5.351963134765625,0.01760011538863182,-0.0230698399245739,-0.040642090141773224
1783002488229015000,5.36201513671875,0.004881290718913078,-0.019557340070605278,-0.044412899762392044
1783002488239067100,5.372067138671875,-0.01695476658642292,-0.01667526736855507,-0.03543458506464958
1783002488249118200,5.3821181640625,-0.04043636471033096,-0.018849439918994904,-0.014375841245055199
1783002488259170000,5.392170166015625,-0.062233276665210724,-0.018988190218806267,0.01013482827693224
1783002488269222100,5.40222216796875,-0.05747184157371521,-0.019110452383756638,0.010044485330581665
1783002488279274200,5.412274169921875,-0.03888057917356491,-0.013089044950902462,-0.003949361387640238
1783002488289326000,5.422326171875,-0.04383804649114609,-0.013084260746836662,-0.03622474521398544
1783002488299378200,5.432378173828125,-0.04948581010103226,-0.024363014847040176,-0.0533486008644104
1783002488309430000,5.442429931640625,-0.05096492916345596,-0.03456877917051315,-0.06636267155408859
1783002488319482000,5.452482177734375,-0.05190049856901169,-0.03932385519146919,-0.0736517459154129
1783002488329534000,5.462533935546875,-0.04744728282094002,-0.044225119054317474,-0.08305680006742477
1783002488339585000,5.4725849609375,-0.03904873877763748,-0.03980613872408867,-0.08013877272605896
1783002488349637000,5.48263720703125,-0.038253966718912125,-0.019644252955913544,-0.06480937451124191
1783002488359689200,5.492689208984375,-0.030561961233615875,0.004715150222182274,-0.025155436247587204
1783002488369741300,5.5027412109375,-0.03783907741308212,0.0365673303604126,0.015057435259222984
1783002488379793200,5.512793212890625,-0.038210056722164154,0.06006013974547386,0.048394087702035904
1783002488389845200,5.52284521484375,-0.019607234746217728,0.06738749891519547,0.06323006749153137
1783002488399897000,5.53289697265625,0.00402805395424366,0.06610225141048431,0.05924837291240692
1783002488409949200,5.54294921875,0.021870452910661697,0.05693195015192032,0.041621774435043335
1783002488420001000,5.5530009765625,0.03357424959540367,0.03514675796031952,0.010939227417111397
1783002488430052000,5.563052001953125,0.03271536901593208,-0.016912953928112984,-0.024400655180215836
1783002488440104000,5.57310400390625,0.02866150438785553,-0.0597485676407814,-0.05559665709733963
1783002488450156300,5.58315625,0.01929139904677868,-0.06555061042308807,-0.05464842915534973
1783002488460208000,5.5932080078125,0.012369576841592789,-0.0423576757311821,-0.027116138488054276
1783002488470260200,5.60326025390625,0.009636631235480309,-0.003731239354237914,0.014114060439169407
1783002488480312000,5.61331201171875,0.027922693639993668,0.01738762855529785,0.04707680270075798
1783002488490364200,5.6233642578125,0.05748777464032173,0.021493956446647644,0.0762099176645279
1783002488500416000,5.633416015625,0.07847508788108826,0.04419047757983208,0.10716836899518967
1783002488510468000,5.643468017578125,0.07613885402679443,0.07959700375795364,0.1402682363986969
1783002488520519000,5.653518798828125,0.06330853700637817,0.09993210434913635,0.15470150113105774
1783002488530571300,5.6635712890625,0.04559360817074776,0.06668707728385925,0.13073959946632385
1783002488540623000,5.673623046875,0.02504066377878189,0.02688133716583252,0.08966007828712463
1783002488550675200,5.68367529296875,-0.00035339873284101486,-0.01236516609787941,0.043945252895355225
1783002488560727000,5.69372705078125,-0.0244736485183239,-0.042156882584095,-0.011929729953408241
1783002488570779100,5.703779052734375,-0.023613695055246353,-0.059941165149211884,-0.06344026327133179
1783002488580831000,5.7138310546875,-0.02666115015745163,-0.0827074646949768,-0.11839193105697632
1783002488590883000,5.723883056640625,-0.009529940783977509,-0.06907626986503601,-0.1389305293560028
1783002488600934100,5.73393408203125,0.001893155975267291,0.0028644963167607784,-0.12561233341693878
1783002488610986200,5.743986328125,-0.06018165871500969,0.28113311529159546,0.19293981790542603
1783002488621038000,5.7540380859375,-0.20375053584575653,-0.07602713257074356,0.4756213128566742
1783002488631090200,5.764090087890625,-0.18122754991054535,-0.3498172163963318,0.7199844717979431
1783002488641142000,5.77414208984375,-0.05842519924044609,-0.3808097541332245,0.8462648987770081
1783002488651194000,5.784194091796875,0.009026214480400085,-0.43619510531425476,0.8600034117698669
1783002488661246000,5.794245849609375,0.035446904599666595,-0.40055346488952637,0.7596821784973145
1783002488671298000,5.804298095703125,0.02540084533393383,-0.2486085742712021,0.5687364935874939
1783002488681350100,5.81435009765625,0.00558666093274951,-0.06432661414146423,0.2996826767921448
1783002488691401200,5.824401123046875,-0.01172296330332756,0.14576667547225952,0.020835943520069122
1783002488701453300,5.834453369140625,0.02950410172343254,0.3049645721912384,-0.16442739963531494
1783002488711505200,5.844505126953125,0.08690804243087769,0.36117440462112427,-0.32366299629211426
1783002488721557200,5.85455712890625,0.11666833609342575,0.34707245230674744,-0.44893595576286316
1783002488731609000,5.864609130859375,0.09645703434944153,0.2834230661392212,-0.5414612293243408
1783002488741661200,5.8746611328125,0.011890750378370285,0.20576956868171692,-0.4579854905605316
