time,seconds_elapsed,z,y,x
1783002482937955000,0.070955078125,0.015095596201717854,-0.028552548959851265,-0.03319816663861275
1783002482948007200,0.081007080078125,0.018428275361657143,-0.03385543450713158,-0.014683871529996395
1783002482958059000,0.09105908203125,0.030346453189849854,-0.02275085262954235,0.024713069200515747
1783002482968111000,0.101111083984375,0.054479487240314484,-0.006580404471606016,0.06304368376731873
1783002482978162200,0.111162109375,0.07962372153997421,0.011414308100938797,0.09640377014875412
1783002482988214000,0.121214111328125,0.08890430629253387,0.03453826904296875,0.1174003928899765
1783002482998265600,0.131265625,0.08975491672754288,0.03705655410885811,0.13800473511219025
1783002483008317400,0.1413173828125,0.0838799849152565,0.05150020867586136,0.17093020677566528
1783002483018369500,0.15136962890625,0.07386410236358643,0.06467752903699875,0.19514499604701996
1783002483028421400,0.16142138671875,0.08509625494480133,0.04632781818509102,0.20453476905822754
1783002483038473700,0.1714736328125,0.12579095363616943,0.023838486522436142,0.20701150596141815
1783002483048525600,0.181525634765625,0.1789441853761673,-0.00011185276525793597,0.19320061802864075
1783002483058577700,0.19157763671875,0.22383496165275574,-0.04429715871810913,0.14964835345745087
1783002483068628500,0.20162841796875,0.2589396834373474,-0.07803035527467728,0.09355871379375458
1783002483078680600,0.2116806640625,0.27563372254371643,-0.10163608193397522,0.027367709204554558
1783002483088732400,0.221732421875,0.26210084557533264,-0.09434673935174942,-0.023248331621289253
1783002483098784500,0.231784423828125,0.22213320434093475,-0.05687127262353897,-0.051544684916734695
1783002483108836400,0.24183642578125,0.15464843809604645,-0.03328258916735649,-0.06845815479755402
1783002483118888700,0.251888671875,0.07453495264053345,-0.01498427614569664,-0.08343496918678284
1783002483128940500,0.2619404296875,0.000844754686113447,0.0036634444259107113,-0.0880049541592598
1783002483138992600,0.27199267578125,-0.04634486138820648,0.014058561064302921,-0.08699774742126465
1783002483149044500,0.28204443359375,-0.057443585246801376,0.044796232134103775,-0.07288166135549545
1783002483159095600,0.292095458984375,-0.02220596931874752,0.09467457979917526,-0.054366834461688995
1783002483169147400,0.3021474609375,0.015739016234874725,0.10170905292034149,-0.03614282235503197
1783002483179199500,0.312199462890625,0.038709577172994614,0.08354203402996063,-0.01396029070019722
1783002483189251300,0.322251220703125,0.05569921433925629,0.03797001764178276,-0.0002247707889182493
1783002483199303400,0.332303466796875,0.05004159361124039,-0.004022438544780016,0.0012985573848709464
1783002483209355500,0.34235546875,0.034815505146980286,-0.028719263151288033,-0.01245267502963543
1783002483219407600,0.35240771484375,0.015261776745319366,-0.02527632750570774,-0.02744360826909542
1783002483229459500,0.36245947265625,-0.0017675400013104081,0.010247045196592808,-0.02111913450062275
1783002483239510500,0.372510498046875,-0.015307583846151829,0.04277489334344864,-0.009556753560900688
1783002483249562600,0.382562744140625,-0.0315302275121212,0.059002067893743515,0.005804892163723707
1783002483259614500,0.392614501953125,-0.046128612011671066,0.07267793267965317,0.015983760356903076
1783002483269666600,0.40266650390625,-0.04747803509235382,0.0558432936668396,0.011895807459950447
1783002483279718400,0.412718505859375,-0.0529329888522625,0.03326714411377907,-0.009494169615209103
1783002483289770500,0.4227705078125,-0.06577049195766449,-0.0003091930120717734,-0.04223160818219185
1783002483299822600,0.432822509765625,-0.07717201858758926,-0.021322598680853844,-0.08414976298809052
1783002483309874400,0.44287451171875,-0.08127621561288834,-0.02889423258602619,-0.10063313692808151
1783002483319926500,0.452926513671875,-0.0812237486243248,0.021811556071043015,-0.09288813173770905
1783002483329977600,0.4629775390625,-0.0847601592540741,0.07394266873598099,-0.061173610389232635
1783002483340029400,0.473029541015625,-0.0947672575712204,0.08453592658042908,-0.020205669105052948
1783002483350081500,0.48308154296875,-0.10706973075866699,0.0613270066678524,0.01272671390324831
1783002483360133400,0.49313330078125,-0.11601927876472473,0.02508697658777237,0.03170439973473549
1783002483370185700,0.503185791015625,-0.12225160747766495,0.020006997510790825,0.030015956610441208
1783002483380237600,0.513237548828125,-0.1197945773601532,0.013579990714788437,0.001281779375858605
1783002483390289700,0.52328955078125,-0.09670284390449524,0.013945376500487328,-0.02173086255788803
1783002483400341500,0.533341552734375,-0.07173197716474533,0.028628980740904808,-0.024441160261631012
1783002483410393600,0.5433935546875,-0.04006858915090561,0.04477226361632347,-0.007662713527679443
1783002483420444400,0.5534443359375,-0.008409996517002583,0.04254879057407379,0.021151091903448105
1783002483430496500,0.56349658203125,0.013707290403544903,0.01812121272087097,0.044918205589056015
1783002483440548400,0.57354833984375,0.02810060977935791,-0.01690281741321087,0.05784519016742706
1783002483450600400,0.583600341796875,0.030072148889303207,-0.03485731780529022,0.055267248302698135
1783002483460652500,0.593652587890625,0.017789648845791817,-0.01979500986635685,0.03434039652347565
1783002483470704600,0.60370458984375,0.015005048364400864,-0.009928264655172825,0.003513242118060589
1783002483480756500,0.613756591796875,0.00045380264054983854,-0.018216820433735847,-0.01787407137453556
1783002483490808600,0.62380859375,-0.012046010233461857,-0.031090008094906807,-0.021350828930735588
1783002483500860400,0.6338603515625,-0.015686817467212677,-0.013545636087656021,-0.01230540219694376
1783002483510911500,0.643911376953125,-0.00866273045539856,0.004496481269598007,-0.00848349928855896
1783002483520963300,0.65396337890625,0.00009267800487577915,0.02737676352262497,-0.0029984530992805958
1783002483531015400,0.664015380859375,-0.0004362257895991206,0.02977866865694523,-0.0006303702248260379
1783002483541067500,0.674067626953125,-0.005081577692180872,0.0041822283528745174,-0.012382101267576218
1783002483551119600,0.68411962890625,-0.0002002697146963328,-0.02514609880745411,-0.028791701421141624
1783002483561171500,0.69417138671875,0.003549461020156741,-0.08164852112531662,-0.055990032851696014
1783002483571223600,0.7042236328125,-0.0010527475969865918,-0.10570459067821503,-0.05215960741043091
1783002483581275400,0.714275390625,-0.0005099953268654644,-0.058218564838171005,-0.02304859459400177
1783002483591327500,0.724327392578125,0.01149659976363182,0.0049066077917814255,0.007288272958248854
1783002483601378600,0.734378662109375,0.01341434195637703,0.04351312294602394,0.028004735708236694
1783002483611430400,0.744430419921875,0.01215892843902111,0.059364255517721176,0.035053323954343796
1783002483621482500,0.754482421875,-0.0008372978190891445,0.04626070708036423,0.02527792565524578
1783002483631534600,0.76453466796875,-0.01299462839961052,0.030045250430703163,-0.0018879148410633206
1783002483641586400,0.77458642578125,-0.017354754731059074,0.004217914305627346,-0.03561072424054146
1783002483651638500,0.784638427734375,-0.018868496641516685,-0.02738102339208126,-0.05646007880568504
1783002483661690400,0.7946904296875,-0.017189638689160347,-0.029050294309854507,-0.0450843870639801
1783002483671742500,0.804742431640625,-0.025015071034431458,-0.02009834349155426,-0.010460896417498589
1783002483681793500,0.81479345703125,-0.01990739442408085,-0.009151154197752476,0.02136361226439476
1783002483691845400,0.824845458984375,-0.010016415268182755,-0.018545987084507942,0.035906869918107986
1783002483701897500,0.8348974609375,0.0068144965916872025,-0.02202088013291359,0.034092456102371216
1783002483711949600,0.844949462890625,0.015453258529305458,-0.022293854504823685,0.019963055849075317
1783002483722001700,0.855001708984375,0.033783528953790665,-0.014890000224113464,0.0014181332662701607
1783002483732053500,0.865053466796875,0.0464673675596714,-0.02046745829284191,-0.00830879621207714
1783002483742105600,0.875105712890625,0.04279699921607971,-0.040949296206235886,0.013773602433502674
1783002483752157400,0.885157470703125,0.03130705654621124,-0.034817636013031006,0.05524754151701927
1783002483762209500,0.89520947265625,0.02491014264523983,0.0002623213513288647,0.0769355297088623
1783002483772260400,0.90526025390625,0.021192369982600212,0.0321267768740654,0.07328353822231293
1783002483782312400,0.9153125,0.01474752090871334,0.041308823972940445,0.060322463512420654
1783002483792364500,0.925364501953125,0.009440107271075249,0.022055234760046005,0.04770626872777939
1783002483802416600,0.935416748046875,0.005133509170264006,-0.005139900837093592,0.02474396303296089
1783002483812468500,0.945468505859375,0.02160835638642311,-0.01393072959035635,0.002305764937773347
1783002483822520600,0.9555205078125,0.04179831221699715,-0.022664032876491547,-0.0188373364508152
1783002483832572400,0.965572509765625,0.04392164945602417,-0.033366478979587555,-0.01630360633134842
1783002483842624500,0.97562451171875,0.02153458632528782,-0.030483607202768326,-0.0046160570345819
1783002483852676400,0.98567626953125,0.0010373012628406286,-0.009749299846589565,0.016037821769714355
1783002483862727400,0.9957275390625,-0.009829195216298103,0.007559382822364569,0.026983147487044334
1783002483872779500,1.005779541015625,-0.01486523263156414,0.0017414409667253494,0.03278697654604912
1783002483882831600,1.01583154296875,-0.02040593884885311,0.0021976404823362827,0.037161484360694885
1783002483892883500,1.025883544921875,-0.009770605713129044,0.027900073677301407,0.03484852612018585
1783002483902935600,1.035935546875,0.0014703312190249562,0.03629995137453079,0.02251542918384075
1783002483912987400,1.0459873046875,0.002802178030833602,0.015545137226581573,0.0005318332696333528
1783002483923039500,1.05603955078125,-0.003579288488253951,-0.03105059452354908,-0.024992167949676514
1783002483933091300,1.06609130859375,-0.00720598129555583,-0.060976266860961914,-0.03713458403944969
1783002483943143700,1.076143798828125,-0.020197680220007896,-0.06265619397163391,-0.04228780046105385
1783002483953194500,1.086194580078125,-0.012618057429790497,-0.027346668764948845,-0.03728558495640755
1783002483963246600,1.09624658203125,0.004636829718947411,0.00791305024176836,-0.006816094275563955
1783002483973298400,1.10629833984375,0.013228720054030418,0.032830651849508286,0.03298112004995346
1783002483983350500,1.1163505859375,0.014660169370472431,0.05481504648923874,0.05426590144634247
1783002483993402400,1.12640234375,0.017495902255177498,0.058947205543518066,0.05192817747592926
1783002484003455000,1.136455078125,0.015995478257536888,0.045938462018966675,0.028175977990031242
1783002484013506800,1.1465068359375,0.01859978400170803,0.004857339430600405,-0.017792046070098877
1783002484023559200,1.15655908203125,0.013887053355574608,-0.04289074242115021,-0.04601249843835831
1783002484033611000,1.166611083984375,0.004449076950550079,-0.04513765126466751,-0.04206649214029312
1783002484043662000,1.176662109375,0.00126739835832268,-0.021146031096577644,-0.025887256488204002
1783002484053714000,1.1867138671875,0.001088966615498066,-0.003174754325300455,-0.008769256994128227
1783002484063766000,1.19676611328125,-0.011115235276520252,0.02016066201031208,0.002615224104374647
1783002484073817900,1.20681787109375,-0.005850166082382202,0.027420438826084137,0.0021403825376182795
1783002484083870000,1.216869873046875,0.0015102786710485816,0.02263607084751129,-0.005044293589890003
1783002484093921800,1.226921875,0.0026759442407637835,0.004673847462981939,-0.01509879156947136
1783002484103974100,1.23697412109375,-0.0007305050967261195,-0.011153318919241428,-0.01317918486893177
1783002484114026000,1.24702587890625,-0.002748914761468768,-0.020914603024721146,0.010003099218010902
1783002484124077000,1.2570771484375,-0.022522086277604103,-0.01540319062769413,0.05468481779098511
1783002484134129200,1.267129150390625,-0.038720764219760895,0.03911890834569931,0.10789397358894348
1783002484144181000,1.277180908203125,-0.03627731278538704,0.09090354293584824,0.1221003457903862
1783002484154233000,1.287233154296875,-0.026521354913711548,0.10522042959928513,0.10071835666894913
1783002484164285000,1.297284912109375,-0.02033350057899952,0.0967467799782753,0.04730226844549179
1783002484174337000,1.3073369140625,-0.013109676539897919,0.06870369613170624,-0.015177621506154537
1783002484184389000,1.31738916015625,-0.012606073170900345,0.04537200927734375,-0.05981592833995819
1783002484194441000,1.32744091796875,-0.0051569449715316296,0.039857666939496994,-0.07909295707941055
1783002484204493000,1.3374931640625,-0.011345066130161285,0.030884679406881332,-0.09984643757343292
1783002484214544100,1.347544189453125,-0.013626329600811005,0.005359611473977566,-0.11753621697425842
1783002484224596000,1.357595947265625,-0.012687832117080688,-0.002130795270204544,-0.13104696571826935
1783002484234648000,1.36764794921875,-0.010515225119888783,-0.004062385763972998,-0.1392124891281128
1783002484244700000,1.377699951171875,-0.0017872473690658808,0.010607902891933918,-0.14186260104179382
1783002484254752000,1.387751953125,0.005008340813219547,0.026132268831133842,-0.13729740679264069
1783002484264803800,1.397803955078125,0.008039284497499466,0.02887638844549656,-0.12221086025238037
1783002484274856200,1.407856201171875,0.008013451471924782,0.04079509899020195,-0.07830998301506042
1783002484284908000,1.417907958984375,0.008510131388902664,0.06018078327178955,-0.01913667656481266
1783002484294960000,1.427960205078125,0.00920361839234829,0.05223151296377182,0.023201992735266685
1783002484305011000,1.438010986328125,0.016568323597311974,0.017010143026709557,0.02967453934252262
1783002484315063000,1.44806298828125,0.024439295753836632,-0.030726486817002296,0.023608656600117683
1783002484325115000,1.458114990234375,0.0285823754966259,-0.046968840062618256,0.027512583881616592
1783002484335167000,1.4681669921875,0.028833778575062752,-0.025143703445792198,0.04190057888627052
1783002484345218800,1.47821875,0.030847394838929176,0.0007275756215676665,0.046615440398454666
1783002484355271200,1.488271240234375,0.030901189893484116,0.0212381761521101,0.029447637498378754
1783002484365323000,1.498322998046875,0.031123830005526543,0.041180193424224854,0.011937352828681469
1783002484375375000,1.508375,0.026765301823616028,0.0477326363325119,0.0027363980188965797
1783002484385427000,1.518427001953125,0.021515412256121635,0.04008350521326065,-0.005593170877546072
1783002484395478000,1.52847802734375,0.007222759071737528,0.007669104728847742,-0.026611903682351112
1783002484405529900,1.53852978515625,0.00407383730635047,-0.04603380337357521,-0.05799858644604683
1783002484415582000,1.54858203125,0.007587079424411058,-0.08979620039463043,-0.07891159504652023
1783002484425633800,1.5586337890625,0.018490061163902283,-0.07088615745306015,-0.08024556934833527
1783002484435686100,1.56868603515625,0.03507915884256363,-0.03136032074689865,-0.06665332615375519
1783002484445738000,1.578738037109375,0.04568732529878616,0.023976173251867294,-0.03382693976163864
1783002484455790000,1.5887900390625,0.03381628543138504,0.061527810990810394,0.011268367059528828
1783002484465842000,1.598842041015625,0.02197187766432762,0.0649382546544075,0.0484362430870533
1783002484475893000,1.60889306640625,0.009366869926452637,0.056164469569921494,0.06753323972225189
1783002484485945000,1.618945068359375,0.004180896561592817,0.02473757043480873,0.05319158360362053
1783002484495997000,1.628996826171875,0.00802996288985014,-0.03738066181540489,0.018501779064536095
1783002484506049000,1.639049072265625,0.018279671669006348,-0.08192389458417892,-0.00971814151853323
1783002484516100900,1.649100830078125,0.03099227137863636,-0.09713773429393768,-0.02599378302693367
1783002484526153000,1.659153076171875,0.031868718564510345,-0.08257663249969482,-0.026940803974866867
1783002484536205000,1.669205078125,0.021044032648205757,-0.053998518735170364,-0.018917232751846313
1783002484546257000,1.6792568359375,-0.0000125168571685208,-0.01691160537302494,-0.0046658581122756
1783002484556309000,1.68930908203125,-0.01176344882696867,0.01296267006546259,0.014459366910159588
1783002484566360000,1.699360107421875,-0.02359507419168949,0.04531155526638031,0.04185983166098595
1783002484576412000,1.709411865234375,-0.031197067350149155,0.06470122933387756,0.06456274539232254
1783002484586464000,1.719464111328125,-0.02419348619878292,0.0771070346236229,0.08611943572759628
1783002484596515800,1.729515869140625,-0.006440855097025633,0.056835319846868515,0.08968381583690643
1783002484606568200,1.739568115234375,0.007703726179897785,0.0010191916953772306,0.08819030970335007
1783002484616620000,1.7496201171875,0.019101256504654884,0.009012669324874878,0.09417364001274109
1783002484626672000,1.759672119140625,0.023921843618154526,0.03458434343338013,0.08140484243631363
1783002484636724000,1.769723876953125,0.03586691990494728,0.03302053362131119,0.06859850138425827
1783002484646776000,1.779776123046875,0.03362959995865822,0.022312229499220848,0.058753594756126404
1783002484656827000,1.789826904296875,0.026194851845502853,0.017462613061070442,0.04681624099612236
1783002484666879000,1.79987890625,0.017070597037672997,0.009854228235781193,0.018795792013406754
1783002484676930800,1.809930908203125,0.012589561752974987,0.0007329019135795534,-0.012899553403258324
1783002484686983200,1.819983154296875,0.003992611076682806,-0.007819839753210545,-0.027297135442495346
1783002484697035000,1.830034912109375,-0.0003475425182841718,-0.002117745578289032,-0.024693895131349564
1783002484707087000,1.840087158203125,-0.001776594785042107,0.009986055083572865,-0.016715597361326218
1783002484717139000,1.850138916015625,-0.004040814470499754,0.026577815413475037,-0.02267761528491974
1783002484727191000,1.86019091796875,-0.004297276493161917,0.03771409019827843,-0.022489596158266068
1783002484737243000,1.870242919921875,-0.010423346422612667,0.03441682830452919,-0.01618083380162716
1783002484747294000,1.8802939453125,-0.0222720168530941,0.009783121757209301,-0.032708678394556046
1783002484757345800,1.890345703125,-0.029825007542967796,-0.0205119326710701,-0.06793457269668579
1783002484767398100,1.900398193359375,-0.024599619209766388,-0.0413181446492672,-0.09569963067770004
1783002484777450000,1.910449951171875,-0.02516341023147106,-0.0414116233587265,-0.10301826149225235
1783002484787502000,1.920502197265625,-0.03235634043812752,-0.04686497524380684,-0.07996780425310135
1783002484797554000,1.930553955078125,-0.03261440247297287,-0.010897921398282051,-0.038243260234594345
1783002484807606000,1.94060595703125,-0.029336050152778625,0.010270747356116772,-0.008614260703325272
1783002484817657900,1.950657958984375,-0.0216554943472147,0.023085078224539757,0.023499999195337296
1783002484827710000,1.9607099609375,-0.012189820408821106,0.03731195256114006,0.046593599021434784
1783002484837761000,1.970760986328125,0.0034618431236594915,0.03153448924422264,0.05494767054915428
1783002484847812900,1.980812744140625,0.009521866217255592,0.016653278842568398,0.04704287648200989
1783002484857865200,1.990865234375,0.010638795793056488,-0.012621785514056683,0.017189372330904007
1783002484867917000,2.0009169921875,0.010261958464980125,-0.04652089625597,-0.0142369931563735
1783002484877969200,2.01096923828125,0.006527673918753862,-0.06537874042987823,-0.034262631088495255
1783002484888021000,2.02102099609375,0.0015550197567790747,-0.07106112688779831,-0.03615028038620949
1783002484898072800,2.03107275390625,-0.003579022129997611,-0.04561861604452133,-0.016437029466032982
1783002484908125000,2.041125,0.002258893335238099,-0.010432400740683079,-0.0055063520558178425
1783002484918176000,2.051176025390625,0.016748620197176933,0.011944543570280075,-0.00004846953015658073
1783002484928227800,2.061227783203125,0.029523536562919617,0.021924739703536034,0.009081379510462284
1783002484938280200,2.0712802734375,0.032521989196538925,0.008438758552074432,0.010864632204174995
1783002484948332000,2.08133203125,0.027606859803199768,-0.00821132492274046,-0.007665643002837896
1783002484958384000,2.091384033203125,0.030850058421492577,-0.04031173512339592,-0.03325542435050011
1783002484968436000,2.10143603515625,0.03311667591333389,-0.09479894489049911,-0.0520903654396534
1783002484978488000,2.111488037109375,0.02754906937479973,-0.12376641482114792,-0.052682653069496155
1783002484988540000,2.121539794921875,0.020673586055636406,-0.09425805509090424,-0.04597228392958641
1783002484998592000,2.131592041015625,0.009816944599151611,-0.05649017542600632,-0.05419798940420151
1783002485008642300,2.141642333984375,-0.02702123112976551,-0.01595153659582138,-0.07509475201368332
1783002485018694100,2.151694091796875,-0.08744249492883682,-0.01576751098036766,-0.11389753967523575
1783002485028746200,2.161746337890625,-0.1400793492794037,-0.03013739548623562,-0.14989149570465088
1783002485038798300,2.17179833984375,-0.17078106105327606,-0.039433158934116364,-0.151621475815773
1783002485048850200,2.18185009765625,-0.1743782013654709,-0.051542554050683975,-0.12062415480613708
1783002485058902300,2.19190234375,-0.14105619490146637,-0.04610943794250488,-0.08596843481063843
1783002485068954000,2.2019541015625,-0.09266522526741028,-0.036439232528209686,-0.05673358589410782
1783002485079006200,2.212006103515625,-0.048586443066596985,0.020411532372236252,-0.02485821209847927
1783002485089058000,2.22205810546875,-0.01167689636349678,0.06500802934169769,-0.007969509810209274
1783002485099109000,2.232109130859375,0.009892045520246029,0.07722102105617523,-0.0008966863388195634
1783002485109161200,2.2421611328125,0.026913905516266823,0.07031597197055817,0.0024378576781600714
1783002485119213300,2.25221337890625,0.029844980686903,0.02484090067446232,0.00777616398409009
1783002485129265400,2.262265380859375,0.048283111304044724,-0.02238360233604908,0.04194079339504242
1783002485139317200,2.272317138671875,0.06375980377197266,-0.033365946263074875,0.09169556200504303
1783002485149369300,2.282369384765625,0.07408861070871353,-0.02726517617702484,0.12977157533168793
1783002485159421200,2.292421142578125,0.10255007445812225,-0.0038304245099425316,0.15348435938358307
1783002485169473300,2.302473388671875,0.12310968339443207,-0.001668736687861383,0.14549461007118225
1783002485179525000,2.312525146484375,0.14315475523471832,-0.007517304737120867,0.12353445589542389
1783002485189576200,2.322576171875,0.15800108015537262,-0.017307350412011147,0.09317787736654282
1783002485199628300,2.332628173828125,0.16230688989162445,-0.031187480315566063,0.05402887985110283
1783002485209680400,2.342680419921875,0.1518220156431198,-0.045031122863292694,0.028185032308101654
1783002485219732200,2.352732177734375,0.11652767658233643,-0.056542105972766876,0.018494322896003723
1783002485229784300,2.362784423828125,0.07763833552598953,-0.0340125598013401,0.027647607028484344
1783002485239836200,2.372836181640625,0.05642492696642876,-0.019029084593057632,0.03988829255104065
1783002485249888300,2.38288818359375,0.052313804626464844,-0.019177423790097237,0.03399152308702469
1783002485259940000,2.392940185546875,0.05884840339422226,-0.00672368286177516,0.020653080195188522
1783002485269992400,2.402992431640625,0.06727571040391922,0.001900964416563511,-0.0012482235906645656
1783002485280043300,2.413043212890625,0.06217655539512634,0.0037816886324435472,-0.02123790979385376
1783002485290095400,2.423095458984375,0.04569451883435249,-0.0026232136879116297,-0.034165158867836
1783002485300147200,2.433147216796875,0.02652881294488907,-0.02316630631685257,-0.02558152563869953
1783002485310199300,2.44319921875,-0.001449025934562087,-0.003129480639472604,-0.0010852381819859147
1783002485320251100,2.453251220703125,-0.01866316609084606,0.04478424787521362,0.02028636261820793
1783002485330303200,2.46330322265625,-0.014911305159330368,0.07352375239133835,0.024996962398290634
1783002485340355000,2.47335498046875,-0.005151352379471064,0.07943250983953476,0.018069015815854073
1783002485350407400,2.483407470703125,-0.009731456637382507,0.07080972194671631,0.0020034960471093655
1783002485360459300,2.493459228515625,-0.017967548221349716,0.053217947483062744,-0.017527062445878983
1783002485370510300,2.50351025390625,-0.010417753830552101,0.038417961448431015,-0.03069213218986988
1783002485380562400,2.5135625,-0.009778061881661415,0.011320564895868301,-0.0524032860994339
1783002485390614300,2.5236142578125,-0.02853364124894142,-0.01131230965256691,-0.06492440402507782
1783002485400666000,2.533666015625,-0.050754256546497345,-0.009239837527275085,-0.05613357573747635
1783002485410718200,2.54371826171875,-0.06372065842151642,0.013363475911319256,-0.036326583474874496
1783002485420770000,2.55377001953125,-0.05939754843711853,0.035598475486040115,-0.012798353098332882
1783002485430822100,2.563822265625,-0.04946528747677803,0.05385258048772812,0.003102582646533847
1783002485440874200,2.573874267578125,-0.038422755897045135,0.07270855456590652,0.01757499948143959
1783002485450926300,2.58392626953125,-0.03370549902319908,0.09313074499368668,0.021290374919772148
1783002485460977400,2.593977294921875,-0.018967831507325172,0.09939795732498169,0.02014867775142193
1783002485471029200,2.604029296875,-0.013434316031634808,0.06625385582447052,0.010181531310081482
1783002485481081300,2.614081298828125,-0.014608236961066723,0.003229881636798382,-0.014749385416507721
1783002485491133200,2.62413330078125,-0.011553592048585415,-0.04971083253622055,-0.03699343651533127
1783002485501185300,2.634185302734375,-0.019270101562142372,-0.08502008765935898,-0.05186106637120247
1783002485511237000,2.644237060546875,-0.0239559318870306,-0.07230748981237411,-0.0409836508333683
1783002485521289500,2.65428955078125,-0.015971509739756584,-0.016506271436810493,-0.01882801577448845
1783002485531341300,2.66434130859375,-0.014421016909182072,0.02490588277578354,-0.00711862975731492
1783002485541393400,2.674393310546875,-0.0040852888487279415,0.06011127308011055,0.0017361147329211235
1783002485551444200,2.6844443359375,0.003085272153839469,0.0744827538728714,0.016028501093387604
1783002485561496300,2.694496337890625,0.004991828929632902,0.054853394627571106,0.020719392225146294
1783002485571548200,2.704548095703125,0.012111790478229523,0.016081232577562332,0.002936667762696743
1783002485581600300,2.714600341796875,0.01895851083099842,-0.050212305039167404,-0.026644127443432808
1783002485591652000,2.724652099609375,0.020423516631126404,-0.06676331907510757,-0.028676118701696396
1783002485601704400,2.734704345703125,0.0214735995978117,-0.03527623042464256,-0.024642761796712875
1783002485611756300,2.74475634765625,0.03321334719657898,-0.0020631509833037853,-0.02696477249264717
1783002485621808400,2.754808349609375,0.042336270213127136,0.01750336028635502,-0.0367838479578495
1783002485631860200,2.764860107421875,0.034395523369312286,0.01455950178205967,-0.0549311600625515
1783002485641911300,2.774911376953125,0.038360971957445145,-0.006137787364423275,-0.07171893119812012
1783002485651963100,2.784963134765625,0.03774205222725868,-0.040351152420043945,-0.09503783285617828
1783002485662015200,2.79501513671875,0.029694778844714165,-0.07090852409601212,-0.10613708943128586
1783002485672067000,2.805067138671875,0.01949220895767212,-0.12108487635850906,-0.11593884974718094
1783002485682119200,2.815119140625,0.02334526926279068,-0.1663767248392105,-0.111215740442276
1783002485692171300,2.825171142578125,0.06297869980335236,-0.11346690356731415,-0.060752563178539276
1783002485702223400,2.835223388671875,0.11230523884296417,-0.028210865333676338,0.00836498849093914
1783002485712275200,2.845275146484375,0.1543181985616684,0.034394726157188416,0.08183414489030838
1783002485722327300,2.855327392578125,0.20655903220176697,0.05879966542124748,0.15018311142921448
1783002485732378400,2.86537841796875,0.24049462378025055,0.022407570853829384,0.18407370150089264
1783002485742430200,2.87543017578125,0.2508615255355835,-0.044253479689359665,0.2110946625471115
1783002485752482000,2.88548193359375,0.24811740219593048,-0.11142931878566742,0.2409985065460205
1783002485762534100,2.8955341796875,0.18685856461524963,-0.2018183469772339,0.26475363969802856
1783002485772586200,2.905586181640625,0.09783654659986496,-0.20908264815807343,0.2786042094230652
1783002485782638300,2.915638427734375,0.010871023871004581,-0.13658101856708527,0.2613719403743744
1783002485792690200,2.925690185546875,-0.039374835789203644,-0.07508223503828049,0.20222207903862
1783002485802742300,2.9357421875,-0.050450924783945084,-0.014761103317141533,0.15217462182044983
1783002485812794000,2.945794189453125,-0.03152916207909584,0.09204044193029404,0.14533215761184692
1783002485822845200,2.95584521484375,-0.009206813760101795,0.17987176775932312,0.1445651650428772
1783002485832897300,2.965897216796875,-0.020417656749486923,0.23824718594551086,0.11695831269025803
1783002485842949000,2.97594921875,-0.055153798311948776,0.2199464738368988,0.05865532532334328
1783002485853001500,2.98600146484375,-0.1091453954577446,0.1484304815530777,-0.016323313117027283
1783002485863053300,2.99605322265625,-0.16936320066452026,0.09539522975683212,-0.08852187544107437
1783002485873105400,3.00610546875,-0.19083653390407562,0.10733497887849808,-0.14998763799667358
1783002485883157200,3.0161572265625,-0.17030967772006989,0.16076944768428802,-0.19533035159111023
1783002485893209300,3.026209228515625,-0.15218926966190338,0.16482757031917572,-0.2411247342824936
1783002485903261200,3.03626123046875,-0.13389894366264343,0.15920110046863556,-0.23246146738529205
1783002485913312300,3.046312255859375,-0.12469932436943054,0.1493719071149826,-0.19975998997688293
1783002485923364000,3.056364013671875,-0.11818443238735199,0.1188582107424736,-0.17870129644870758
1783002485933416400,3.06641650390625,-0.1185372993350029,0.077304907143116,-0.1737893670797348
1783002485943468300,3.07646826171875,-0.1215227022767067,0.050339601933956146,-0.18286195397377014
1783002485953520400,3.086520263671875,-0.11334413290023804,0.06204446405172348,-0.1961841583251953
1783002485963572200,3.096572265625,-0.08520624041557312,0.08135370910167694,-0.19855809211730957
1783002485973624300,3.106624267578125,-0.05717913433909416,0.09527112543582916,-0.18041105568408966
1783002485983676200,3.11667626953125,-0.030780283734202385,0.113438680768013,-0.13994458317756653
1783002485993728300,3.126728271484375,-0.029203426092863083,0.1258828341960907,-0.0771792083978653
1783002486003783000,3.136782958984375,-0.03509993106126785,0.10939919203519821,-0.01954520493745804
1783002486013835000,3.1468349609375,-0.02828383632004261,0.09673213213682175,0.018319884315133095
1783002486023887000,3.15688720703125,-0.017071660608053207,0.09200529009103775,0.02666063979268074
1783002486033939200,3.166939208984375,0.0031041805632412434,0.07219643145799637,0.0122441491112113
1783002486043991000,3.176990966796875,0.0049034119583666325,0.047195740044116974,-0.0006940197781659663
1783002486054043100,3.187043212890625,-0.005988384131342173,0.013214072212576866,-0.008874185383319855
1783002486064095000,3.197094970703125,-0.015782425180077553,-0.014929947443306446,-0.01762533187866211
1783002486074147000,3.20714697265625,-0.01299196481704712,-0.004216582980006933,-0.01673796772956848
1783002486084199000,3.217198974609375,-0.011137872003018856,0.021216604858636856,0.0005584649043157697
1783002486094250000,3.22725,-0.004250671248883009,0.08062001317739487,0.0343148298561573
1783002486104301800,3.2373017578125,0.01224388275295496,0.13685505092144012,0.10474371910095215
1783002486114354200,3.247354248046875,0.008522914722561836,0.1315484344959259,0.16917650401592255
1783002486124406000,3.257406005859375,0.0006487460341304541,0.05807289108633995,0.2122368961572647
1783002486134458000,3.2674580078125,0.012827381491661072,-0.012958409264683723,0.20640990138053894
1783002486144510000,3.277510009765625,0.03603550046682358,-0.0498352013528347,0.15672995150089264
1783002486154562000,3.28756201171875,0.04456906393170357,-0.0462346076965332,0.07966633141040802
1783002486164614000,3.29761376953125,0.050220560282468796,-0.018440259620547295,0.0065194182097911835
1783002486174666000,3.307666015625,0.046369895339012146,0.008301871828734875,-0.029098231345415115
1783002486184717000,3.317717041015625,0.014009558595716953,-0.009879262186586857,-0.03398752957582474
1783002486194769200,3.32776904296875,-0.013243366964161396,-0.020378507673740387,-0.02991528809070587
1783002486204821000,3.337821044921875,-0.021037640050053596,-0.012233763001859188,-0.031798142939805984
1783002486214873000,3.347873046875,-0.02249891683459282,0.015528625808656216,-0.04743329435586929
1783002486224925000,3.357925048828125,-0.023152191191911697,0.060982927680015564,-0.06794789433479309
1783002486234977000,3.36797705078125,-0.03375237062573433,0.08514179289340973,-0.08972615748643875
1783002486245028900,3.37802880859375,-0.03810743987560272,0.056410010904073715,-0.10480577498674393
1783002486255081000,3.3880810546875,-0.05430105701088905,0.005286640953272581,-0.10072581470012665
1783002486265133000,3.398133056640625,-0.06950743496417999,-0.016589894890785217,-0.09879209101200104
1783002486275184000,3.40818408203125,-0.05163097009062767,0.014765630476176739,-0.09604290872812271
1783002486285236200,3.418236328125,-0.01715768128633499,0.043297406286001205,-0.0963052287697792
1783002486295288000,3.4282880859375,0.001475391210988164,0.04734780639410019,-0.08514206111431122
1783002486305340200,3.438340087890625,0.006447246763855219,0.044134438037872314,-0.054302919656038284
1783002486315392000,3.44839208984375,0.008288555778563023,0.031094802543520927,-0.023627564311027527
1783002486325444000,3.458444091796875,0.01381248515099287,0.011699533089995384,-0.03196299448609352
1783002486335496000,3.468495849609375,0.028332306072115898,-0.026999393478035927,-0.0586012601852417
1783002486345548000,3.478548095703125,0.03514706715941429,-0.05459267273545265,-0.08636444807052612
1783002486355600100,3.48860009765625,0.03392787277698517,-0.07801171392202377,-0.10095138102769852
1783002486365651200,3.498651123046875,0.03130146488547325,-0.07387342303991318,-0.09782402962446213
1783002486375703000,3.508703125,0.04054130241274834,-0.03387514129281044,-0.08729416131973267
1783002486385755100,3.518755126953125,0.03532256931066513,-0.009168464690446854,-0.06605331599712372
1783002486395807000,3.528806884765625,0.02684439718723297,0.00430073868483305,-0.02606196142733097
1783002486405859000,3.538859130859375,0.021199828013777733,0.030372286215424538,0.017258083447813988
1783002486415911000,3.548910888671875,0.02183951810002327,0.04140762612223625,0.04057325795292854
1783002486425963000,3.558962890625,0.022380406036973,0.04320313036441803,0.04478158429265022
1783002486436015000,3.56901513671875,0.0395311638712883,0.015263641253113747,0.018500180914998055
1783002486446067200,3.579067138671875,0.05421130731701851,-0.055878181010484695,-0.020229637622833252
1783002486456118000,3.589117919921875,0.06982222199440002,-0.08536336570978165,-0.025598304346203804
1783002486466170000,3.599170166015625,0.0693010464310646,-0.053823817521333694,-0.004354001954197884
1783002486476222000,3.609221923828125,0.0644756630063057,-0.024642229080200195,0.022765766829252243
1783002486486274000,3.619274169921875,0.05705742537975311,-0.008898420259356499,0.023727167397737503
1783002486496326000,3.629325927734375,0.05170260742306709,-0.012258264236152172,-0.0016226640436798334
1783002486506378000,3.6393779296875,0.04327796399593353,-0.018093250691890717,-0.04039695858955383
1783002486516430000,3.64943017578125,0.05005544424057007,-0.009816145524382591,-0.07375491410493851
1783002486526482200,3.659482177734375,0.05140193924307823,-0.0025750105269253254,-0.08670347183942795
1783002486536534000,3.669533935546875,0.049246907234191895,-0.03167270869016647,-0.09244125336408615
1783002486546585000,3.679585205078125,0.04542314261198044,-0.0986940860748291,-0.07524095475673676
1783002486556637000,3.689636962890625,0.03335023298859596,-0.07583457976579666,-0.03333238884806633
1783002486566689000,3.69968896484375,0.01555019710212946,-0.02226908691227436,-0.006453904323279858
1783002486576740900,3.709740966796875,0.027306722477078438,0.017643176019191742,0.0015150723047554493
1783002486586793000,3.71979296875,0.02316337637603283,0.044675324112176895,0.005392634775489569
1783002486596845000,3.729844970703125,0.008020642213523388,0.030357373878359795,0.01792920008301735
1783002486606897200,3.739897216796875,-0.013114470057189465,0.0145299406722188,0.028307538479566574
1783002486616949000,3.749948974609375,-0.026997528970241547,0.02598579414188862,0.02755759097635746
1783002486627001000,3.7600009765625,-0.031611986458301544,0.04881121590733528,0.021795842796564102
1783002486637052200,3.77005224609375,-0.029616480693221092,0.05096784234046936,0.02317109890282154
1783002486647104000,3.78010400390625,-0.03242664784193039,0.03994688391685486,0.03581339120864868
1783002486657156000,3.790156005859375,-0.03268870338797569,0.01738990843296051,0.04108112305402756
1783002486667208000,3.8002080078125,-0.02166135236620903,0.015786154195666313,0.026632942259311676
1783002486677260300,3.81026025390625,-0.013311544433236122,0.012436696328222752,0.0029891319572925568
1783002486687312100,3.82031201171875,-0.00628932099789381,0.001014664419926703,-0.025243038311600685
1783002486697364000,3.830364013671875,-0.0025451830588281155,-0.009341570548713207,-0.040655817836523056
1783002486707416000,3.840416015625,0.010603908449411392,-0.012653743848204613,-0.03050437942147255
1783002486717468000,3.850468017578125,0.016698818653821945,0.0041153826750814915,0.004704740364104509
1783002486727519000,3.86051904296875,0.010129333473742008,0.016210395842790604,0.04123665392398834
1783002486737571000,3.870571044921875,0.009954363107681274,0.0179371889680624,0.05655701830983162
1783002486747623000,3.880622802734375,0.006697850301861763,0.02594451606273651,0.05319397896528244
1783002486757675000,3.890675048828125,0.011994877830147743,0.031184284016489983,0.04135942459106445
1783002486767727000,3.90072705078125,0.01979980431497097,0.01991858147084713,0.02232474647462368
1783002486777779200,3.910779296875,0.010902981273829937,-0.004210457671433687,0.0022743395529687405
1783002486787831000,3.9208310546875,0.00387356779538095,-0.03991146385669708,-0.019478892907500267
1783002486797883100,3.930883056640625,0.010303503833711147,-0.06611856818199158,-0.021138574928045273
1783002486807935000,3.94093505859375,0.011508317664265633,-0.058878496289253235,-0.01672092266380787
1783002486817986000,3.950986083984375,0.013374394737184048,-0.030664967373013496,-0.010250773280858994
1783002486828038000,3.961037841796875,0.02173112891614437,0.020987041294574738,0.00948245171457529
1783002486838090000,3.971090087890625,0.02022404596209526,0.06386979669332504,0.04567507654428482
1783002486848142000,3.98114208984375,0.004107659682631493,0.07442310452461243,0.07419539988040924
1783002486858194200,3.991194091796875,-0.007398793939501047,0.05534448102116585,0.07013913989067078
1783002486868246000,4.00124609375,0.008293083868920803,0.030232736840844154,0.03570420295000076
1783002486878298000,4.011298095703125,0.013562680222094059,-0.015304653905332088,-0.016088688746094704
1783002486888350000,4.021349853515625,0.014463627710938454,-0.06261730939149857,-0.05349171906709671
1783002486898402000,4.031402099609375,0.005564142484217882,-0.08957728743553162,-0.07938936352729797
1783002486908452900,4.041452880859375,-0.003338006092235446,-0.0827188491821289,-0.08479425311088562
1783002486918505000,4.0515048828125,-0.009473130106925964,-0.027702467516064644,-0.04578666388988495
1783002486928557000,4.06155712890625,-0.027892084792256355,0.02298334613442421,-0.0004886900424025953
1783002486938609200,4.071609130859375,-0.04412245377898216,0.03923581913113594,0.030282005667686462
1783002486948661000,4.081660888671875,-0.039803337305784225,0.04399382323026657,0.03850584849715233
1783002486958713000,4.091713134765625,-0.023095466196537018,0.03718997910618782,0.023482423275709152
1783002486968765000,4.101764892578125,-0.009282980114221573,0.01727912202477455,-0.004041346721351147
1783002486978817000,4.111817138671875,0.0007363640470430255,-0.007498928811401129,-0.02623160369694233
1783002486988868900,4.121868896484375,0.007289338391274214,-0.030366161838173866,-0.027571706101298332
1783002486998920000,4.131919921875,-0.002129463478922844,-0.02502785436809063,-0.0029822078067809343
1783002487008972500,4.14197265625,-0.008950085379183292,-0.004376372788101435,0.032272450625896454
1783002487019024600,4.152024658203125,-0.005661081522703171,0.021757759153842926,0.054674964398145676
1783002487029076500,4.162076416015625,0.008310128003358841,0.027510719373822212,0.05205734074115753
1783002487039128600,4.172128662109375,0.00977539923042059,0.01894599385559559,0.029754700139164925
1783002487049180400,4.182180419921875,0.0024804682470858097,-0.006776946131139994,-0.007546865846961737
1783002487059232800,4.192232666015625,0.007292267866432667,-0.0314178429543972,-0.05505393072962761
1783002487069284600,4.20228466796875,0.008950351737439632,-0.03941984474658966,-0.09384340792894363
1783002487079336700,4.212336669921875,0.024501347914338112,-0.02420121058821678,-0.11660490930080414
1783002487089387800,4.2223876953125,0.02840101532638073,-0.011721104383468628,-0.10750595480203629
1783002487099439600,4.232439697265625,0.03045271337032318,0.0218333937227726,-0.059363190084695816
1783002487109491700,4.24249169921875,0.016654077917337418,0.07116765528917313,-0.001107076066546142
1783002487119543600,4.25254345703125,0.018757442012429237,0.09930901229381561,0.042391929775476456
1783002487129595400,4.262595458984375,0.02136947028338909,0.0739424005150795,0.05367015302181244
1783002487139647700,4.272647705078125,0.0085466168820858,0.0670461431145668,0.0528072863817215
1783002487149699600,4.282699462890625,-0.011606056243181229,0.06728290021419525,0.02935629151761532
1783002487159751700,4.292751708984375,-0.024341026321053505,0.06409695744514465,-0.004591289907693863
1783002487169803500,4.302803466796875,-0.026128806173801422,0.0751006081700325,-0.024051006883382797
1783002487179854600,4.3128544921875,-0.028191424906253815,0.08733916282653809,-0.015928633511066437
1783002487189906700,4.32290673828125,-0.03798653185367584,0.09483037143945694,0.019450929015874863
1783002487199958500,4.33295849609375,-0.03521551191806793,0.09013282507658005,0.05733039975166321
1783002487210010600,4.3430107421875,-0.03069106675684452,0.06471987068653107,0.058268364518880844
1783002487220062700,4.353062744140625,-0.025914954021573067,0.04355573281645775,0.028084099292755127
1783002487230114800,4.36311474609375,-0.012983443215489388,0.025016935542225838,-0.008096009492874146
1783002487240166700,4.373166748046875,0.003991545643657446,-0.003955326974391937,-0.04656697064638138
1783002487250218800,4.38321875,0.020372649654746056,-0.0294958408921957,-0.06408284604549408
1783002487260269600,4.39326953125,0.026371153071522713,-0.04303881525993347,-0.06605678051710129
1783002487270321700,4.40332177734375,0.016395485028624535,-0.03988483175635338,-0.05748353153467178
1783002487280373500,4.41337353515625,0.004757204558700323,-0.032577116042375565,-0.04205024987459183
1783002487290425600,4.423425537109375,-0.010639594867825508,-0.019406987354159355,-0.012849751859903336
1783002487300477700,4.433477783203125,-0.0188439954072237,-0.005617405753582716,0.01389770582318306
1783002487310529800,4.44352978515625,-0.0192533228546381,-0.007298126816749573,0.023625968024134636
1783002487320581600,4.45358154296875,-0.01871509850025177,-0.009649164974689484,0.007552458439022303
1783002487330633700,4.4636337890625,-0.01543701346963644,-0.002238120650872588,-0.0036064526066184044
1783002487340685600,4.473685546875,-0.005121524911373854,0.007383347954601049,-0.013001020066440105
1783002487350737700,4.483737548828125,-0.00016405072528868914,0.0006556702428497374,-0.013399961404502392
1783002487360788500,4.49378857421875,0.00047164582065306604,-0.010372479446232319,-0.014464959502220154
1783002487370840600,4.503840576171875,0.005156146362423897,-0.020480774343013763,-0.006434996146708727
1783002487380892400,4.513892333984375,0.007679224945604801,-0.017667677253484726,0.0028567728586494923
1783002487390944800,4.52394482421875,0.0020777983590960503,-0.01441196259111166,0.006200638134032488
1783002487400996600,4.53399658203125,-0.004400074947625399,-0.01629721373319626,0.01378185860812664
1783002487411048700,4.544048583984375,-0.01239381916821003,-0.024344220757484436,0.03494786471128464
1783002487421100500,4.5541005859375,-0.026255305856466293,-0.012182097882032394,0.06336458772420883
1783002487431152600,4.564152587890625,-0.029629796743392944,0.008350607939064503,0.07806897163391113
1783002487441203700,4.57420361328125,-0.015571236610412598,0.01389717310667038,0.07963650673627853
1783002487451255600,4.584255615234375,-0.006666424684226513,0.00361790438182652,0.06701258569955826
1783002487461307600,4.5943076171875,-0.0015566176734864712,-0.012461196631193161,0.03854819014668465
1783002487471359700,4.60435986328125,-0.002796319080516696,-0.02676956169307232,-0.005640575196594
1783002487481411600,4.61441162109375,-0.0013853764394298196,-0.03767148032784462,-0.04501407966017723
1783002487491463700,4.624463623046875,-0.003911118488758802,-0.04861520603299141,-0.07002808898687363
1783002487501515500,4.634515625,-0.01284495834261179,-0.06927095353603363,-0.07654137909412384
1783002487511567600,4.644567626953125,-0.02755945548415184,-0.09085613489151001,-0.06078878045082092
1783002487521619500,4.654619384765625,-0.04665325582027435,-0.08162695169448853,-0.038779351860284805
1783002487531670500,4.66467041015625,-0.04140283539891243,-0.03653111308813095,-0.012986105866730213
1783002487541722600,4.67472265625,-0.028270520269870758,-0.0111647704616189,-0.012011655606329441
1783002487551774700,4.684774658203125,-0.015484151430428028,-0.0065314024686813354,-0.005743106827139854
1783002487561826800,4.694826904296875,-0.021915152668952942,0.013707290403544903,-0.00567013630643487
1783002487571878700,4.704878662109375,-0.02761511690914631,0.03525172919034958,-0.021676532924175262
1783002487581930800,4.7149306640625,-0.022718096151947975,0.03977084904909134,-0.04412991181015968
1783002487591982600,4.724982666015625,-0.024927187711000443,0.041183389723300934,-0.06289374083280563
1783002487602034700,4.73503466796875,-0.03200799971818924,0.053596381098032,-0.05349438264966011
1783002487612086500,4.74508642578125,-0.05083441734313965,0.0607251338660717,-0.0287576112896204
1783002487622137600,4.7551376953125,-0.05897410213947296,0.04567534103989601,0.003619768423959613
1783002487632189400,4.765189453125,-0.05451251193881035,0.03567437455058098,0.02203153260052204
1783002487642241800,4.77524169921875,-0.03410816937685013,0.013652695342898369,0.026613501831889153
1783002487652293600,4.785293701171875,-0.010616691783070564,-0.007381217088550329,0.017052220180630684
1783002487662345700,4.795345703125,0.004608067683875561,-0.022475214675068855,0.005857622716575861
1783002487672397600,4.8053974609375,0.00999111495912075,-0.00023675501870457083,0.01882641762495041
1783002487682449700,4.81544970703125,0.004864796530455351,0.03566878288984299,0.047986965626478195
1783002487692501500,4.82550146484375,0.000362988852430135,0.049070339649915695,0.07318739593029022
1783002487702553600,4.8355537109375,0.003329484025016427,0.04187288135290146,0.08307970315217972
1783002487712604400,4.8456044921875,0.00990296434611082,0.01624927669763565,0.07413122057914734
1783002487722656800,4.85565673828125,0.012927782721817493,0.009607619605958462,0.06018264591693878
1783002487732708600,4.86570849609375,0.01805703155696392,0.004246144089847803,0.03761448711156845
1783002487742760700,4.8757607421875,0.027591681107878685,0.0024000408593565226,0.01116184052079916
1783002487752812500,4.8858125,0.028240159153938293,-0.0065108961425721645,-0.011010306887328625
1783002487762864600,4.89586474609375,0.025728000327944756,-0.03105219267308712,-0.017475130036473274
1783002487772916500,4.90591650390625,0.020911406725645065,-0.03964248299598694,-0.03117869235575199
1783002487782968600,4.915968505859375,0.0157731045037508,-0.03494546562433243,-0.0278561320155859
1783002487793020700,4.926020751953125,0.005077849142253399,0.014816762879490852,0.01350515615195036
1783002487803071700,4.93607177734375,-0.005888781975954771,0.05877330154180527,0.0567367821931839
1783002487813123600,4.94612353515625,0.00017417073831893504,0.07379273325204849,0.07853768765926361
1783002487823175700,4.95617578125,-0.0030056436080485582,0.061168547719717026,0.07246167957782745
1783002487833227500,4.9662275390625,-0.007556186988949776,0.022102372720837593,0.05013959854841232
1783002487843279600,4.976279541015625,-0.023556990548968315,-0.02082911506295204,0.009736516512930393
1783002487853331500,4.98633154296875,-0.023387348279356956,-0.04429928585886955,-0.03838760405778885
1783002487863383600,4.996383544921875,-0.013219931162893772,-0.06369535624980927,-0.08245386183261871
1783002487873435600,5.006435546875,0.00008868326403899118,-0.07792861759662628,-0.10152369737625122
1783002487883487700,5.01648779296875,-0.0006527407676912844,-0.0553056001663208,-0.08309062570333481
1783002487893538800,5.026538818359375,-0.003743072971701622,-0.013834589160978794,-0.04091574251651764
1783002487903590700,5.036590576171875,0.0007478156476281583,0.0195502657443285,0.00047377636656165123
1783002487913642800,5.046642822265625,0.0035031221341341734,0.0329158715903759,0.040828920900821686
1783002487923694600,5.056694580078125,0.0012535499408841133,0.04894197732210159,0.06556356698274612
1783002487933746700,5.06674658203125,-0.007553523872047663,0.044796232134103775,0.0641385093331337
1783002487943798500,5.076798583984375,-0.006717823911458254,0.027406323701143265,0.04855528473854065
1783002487953850600,5.0868505859375,-0.013191435486078262,-0.0022128205746412277,0.025474732741713524
1783002487963902700,5.09690283203125,-0.021153222769498825,-0.022963106632232666,0.008153267204761505
1783002487973954600,5.10695458984375,-0.032760608941316605,-0.034444261342287064,-0.00920361839234829
1783002487984005600,5.117005615234375,-0.02738342061638832,-0.025109613314270973,-0.023187078535556793
1783002487994057700,5.1270576171875,-0.021407820284366608,-0.010600978508591652,-0.04580556973814964
1783002488004105200,5.137105224609375,-0.01209953986108303,0.00026525085559114814,-0.05758579820394516
1783002488014157000,5.147156982421875,-0.016775252297520638,0.014831144362688065,-0.06892793625593185
1783002488024209000,5.157208984375,-0.01883067935705185,0.016506271436810493,-0.0482516847550869
1783002488034261200,5.16726123046875,-0.018969163298606873,0.014502775855362415,-0.021334050223231316
1783002488044313000,5.17731298828125,-0.01805010624229908,0.0046605318784713745,0.0002681803307496011
1783002488054365200,5.187365234375,-0.011884355917572975,-0.0036967338528484106,0.008243548683822155
1783002488064416300,5.197416259765625,-0.017476994544267654,-0.006414223462343216,0.00962759368121624
1783002488074468000,5.207468017578125,-0.021434186026453972,0.014510232955217361,0.00726457079872489
1783002488084520200,5.217520263671875,-0.023013174533843994,0.02582174353301525,0.008866994641721249
1783002488094572000,5.227572021484375,-0.0257548987865448,0.008654207922518253,0.0022082931827753782
1783002488104624000,5.2376240234375,-0.018388329073786736,-0.016415990889072418,-0.01483433973044157
1783002488114676200,5.24767626953125,-0.011032410897314548,-0.027470240369439125,-0.03562616929411888
1783002488124728300,5.257728271484375,-0.007292001508176327,-0.03718571737408638,-0.05509760603308678
1783002488134780200,5.2677802734375,-0.0033595776185393333,-0.039205990731716156,-0.057324010878801346
1783002488144832300,5.277832275390625,-0.007986021228134632,-0.035890355706214905,-0.04957554116845131
1783002488154883000,5.287883056640625,-0.015797872096300125,-0.030230073258280754,-0.024403875693678856
1783002488164935200,5.29793505859375,-0.03153209388256073,0.007728759665042162,0.017524398863315582
1783002488174987000,5.307987060546875,-0.038593996316194534,0.04615071788430214,0.032829850912094116
1783002488185039000,5.3180390625,-0.032137431204319,0.044194091111421585,0.02949610725045204
1783002488195091000,5.328091064453125,-0.01986212097108364,0.03418513387441635,0.013772005215287209
1783002488205143300,5.338143310546875,-0.0011467571603134274,-0.004986502695828676,-0.010468886233866215
1783002488215195100,5.348195068359375,0.010496849194169044,-0.020256802439689636,-0.026379143819212914
1783002488225247200,5.358247314453125,0.007737015374004841,-0.019521236419677734,-0.034801654517650604
1783002488235299000,5.368299072265625,-0.0123645244166255,-0.012558935210108757,-0.03236193582415581
1783002488245350100,5.37835009765625,-0.03388978913426399,-0.01793772168457508,-0.014271880500018597
1783002488255402000,5.388402099609375,-0.06124471500515938,-0.01570199802517891,0.00987127237021923
1783002488265454000,5.3984541015625,-0.0686216726899147,-0.013615943491458893,0.020066918805241585
1783002488275506000,5.408505859375,-0.048561941832304,-0.010706440545618534,0.007451790850609541
1783002488285558300,5.418558349609375,-0.04232002794742584,-0.007698932196944952,-0.015682555735111237
1783002488295610000,5.428610107421875,-0.05200381204485893,-0.01565326191484928,-0.040111467242240906
1783002488305662200,5.438662109375,-0.05471011623740196,-0.026741866022348404,-0.051478635519742966
1783002488315714000,5.448714111328125,-0.06012938171625137,-0.037816885858774185,-0.06204579398036003
1783002488325766100,5.45876611328125,-0.051362521946430206,-0.0361793078482151,-0.07432376593351364
1783002488335817200,5.468817138671875,-0.04465695098042488,-0.04030774161219597,-0.07462789863348007
1783002488345869000,5.478869140625,-0.0457986481487751,-0.023437682539224625,-0.06420375406742096
1783002488355921200,5.488921142578125,-0.03782567381858826,-0.001312139444053173,-0.03190173953771591
1783002488365973200,5.49897314453125,-0.03873354569077492,0.028064390644431114,0.007111971732228994
1783002488376025000,5.509025146484375,-0.04394588619470596,0.05831443890929222,0.043770115822553635
1783002488386077200,5.5190771484375,-0.02953578718006611,0.07219216972589493,0.0674232468008995
1783002488396129000,5.52912890625,-0.010071010328829288,0.07311788946390152,0.07060971856117249
1783002488406181000,5.53918115234375,0.010919759050011635,0.06470309942960739,0.059777311980724335
1783002488416233000,5.54923291015625,0.025724271312355995,0.051125235855579376,0.031805332750082016
1783002488426284000,5.559283935546875,0.029997047036886215,0.008160990662872791,-0.001782453735359013
1783002488436336000,5.569336181640625,0.024891234934329987,-0.04072905331850052,-0.03617478162050247
1783002488446388000,5.579387939453125,0.01642025262117386,-0.061829280108213425,-0.05185547471046448
1783002488456440300,5.5894404296875,0.011113104410469532,-0.05061204358935356,-0.03549674153327942
1783002488466492200,5.5994921875,0.0027574370615184307,-0.013275058940052986,0.006895190104842186
1783002488476544300,5.609544189453125,0.015032744966447353,0.014040717855095863,0.04730812832713127
1783002488486596000,5.61959619140625,0.042515236884355545,0.02630803734064102,0.07504201680421829
1783002488496648200,5.629648193359375,0.06677716225385666,0.03699423745274544,0.103024922311306
1783002488506700000,5.639699951171875,0.07510992884635925,0.07431258261203766,0.13648194074630737
1783002488516751000,5.649751220703125,0.06524345278739929,0.10029864311218262,0.16116970777511597
1783002488526803000,5.659802978515625,0.047630101442337036,0.08691812306642532,0.15302976965904236
1783002488536855300,5.669855224609375,0.029686523601412773,0.0473581925034523,0.11588186025619507
1783002488546907100,5.6799072265625,0.0065503111109137535,0.006416886579245329,0.0678701251745224
1783002488556959200,5.689959228515625,-0.019808059558272362,-0.027471572160720825,0.015300126746296883
1783002488567011000,5.700010986328125,-0.031693216413259506,-0.052688512951135635,-0.039453666657209396
1783002488577063200,5.710063232421875,-0.031434088945388794,-0.06628474593162537,-0.09199143946170807
1783002488587115000,5.720114990234375,-0.02256070263683796,-0.08228129148483276,-0.12320581823587418
1783002488597166000,5.730166015625,-0.0011590076610445976,-0.017193634063005447,-0.12767674028873444
1783002488607218000,5.740218017578125,-0.016318518668413162,0.12422660738229752,-0.016949422657489777
1783002488617270300,5.750270263671875,-0.16865932941436768,0.10692991316318512,0.39004549384117126
1783002488627322000,5.760322021484375,-0.21574667096138,-0.2837928235530853,0.6472195386886597
1783002488637374200,5.770374267578125,-0.1053815484046936,-0.3701021671295166,0.8179044127464294
1783002488647426000,5.780426025390625,-0.012752546928822994,-0.4098146855831146,0.8805182576179504
1783002488657478100,5.79047802734375,0.02689845860004425,-0.4273603856563568,0.8180365562438965
1783002488667530000,5.800530029296875,0.029586654156446457,-0.30640360713005066,0.6556955575942993
1783002488677582000,5.81058203125,0.010118148289620876,-0.12947197258472443,0.4195570647716522
1783002488687633200,5.820633056640625,-0.016693759709596634,0.06753776222467422,0.12088035047054291
1783002488697685200,5.830685302734375,0.0028186896815896034,0.2650417983531952,-0.0941440761089325
1783002488707737000,5.840737060546875,0.059786632657051086,0.3562036454677582,-0.2582206428050995
1783002488717789200,5.8507890625,0.10788439214229584,0.3650874197483063,-0.39603015780448914
1783002488727841000,5.860841064453125,0.11027085036039352,0.3136548697948456,-0.5123850107192993
1783002488737893000,5.87089306640625,0.03822488337755203,0.24006639420986176,-0.5074091553688049
1783002488747945000,5.880945068359375,-0.05013853311538696,0.13044242560863495,-0.32660502195358276
