time,seconds_elapsed,z,y,x
1783002702632367600,0.07436767578125,-0.811981201171875,-0.4098358154296875,-0.0293121337890625
1783002702642419500,0.08441943359375,-0.76922607421875,-0.3931427001953125,-0.04296875
1783002702652470500,0.094470458984375,-0.81072998046875,-0.3683013916015625,-0.0227203369140625
1783002702662522600,0.104522705078125,-0.8819732666015625,-0.3776702880859375,-0.00555419921875
1783002702672573400,0.114573486328125,-0.8770904541015625,-0.414093017578125,-0.004791259765625
1783002702682625500,0.12462548828125,-0.84967041015625,-0.4195404052734375,-0.009735107421875
1783002702692676600,0.134676513671875,-0.8727569580078125,-0.39215087890625,-0.0203399658203125
1783002702702728400,0.144728515625,-0.912872314453125,-0.3863983154296875,-0.0325469970703125
1783002702712779500,0.154779541015625,-0.9504241943359375,-0.4000091552734375,-0.0430755615234375
1783002702722831400,0.164831298828125,-0.957916259765625,-0.4082794189453125,-0.05621337890625
1783002702732882400,0.17488232421875,-0.9306640625,-0.40826416015625,-0.0638580322265625
1783002702742934500,0.1849345703125,-0.9101104736328125,-0.4043121337890625,-0.0655517578125
1783002702752985600,0.194985595703125,-0.933624267578125,-0.399505615234375,-0.066986083984375
1783002702763037400,0.205037353515625,-0.968048095703125,-0.397552490234375,-0.06915283203125
1783002702773088500,0.215088623046875,-0.9782867431640625,-0.39593505859375,-0.0692596435546875
1783002702783140400,0.225140380859375,-0.9574737548828125,-0.393646240234375,-0.070098876953125
1783002702793191400,0.23519140625,-0.91461181640625,-0.4031219482421875,-0.0788726806640625
1783002702803243500,0.245243408203125,-0.8791656494140625,-0.417999267578125,-0.0928497314453125
1783002702813294300,0.25529443359375,-0.8823699951171875,-0.4235382080078125,-0.0950927734375
1783002702823346700,0.2653466796875,-0.9050140380859375,-0.427032470703125,-0.0830230712890625
1783002702833397500,0.2753974609375,-0.9172515869140625,-0.437255859375,-0.0697174072265625
1783002702843449600,0.28544970703125,-0.9138336181640625,-0.4510345458984375,-0.0671234130859375
1783002702853500700,0.295500732421875,-0.8950958251953125,-0.460418701171875,-0.0716400146484375
1783002702863552500,0.305552490234375,-0.89178466796875,-0.460845947265625,-0.075439453125
1783002702873603600,0.315603515625,-0.9003143310546875,-0.461944580078125,-0.078857421875
1783002702883655400,0.325655517578125,-0.9022064208984375,-0.467864990234375,-0.0806427001953125
1783002702893706500,0.33570654296875,-0.88824462890625,-0.4741363525390625,-0.0828857421875
1783002702903758600,0.345758544921875,-0.8852081298828125,-0.4712066650390625,-0.0855255126953125
1783002702913809700,0.3558095703125,-0.9072113037109375,-0.466583251953125,-0.0850982666015625
1783002702923861500,0.365861572265625,-0.9139251708984375,-0.4726409912109375,-0.083404541015625
1783002702933912600,0.37591259765625,-0.8997650146484375,-0.4778289794921875,-0.0817108154296875
1783002702943964400,0.38596435546875,-0.89892578125,-0.471649169921875,-0.0767974853515625
1783002702954015500,0.396015380859375,-0.914581298828125,-0.459625244140625,-0.0712738037109375
1783002702964067600,0.406067626953125,-0.9249267578125,-0.4512939453125,-0.0697784423828125
1783002702974118400,0.416118408203125,-0.913116455078125,-0.445098876953125,-0.0741119384765625
1783002702984170500,0.42617041015625,-0.902313232421875,-0.434600830078125,-0.071075439453125
1783002702994221600,0.4362216796875,-0.9062042236328125,-0.42608642578125,-0.0608978271484375
1783002703004273400,0.4462734375,-0.910430908203125,-0.429840087890625,-0.0525665283203125
1783002703014324500,0.456324462890625,-0.91107177734375,-0.4321441650390625,-0.0500335693359375
1783002703024376300,0.466376220703125,-0.919342041015625,-0.424468994140625,-0.051910400390625
1783002703034427400,0.476427490234375,-0.9380340576171875,-0.4170379638671875,-0.0513916015625
1783002703044479500,0.4864794921875,-0.9441070556640625,-0.421722412109375,-0.053192138671875
1783002703054530600,0.496530517578125,-0.9376678466796875,-0.424957275390625,-0.071441650390625
1783002703064582700,0.506582763671875,-0.9365081787109375,-0.4154510498046875,-0.0756988525390625
1783002703074633500,0.516633544921875,-0.9361724853515625,-0.404632568359375,-0.0644683837890625
1783002703084685600,0.526685546875,-0.9308929443359375,-0.4044952392578125,-0.0512542724609375
1783002703094736600,0.536736572265625,-0.91619873046875,-0.4116058349609375,-0.0406036376953125
1783002703104788500,0.54678857421875,-0.9097442626953125,-0.4116973876953125,-0.0315399169921875
1783002703114839600,0.556839599609375,-0.92266845703125,-0.40850830078125,-0.0209503173828125
1783002703124891400,0.566891357421875,-0.9399566650390625,-0.41363525390625,-0.0141143798828125
1783002703134942500,0.5769423828125,-0.9492034912109375,-0.4116058349609375,-0.0108642578125
1783002703144994600,0.58699462890625,-0.959564208984375,-0.401519775390625,-0.012115478515625
1783002703155045600,0.597045654296875,-0.949432373046875,-0.398040771484375,-0.0176544189453125
1783002703165097500,0.607097412109375,-0.939208984375,-0.4034576416015625,-0.0211029052734375
1783002703175148500,0.6171484375,-0.954742431640625,-0.413330078125,-0.011962890625
1783002703185200400,0.627200439453125,-0.9622802734375,-0.4376983642578125,0.004241943359375
1783002703195251500,0.63725146484375,-0.9511871337890625,-0.46234130859375,0.02337646484375
1783002703205303600,0.647303466796875,-0.9828033447265625,-0.463897705078125,0.0382080078125
1783002703215351000,0.65735107421875,-1.0443878173828125,-0.458953857421875,0.0418853759765625
1783002703225403100,0.667403076171875,-1.071197509765625,-0.45599365234375,0.0330352783203125
1783002703235454200,0.6774541015625,-1.0872955322265625,-0.44268798828125,0.01416015625
1783002703245506000,0.687506103515625,-1.122222900390625,-0.4212188720703125,0.000274658203125
1783002703255557000,0.69755712890625,-1.1590118408203125,-0.402679443359375,-0.0044403076171875
1783002703265609000,0.70760888671875,-1.1829986572265625,-0.3857269287109375,-0.008575439453125
1783002703275660000,0.717659912109375,-1.19622802734375,-0.357757568359375,-0.014984130859375
1783002703285712100,0.727712158203125,-1.177215576171875,-0.3251953125,-0.0251922607421875
1783002703295763000,0.737762939453125,-1.1482391357421875,-0.2991485595703125,-0.032318115234375
1783002703305815000,0.74781494140625,-1.131103515625,-0.278350830078125,-0.0342254638671875
1783002703315866000,0.7578662109375,-1.0841827392578125,-0.2721405029296875,-0.02813720703125
1783002703325918000,0.76791796875,-0.997100830078125,-0.2685089111328125,-0.0215301513671875
1783002703335969000,0.777968994140625,-0.98773193359375,-0.2488861083984375,-0.0233612060546875
1783002703346020900,0.788020751953125,-1.0423431396484375,-0.2293701171875,-0.04254150390625
1783002703356072000,0.798072021484375,-1.0599517822265625,-0.22747802734375,-0.0497283935546875
1783002703366124000,0.8081240234375,-1.0386810302734375,-0.2330474853515625,-0.043548583984375
1783002703376174800,0.8181748046875,-1.01092529296875,-0.2369232177734375,-0.0234222412109375
1783002703386227000,0.82822705078125,-0.9811553955078125,-0.2419281005859375,0.0123748779296875
1783002703396278000,0.838278076171875,-0.9533538818359375,-0.25726318359375,0.0453948974609375
1783002703406330000,0.848330078125,-0.927490234375,-0.2738037109375,0.0742340087890625
1783002703416381200,0.858381103515625,-0.9114990234375,-0.28216552734375,0.098541259765625
1783002703426433000,0.86843310546875,-0.8988494873046875,-0.290283203125,0.109100341796875
1783002703436484000,0.878484130859375,-0.896514892578125,-0.29412841796875,0.1264190673828125
1783002703446536200,0.8885361328125,-0.925201416015625,-0.295806884765625,0.144378662109375
1783002703456587000,0.8985869140625,-0.97845458984375,-0.2971343994140625,0.1572723388671875
1783002703466639000,0.90863916015625,-0.98486328125,-0.2971649169921875,0.1668243408203125
1783002703476690200,0.918690185546875,-0.9619903564453125,-0.2877044677734375,0.175811767578125
1783002703486742000,0.928741943359375,-0.951873779296875,-0.2805633544921875,0.17193603515625
1783002703496793000,0.93879296875,-0.9616851806640625,-0.2811431884765625,0.162017822265625
1783002703506845000,0.948844970703125,-0.9758453369140625,-0.2812347412109375,0.14984130859375
1783002703516896000,0.95889599609375,-0.9855194091796875,-0.2685699462890625,0.1358489990234375
1783002703526948000,0.968947998046875,-0.9989013671875,-0.2552642822265625,0.1193695068359375
1783002703536999000,0.9789990234375,-1.0016937255859375,-0.25054931640625,0.10992431640625
1783002703547051000,0.989051025390625,-0.9822235107421875,-0.253570556640625,0.098876953125
1783002703557102000,0.99910205078125,-0.960174560546875,-0.2498931884765625,0.089569091796875
1783002703567154000,1.00915380859375,-0.9491729736328125,-0.2443695068359375,0.0880584716796875
1783002703577205000,1.019205078125,-0.9376983642578125,-0.243896484375,0.0884552001953125
1783002703587256800,1.0292568359375,-0.907867431640625,-0.250579833984375,0.086151123046875
1783002703597308000,1.039307861328125,-0.87249755859375,-0.259307861328125,0.0898284912109375
1783002703607360000,1.049360107421875,-0.848663330078125,-0.2656707763671875,0.099822998046875
1783002703617410800,1.059410888671875,-0.8306884765625,-0.2712554931640625,0.1075897216796875
1783002703627463200,1.069463134765625,-0.817108154296875,-0.2758331298828125,0.11383056640625
1783002703637514200,1.07951416015625,-0.8064727783203125,-0.2857666015625,0.1226959228515625
1783002703647566000,1.089566162109375,-0.8046875,-0.3083648681640625,0.128631591796875
1783002703657617200,1.0996171875,-0.8010406494140625,-0.323883056640625,0.13726806640625
1783002703667669000,1.1096689453125,-0.8051910400390625,-0.3256378173828125,0.1364593505859375
1783002703677720000,1.119719970703125,-0.8164825439453125,-0.3180999755859375,0.125091552734375
1783002703687772200,1.129772216796875,-0.8074951171875,-0.3175048828125,0.1114349365234375
1783002703697823000,1.139822998046875,-0.7828369140625,-0.3277435302734375,0.1041259765625
1783002703707875000,1.149875,-0.7719268798828125,-0.3355712890625,0.105865478515625
1783002703717926100,1.159926025390625,-0.7790985107421875,-0.340118408203125,0.10931396484375
1783002703727978000,1.16997802734375,-0.7928009033203125,-0.3449859619140625,0.1136474609375
1783002703738029000,1.180029052734375,-0.8044891357421875,-0.3562469482421875,0.11444091796875
1783002703748081000,1.190080810546875,-0.81488037109375,-0.368072509765625,0.111572265625
1783002703758132000,1.200132080078125,-0.825531005859375,-0.37286376953125,0.1041259765625
1783002703768184000,1.21018408203125,-0.8489532470703125,-0.3737030029296875,0.0998687744140625
1783002703778235000,1.22023486328125,-0.8726348876953125,-0.376434326171875,0.0963134765625
1783002703788287000,1.230286865234375,-0.88104248046875,-0.3784332275390625,0.0883636474609375
1783002703798338000,1.240338134765625,-0.891754150390625,-0.384033203125,0.087982177734375
1783002703808390000,1.250389892578125,-0.914337158203125,-0.3956146240234375,0.094207763671875
1783002703818441000,1.26044091796875,-0.9233245849609375,-0.407073974609375,0.096893310546875
1783002703828493000,1.2704931640625,-0.9156494140625,-0.410736083984375,0.0964813232421875
1783002703838544000,1.2805439453125,-0.9212646484375,-0.413909912109375,0.09075927734375
1783002703848596200,1.29059619140625,-0.93487548828125,-0.4210968017578125,0.0854644775390625
1783002703858647000,1.30064697265625,-0.949371337890625,-0.427764892578125,0.085052490234375
1783002703868699100,1.31069921875,-0.9685821533203125,-0.436737060546875,0.0901947021484375
1783002703878750200,1.320750244140625,-0.9785919189453125,-0.4449920654296875,0.0882110595703125
1783002703888802000,1.330802001953125,-0.9792938232421875,-0.4466094970703125,0.0803680419921875
1783002703898853000,1.34085302734375,-0.9939117431640625,-0.44091796875,0.073333740234375
1783002703908905000,1.350905029296875,-1.025390625,-0.436187744140625,0.074676513671875
1783002703918956000,1.3609560546875,-1.0664215087890625,-0.4376068115234375,0.0888214111328125
1783002703929008000,1.371008056640625,-1.069000244140625,-0.449981689453125,0.07220458984375
1783002703939059000,1.381058837890625,-1.0244140625,-0.452728271484375,0.0400848388671875
1783002703949111000,1.391111083984375,-1.017852783203125,-0.4364471435546875,0.0301361083984375
1783002703959162000,1.401162109375,-1.04510498046875,-0.426055908203125,0.0346221923828125
1783002703969214000,1.4112138671875,-1.03851318359375,-0.4304656982421875,0.047088623046875
1783002703979265000,1.42126513671875,-1.0077056884765625,-0.4406890869140625,0.06378173828125
1783002703989316900,1.43131689453125,-0.99755859375,-0.4479522705078125,0.073333740234375
1783002703999368000,1.441367919921875,-1.005096435546875,-0.4720916748046875,0.0938262939453125
1783002704009420000,1.451419921875,-0.991851806640625,-0.5102996826171875,0.1157989501953125
1783002704019470800,1.461470947265625,-0.9973907470703125,-0.496856689453125,0.1204833984375
1783002704029523000,1.47152294921875,-1.03204345703125,-0.4392852783203125,0.10931396484375
1783002704039574000,1.481573974609375,-1.0703887939453125,-0.404083251953125,0.0912628173828125
1783002704049626000,1.491626220703125,-1.0893402099609375,-0.3900146484375,0.066650390625
1783002704059677200,1.50167724609375,-1.0884552001953125,-0.371124267578125,0.045074462890625
1783002704069729000,1.51172900390625,-1.077728271484375,-0.3337554931640625,0.033233642578125
1783002704079780000,1.521780029296875,-1.0984649658203125,-0.290435791015625,0.01812744140625
1783002704089832200,1.531832275390625,-1.1175689697265625,-0.259521484375,-0.013885498046875
1783002704099883000,1.541883056640625,-1.1055755615234375,-0.2420654296875,-0.039764404296875
1783002704109935000,1.55193505859375,-1.0775299072265625,-0.2310791015625,-0.046600341796875
1783002704119986200,1.561986083984375,-1.0396728515625,-0.221588134765625,-0.0406646728515625
1783002704130038000,1.5720380859375,-1.0348968505859375,-0.1997528076171875,-0.0173187255859375
1783002704140089000,1.582089111328125,-1.0413665771484375,-0.1829833984375,0.0017547607421875
1783002704150141000,1.592140869140625,-1.0289306640625,-0.1785736083984375,0.003631591796875
1783002704160192000,1.60219189453125,-1.034942626953125,-0.1688385009765625,-0.0001373291015625
1783002704170244000,1.612244140625,-1.0543060302734375,-0.157379150390625,-0.003265380859375
1783002704180295000,1.622294921875,-1.04974365234375,-0.1577301025390625,-0.024566650390625
1783002704190347000,1.632346923828125,-1.0271759033203125,-0.156280517578125,-0.02679443359375
1783002704200398000,1.642398193359375,-1.0078887939453125,-0.16021728515625,-0.0280303955078125
1783002704210450000,1.652449951171875,-0.9625091552734375,-0.1787872314453125,-0.041534423828125
1783002704220500700,1.662500732421875,-0.912384033203125,-0.1912689208984375,-0.043548583984375
1783002704230552600,1.672552490234375,-0.8941192626953125,-0.198394775390625,-0.0506134033203125
1783002704240603600,1.682603759765625,-0.88043212890625,-0.211669921875,-0.0603485107421875
1783002704250655700,1.69265576171875,-0.854827880859375,-0.231414794921875,-0.07012939453125
1783002704260706600,1.70270654296875,-0.816375732421875,-0.2606353759765625,-0.0819854736328125
1783002704270759000,1.712759033203125,-0.7841796875,-0.2839508056640625,-0.0906524658203125
1783002704280809700,1.722809814453125,-0.78094482421875,-0.2996978759765625,-0.084381103515625
1783002704290861800,1.73286181640625,-0.79644775390625,-0.318023681640625,-0.0739593505859375
1783002704300913000,1.742912841796875,-0.8035736083984375,-0.3398284912109375,-0.0600128173828125
1783002704310964700,1.75296484375,-0.795562744140625,-0.3585205078125,-0.042236328125
1783002704321015800,1.763015869140625,-0.8004150390625,-0.36773681640625,-0.0213470458984375
1783002704331068000,1.77306787109375,-0.837249755859375,-0.367218017578125,-0.003997802734375
1783002704341118700,1.78311865234375,-0.86895751953125,-0.368927001953125,-0.00750732421875
1783002704351170800,1.7931708984375,-0.877593994140625,-0.3671112060546875,-0.025054931640625
1783002704361222000,1.803221923828125,-0.876739501953125,-0.3574066162109375,-0.0473785400390625
1783002704371273700,1.813273681640625,-0.8878936767578125,-0.3483734130859375,-0.0533294677734375
1783002704381324800,1.82332470703125,-0.903228759765625,-0.3526763916015625,-0.0567779541015625
1783002704391376600,1.833376708984375,-0.9051513671875,-0.358367919921875,-0.04669189453125
1783002704401427700,1.843427734375,-0.9175872802734375,-0.3636627197265625,-0.0315399169921875
1783002704411479800,1.853479736328125,-0.9474639892578125,-0.3674774169921875,-0.02294921875
1783002704421530600,1.863530517578125,-0.9655609130859375,-0.367889404296875,-0.0224151611328125
1783002704431582700,1.873582763671875,-0.9572601318359375,-0.3647308349609375,-0.0290069580078125
1783002704441633800,1.8836337890625,-0.946319580078125,-0.3622283935546875,-0.0366058349609375
1783002704451685600,1.893685546875,-0.9442291259765625,-0.3608245849609375,-0.04498291015625
1783002704461736700,1.90373681640625,-0.9485931396484375,-0.362213134765625,-0.0472869873046875
1783002704471788500,1.91378857421875,-0.949188232421875,-0.367431640625,-0.04296875
1783002704481839600,1.923839599609375,-0.946197509765625,-0.37310791015625,-0.0415191650390625
1783002704491892000,1.93389208984375,-0.9420318603515625,-0.3757781982421875,-0.043731689453125
1783002704501942800,1.94394287109375,-0.9434051513671875,-0.3785247802734375,-0.0417633056640625
1783002704511995000,1.953994873046875,-0.9461822509765625,-0.3843536376953125,-0.038970947265625
1783002704522046000,1.9640458984375,-0.9351806640625,-0.3903961181640625,-0.0389251708984375
1783002704532097800,1.974097900390625,-0.9266357421875,-0.3927001953125,-0.0352783203125
1783002704542148900,1.98414892578125,-0.9285736083984375,-0.395660400390625,-0.0339813232421875
1783002704552200700,1.99420068359375,-0.9242095947265625,-0.40362548828125,-0.0284576416015625
1783002704562251800,2.004251708984375,-0.91375732421875,-0.41485595703125,-0.01092529296875
1783002704572304000,2.014303955078125,-0.9036102294921875,-0.4316864013671875,0.0053558349609375
1783002704582354700,2.024354736328125,-0.9047393798828125,-0.44049072265625,0.0158233642578125
1783002704592406800,2.03440673828125,-0.912384033203125,-0.44378662109375,0.021209716796875
1783002704602457900,2.044457763671875,-0.9128875732421875,-0.4485931396484375,0.0164337158203125
1783002704612509700,2.054509765625,-0.900115966796875,-0.4510345458984375,0.0012969970703125
1783002704622560800,2.064560791015625,-0.8917999267578125,-0.4498291015625,-0.0087738037109375
1783002704632612600,2.074612548828125,-0.9038848876953125,-0.4474639892578125,-0.00421142578125
1783002704642663700,2.08466357421875,-0.912689208984375,-0.4514312744140625,-0.00079345703125
1783002704652715800,2.0947158203125,-0.9044036865234375,-0.4615325927734375,-0.002685546875
1783002704662767600,2.104767578125,-0.8906707763671875,-0.4698638916015625,-0.006683349609375
1783002704672818700,2.114818603515625,-0.8923797607421875,-0.4749298095703125,-0.01129150390625
1783002704682870800,2.124870849609375,-0.9070281982421875,-0.4798431396484375,-0.009490966796875
1783002704692921600,2.134921630859375,-0.9157257080078125,-0.48187255859375,-0.0023193359375
1783002704702972700,2.14497265625,-0.91845703125,-0.48095703125,0.0034637451171875
1783002704713024800,2.155024658203125,-0.9170379638671875,-0.4815216064453125,0.00634765625
1783002704723076900,2.165076904296875,-0.9084014892578125,-0.4814910888671875,0.0006866455078125
1783002704733128000,2.1751279296875,-0.9102935791015625,-0.47821044921875,-0.007904052734375
1783002704743179800,2.1851796875,-0.9221649169921875,-0.47467041015625,-0.0182037353515625
1783002704753230800,2.19523095703125,-0.9308319091796875,-0.4739990234375,-0.0281982421875
1783002704763282700,2.20528271484375,-0.927764892578125,-0.475067138671875,-0.0342254638671875
1783002704773333800,2.215333740234375,-0.921661376953125,-0.4808197021484375,-0.029815673828125
1783002704783385900,2.2253857421875,-0.90948486328125,-0.5072784423828125,-0.01416015625
1783002704793436700,2.235436767578125,-0.8925323486328125,-0.5493011474609375,0.0092620849609375
1783002704803488800,2.24548876953125,-0.899658203125,-0.5599212646484375,0.0261993408203125
1783002704813539800,2.255539794921875,-0.9373931884765625,-0.547943115234375,0.0383453369140625
1783002704823591700,2.265591796875,-0.9783782958984375,-0.53741455078125,0.0497283935546875
1783002704833642800,2.275642822265625,-0.9968414306640625,-0.5391845703125,0.0597076416015625
1783002704843694600,2.285694580078125,-0.994720458984375,-0.5374755859375,0.061859130859375
1783002704853745700,2.29574560546875,-1.0255279541015625,-0.5185394287109375,0.0667877197265625
1783002704863797800,2.3057978515625,-1.0880279541015625,-0.490234375,0.058990478515625
1783002704873848600,2.3158486328125,-1.1392974853515625,-0.4635009765625,0.0320587158203125
1783002704883900700,2.325900634765625,-1.1730804443359375,-0.44244384765625,0.0061798095703125
1783002704893951700,2.33595166015625,-1.1895294189453125,-0.41680908203125,-0.0198822021484375
1783002704904003800,2.34600390625,-1.1905517578125,-0.3772430419921875,-0.04144287109375
1783002704914055000,2.356054931640625,-1.1834869384765625,-0.330810546875,-0.05853271484375
1783002704924106800,2.366106689453125,-1.1657257080078125,-0.30047607421875,-0.0655364990234375
1783002704934157800,2.37615771484375,-1.1256256103515625,-0.2756805419921875,-0.0460968017578125
1783002704944210000,2.3862099609375,-1.078369140625,-0.2559814453125,-0.007110595703125
1783002704954260700,2.3962607421875,-1.0145721435546875,-0.2510223388671875,0.0268707275390625
1783002704964312800,2.406312744140625,-0.9480133056640625,-0.2481689453125,0.06121826171875
1783002704974364000,2.416364013671875,-0.8921661376953125,-0.2495269775390625,0.0909423828125
1783002704984415700,2.426415771484375,-0.8471527099609375,-0.2572479248046875,0.1111297607421875
1783002704994466800,2.436466796875,-0.8250274658203125,-0.262664794921875,0.135284423828125
1783002705004518700,2.4465185546875,-0.8288726806640625,-0.2696075439453125,0.16802978515625
1783002705014569700,2.45656982421875,-0.830474853515625,-0.27972412109375,0.203399658203125
1783002705024621800,2.466621826171875,-0.8244476318359375,-0.295196533203125,0.246917724609375
1783002705034672600,2.476672607421875,-0.801361083984375,-0.30401611328125,0.2808685302734375
1783002705044724700,2.486724853515625,-0.774993896484375,-0.3054046630859375,0.3011627197265625
1783002705054775800,2.49677587890625,-0.783111572265625,-0.3052978515625,0.313995361328125
1783002705064827600,2.50682763671875,-0.816436767578125,-0.303955078125,0.3167724609375
1783002705074878700,2.516878662109375,-0.8416900634765625,-0.30645751953125,0.2993011474609375
1783002705084930600,2.5269306640625,-0.840728759765625,-0.301116943359375,0.2584381103515625
1783002705094981600,2.536981689453125,-0.8406982421875,-0.2816009521484375,0.21942138671875
1783002705105034000,2.547033935546875,-0.8566436767578125,-0.2644500732421875,0.1873931884765625
1783002705115084500,2.55708447265625,-0.8707427978515625,-0.2539825439453125,0.1683807373046875
1783002705125137000,2.567136962890625,-0.8787841796875,-0.2515106201171875,0.159912109375
1783002705135188000,2.57718798828125,-0.873626708984375,-0.257904052734375,0.159454345703125
1783002705145239800,2.58723974609375,-0.868072509765625,-0.260833740234375,0.169586181640625
1783002705155291000,2.597290771484375,-0.8656005859375,-0.2690277099609375,0.1750640869140625
1783002705165342700,2.6073427734375,-0.8578033447265625,-0.2799072265625,0.171905517578125
1783002705175393800,2.617393798828125,-0.859375,-0.2863616943359375,0.17449951171875
1783002705185446000,2.62744580078125,-0.8495025634765625,-0.295867919921875,0.1696929931640625
1783002705195496700,2.63749658203125,-0.8295440673828125,-0.3055267333984375,0.16595458984375
1783002705205548800,2.647548828125,-0.821197509765625,-0.319091796875,0.1745147705078125
1783002705215599900,2.657599853515625,-0.8224639892578125,-0.333160400390625,0.1934661865234375
1783002705225655000,2.667655029296875,-0.820953369140625,-0.339080810546875,0.1996307373046875
1783002705235706000,2.6777060546875,-0.8197021484375,-0.3465576171875,0.1932220458984375
1783002705245758000,2.687758056640625,-0.8320159912109375,-0.3437042236328125,0.181243896484375
1783002705255809000,2.69780908203125,-0.8625640869140625,-0.3469085693359375,0.148345947265625
1783002705265861000,2.707861083984375,-0.8892059326171875,-0.358642578125,0.1263427734375
1783002705275912000,2.717911865234375,-0.8938751220703125,-0.3655548095703125,0.108673095703125
1783002705285964000,2.727964111328125,-0.860992431640625,-0.377685546875,0.10723876953125
1783002705296015000,2.73801513671875,-0.855682373046875,-0.4015655517578125,0.1154632568359375
1783002705306067000,2.74806689453125,-0.8816375732421875,-0.411651611328125,0.138427734375
1783002705316118000,2.758117919921875,-0.9194183349609375,-0.41162109375,0.1546783447265625
1783002705326169900,2.768169921875,-0.944732666015625,-0.421295166015625,0.15045166015625
1783002705336221000,2.778220947265625,-0.956512451171875,-0.4271392822265625,0.147674560546875
1783002705346273000,2.78827294921875,-0.937713623046875,-0.4311676025390625,0.151641845703125
1783002705356323800,2.79832373046875,-0.916259765625,-0.4330291748046875,0.1479339599609375
1783002705366376000,2.8083759765625,-0.9072418212890625,-0.4353790283203125,0.1373138427734375
1783002705376427000,2.818427001953125,-0.91552734375,-0.4395904541015625,0.1226043701171875
1783002705386478800,2.828478759765625,-0.9177398681640625,-0.4491729736328125,0.11077880859375
1783002705396530000,2.838530029296875,-0.890411376953125,-0.4544677734375,0.1082763671875
1783002705406582000,2.84858203125,-0.8553314208984375,-0.4578857421875,0.1149749755859375
1783002705416632800,2.8586328125,-0.84112548828125,-0.473785400390625,0.1276397705078125
1783002705426685200,2.868685302734375,-0.8406982421875,-0.48223876953125,0.129974365234375
1783002705436736000,2.878736083984375,-0.85821533203125,-0.4818572998046875,0.1184539794921875
1783002705446788000,2.8887880859375,-0.8802490234375,-0.483489990234375,0.0951690673828125
1783002705456839200,2.898839111328125,-0.887176513671875,-0.4795684814453125,0.081268310546875
1783002705466891000,2.90889111328125,-0.8940277099609375,-0.47406005859375,0.068634033203125
1783002705476942000,2.918942138671875,-0.897979736328125,-0.474395751953125,0.046356201171875
1783002705486994000,2.928993896484375,-0.8972015380859375,-0.4797821044921875,0.032318115234375
1783002705497046000,2.9390458984375,-0.9017486572265625,-0.4874267578125,0.0384063720703125
1783002705507097000,2.94909716796875,-0.898284912109375,-0.4959869384765625,0.0506744384765625
1783002705517149000,2.95914892578125,-0.8948974609375,-0.4999847412109375,0.0574493408203125
1783002705527200000,2.969199951171875,-0.899444580078125,-0.4991302490234375,0.0613861083984375
1783002705537251800,2.979251953125,-0.9079132080078125,-0.5011138916015625,0.075714111328125
1783002705547303000,2.989302978515625,-0.9067535400390625,-0.5040435791015625,0.0892486572265625
1783002705557355000,2.99935498046875,-0.9067840576171875,-0.501220703125,0.0952606201171875
1783002705567405800,3.00940576171875,-0.92291259765625,-0.49713134765625,0.09686279296875
1783002705577458000,3.0194580078125,-0.94287109375,-0.498748779296875,0.0955963134765625
1783002705587509000,3.029509033203125,-0.950164794921875,-0.5050811767578125,0.091339111328125
1783002705597561000,3.03956103515625,-0.9447479248046875,-0.51495361328125,0.08465576171875
1783002705607612000,3.04961181640625,-0.942169189453125,-0.5356597900390625,0.077850341796875
1783002705617664000,3.0596640625,-0.950531005859375,-0.5535888671875,0.0767059326171875
1783002705627715000,3.069715087890625,-0.9568328857421875,-0.5495758056640625,0.0796356201171875
1783002705637767200,3.07976708984375,-0.991790771484375,-0.5399169921875,0.08953857421875
1783002705647818000,3.08981787109375,-1.03729248046875,-0.548309326171875,0.1015167236328125
1783002705657870000,3.0998701171875,-1.038299560546875,-0.562042236328125,0.1060028076171875
1783002705667921200,3.109921142578125,-1.025543212890625,-0.560638427734375,0.098052978515625
1783002705677973000,3.119972900390625,-1.0131072998046875,-0.5360260009765625,0.08905029296875
1783002705688024000,3.130024169921875,-0.994598388671875,-0.503692626953125,0.0739898681640625
1783002705698076000,3.140075927734375,-0.9898529052734375,-0.4792633056640625,0.048095703125
1783002705708127000,3.150126953125,-0.984771728515625,-0.4598236083984375,0.0256805419921875
1783002705718179000,3.160178955078125,-0.9745330810546875,-0.4453582763671875,0.0121917724609375
1783002705728230000,3.17022998046875,-0.9549560546875,-0.4364471435546875,0.001983642578125
1783002705738282000,3.180281982421875,-0.936737060546875,-0.43060302734375,-0.00384521484375
1783002705748333000,3.1903330078125,-0.940460205078125,-0.423370361328125,-0.000457763671875
1783002705758385000,3.200385009765625,-0.9513397216796875,-0.417938232421875,-0.0028228759765625
1783002705768436000,3.21043603515625,-0.9414520263671875,-0.41864013671875,-0.016204833984375
1783002705778487800,3.22048779296875,-0.920440673828125,-0.416290283203125,-0.025909423828125
1783002705788539000,3.230538818359375,-0.9099273681640625,-0.41253662109375,-0.022979736328125
1783002705798591000,3.240591064453125,-0.9196929931640625,-0.4138946533203125,-0.02490234375
1783002705808641800,3.250641845703125,-0.918853759765625,-0.414031982421875,-0.0299835205078125
1783002705818694100,3.260694091796875,-0.9034576416015625,-0.41156005859375,-0.0341949462890625
1783002705828745000,3.270744873046875,-0.876861572265625,-0.4068756103515625,-0.042572021484375
1783002705838797000,3.280797119140625,-0.8790740966796875,-0.392181396484375,-0.0467376708984375
1783002705848848100,3.29084814453125,-0.9100494384765625,-0.3742523193359375,-0.0514068603515625
1783002705858900000,3.30089990234375,-0.9324188232421875,-0.3575592041015625,-0.0595245361328125
1783002705868951000,3.310950927734375,-0.9537353515625,-0.3387298583984375,-0.066925048828125
1783002705879003100,3.321003173828125,-0.985626220703125,-0.3270263671875,-0.075103759765625
1783002705889054000,3.331053955078125,-1.0331573486328125,-0.3174285888671875,-0.084197998046875
1783002705899106000,3.34110595703125,-1.05096435546875,-0.306640625,-0.0929718017578125
1783002705909157000,3.3511572265625,-1.0161285400390625,-0.29559326171875,-0.113128662109375
1783002705919209000,3.361208984375,-0.979644775390625,-0.2820587158203125,-0.1295928955078125
1783002705929260000,3.371260009765625,-0.9646453857421875,-0.2694244384765625,-0.1234588623046875
1783002705939311900,3.381311767578125,-0.95648193359375,-0.2631683349609375,-0.1045684814453125
1783002705949363000,3.391363037109375,-0.9644622802734375,-0.25836181640625,-0.081695556640625
1783002705959415000,3.4014150390625,-0.984710693359375,-0.266357421875,-0.067108154296875
1783002705969465900,3.4114658203125,-0.9527435302734375,-0.2872772216796875,-0.0778045654296875
1783002705979518000,3.42151806640625,-0.91815185546875,-0.296417236328125,-0.1011505126953125
1783002705989569800,3.43156982421875,-0.910247802734375,-0.295379638671875,-0.1051483154296875
1783002705999620900,3.441620849609375,-0.8975982666015625,-0.3033294677734375,-0.08929443359375
1783002706009673200,3.451673095703125,-0.898712158203125,-0.3089752197265625,-0.05322265625
1783002706019723800,3.461723876953125,-0.90008544921875,-0.3188934326171875,-0.0081634521484375
1783002706029776100,3.471776123046875,-0.8749847412109375,-0.3351593017578125,0.0225830078125
1783002706039827200,3.4818271484375,-0.8592071533203125,-0.3450469970703125,0.033355712890625
1783002706049879000,3.491879150390625,-0.8623809814453125,-0.3438568115234375,0.0394744873046875
1783002706059930000,3.50193017578125,-0.8629150390625,-0.3382568359375,0.03118896484375
1783002706069982000,3.51198193359375,-0.8607177734375,-0.336334228515625,0.016082763671875
1783002706080033000,3.522032958984375,-0.8531494140625,-0.3438568115234375,0.0090789794921875
1783002706090085000,3.532085205078125,-0.8443603515625,-0.353240966796875,0.0038299560546875
1783002706100136000,3.542135986328125,-0.8434295654296875,-0.357513427734375,0.0047454833984375
1783002706110188000,3.55218798828125,-0.85955810546875,-0.3525848388671875,-0.0052490234375
1783002706120239000,3.562239013671875,-0.8553466796875,-0.352386474609375,-0.02862548828125
1783002706130291000,3.572291015625,-0.8411712646484375,-0.34686279296875,-0.046905517578125
1783002706140342000,3.582342041015625,-0.8346099853515625,-0.3361053466796875,-0.050811767578125
1783002706150393900,3.592393798828125,-0.8466033935546875,-0.329864501953125,-0.0482177734375
1783002706160445000,3.60244482421875,-0.8502197265625,-0.3323516845703125,-0.047576904296875
1783002706170497000,3.6124970703125,-0.8397216796875,-0.3434295654296875,-0.035186767578125
1783002706180547800,3.6225478515625,-0.8340911865234375,-0.355926513671875,-0.0166473388671875
1783002706190600000,3.632599853515625,-0.8319091796875,-0.375,-0.0014495849609375
1783002706200651000,3.642651123046875,-0.8406982421875,-0.389556884765625,0.011138916015625
1783002706210702800,3.652702880859375,-0.855682373046875,-0.393310546875,0.0219879150390625
1783002706220750600,3.66275048828125,-0.8650054931640625,-0.3959503173828125,0.013153076171875
1783002706230802400,3.672802490234375,-0.8864898681640625,-0.3977813720703125,-0.00030517578125
1783002706240853500,3.682853515625,-0.9268951416015625,-0.3950042724609375,-0.0082244873046875
1783002706250905600,3.692905517578125,-0.940826416015625,-0.4006500244140625,-0.0077972412109375
1783002706260956400,3.702956298828125,-0.92626953125,-0.4098052978515625,-0.0049591064453125
1783002706271008800,3.7130087890625,-0.91796875,-0.4185943603515625,0.003814697265625
1783002706281059800,3.723059814453125,-0.9297637939453125,-0.4199981689453125,0.01788330078125
1783002706291111700,3.733111572265625,-0.9323577880859375,-0.4221343994140625,0.0247802734375
1783002706301162800,3.743162841796875,-0.9337921142578125,-0.4261932373046875,0.0301666259765625
1783002706311214600,3.753214599609375,-0.940216064453125,-0.4283599853515625,0.0407257080078125
1783002706321265700,3.763265625,-0.9402313232421875,-0.43109130859375,0.047393798828125
1783002706331317800,3.77331787109375,-0.9424591064453125,-0.42803955078125,0.046630859375
1783002706341368600,3.78336865234375,-0.95306396484375,-0.4231719970703125,0.0461578369140625
1783002706351420700,3.793420654296875,-0.9669342041015625,-0.4219512939453125,0.037750244140625
1783002706361471700,3.8034716796875,-0.983245849609375,-0.417205810546875,0.027862548828125
1783002706371523600,3.813523681640625,-1.000732421875,-0.4097137451171875,0.028106689453125
1783002706381574700,3.82357470703125,-1.01934814453125,-0.399017333984375,0.028656005859375
1783002706391626500,3.83362646484375,-1.023345947265625,-0.3917083740234375,0.022064208984375
1783002706401678600,3.8436787109375,-1.029876708984375,-0.37896728515625,0.0126495361328125
1783002706411729700,3.853729736328125,-1.0390167236328125,-0.360260009765625,0.001068115234375
1783002706421781500,3.863781494140625,-1.06231689453125,-0.35150146484375,-0.001861572265625
1783002706431832600,3.87383251953125,-1.0483245849609375,-0.37353515625,0.0005950927734375
1783002706441884400,3.883884521484375,-1.00616455078125,-0.4095306396484375,0.011749267578125
1783002706451935500,3.893935546875,-0.9932861328125,-0.4133758544921875,0.0467071533203125
1783002706461987800,3.90398779296875,-0.9982147216796875,-0.414398193359375,0.082794189453125
1783002706472038700,3.91403857421875,-1.004486083984375,-0.4315948486328125,0.10455322265625
1783002706482090800,3.9240908203125,-1.026153564453125,-0.4333953857421875,0.1298675537109375
1783002706492141800,3.934141845703125,-1.043243408203125,-0.4212799072265625,0.14373779296875
1783002706502193700,3.944193603515625,-1.031524658203125,-0.404510498046875,0.1328887939453125
1783002706512244700,3.95424462890625,-1.03948974609375,-0.3842315673828125,0.1062469482421875
1783002706522296600,3.964296630859375,-1.0786285400390625,-0.353424072265625,0.077972412109375
1783002706532347600,3.97434765625,-1.1014556884765625,-0.31561279296875,0.0572662353515625
1783002706542399700,3.984399658203125,-1.1008453369140625,-0.2783050537109375,0.03643798828125
1783002706552450600,3.994450439453125,-1.0796966552734375,-0.2628631591796875,0.0291900634765625
1783002706562502700,4.004502685546875,-1.054534912109375,-0.256134033203125,0.0398101806640625
1783002706572553700,4.0145537109375,-1.0481719970703125,-0.242462158203125,0.0531463623046875
1783002706582605600,4.02460546875,-1.062713623046875,-0.2234649658203125,0.0734100341796875
1783002706592656600,4.03465673828125,-1.0526580810546875,-0.2152099609375,0.0813751220703125
1783002706602708500,4.04470849609375,-1.0039520263671875,-0.218109130859375,0.07891845703125
1783002706612759600,4.054759521484375,-0.961578369140625,-0.2142333984375,0.0866241455078125
1783002706622811600,4.064811767578125,-0.9355926513671875,-0.2142333984375,0.0990447998046875
1783002706632862500,4.074862548828125,-0.91070556640625,-0.225830078125,0.11346435546875
1783002706642914600,4.08491455078125,-0.890167236328125,-0.2393951416015625,0.1341705322265625
1783002706652965600,4.094965576171875,-0.8789215087890625,-0.254058837890625,0.1538848876953125
1783002706663017700,4.105017822265625,-0.866180419921875,-0.266845703125,0.16107177734375
1783002706673068500,4.115068603515625,-0.8528594970703125,-0.2769775390625,0.155914306640625
1783002706683120600,4.12512060546875,-0.8590087890625,-0.2863311767578125,0.1572418212890625
1783002706693171700,4.135171630859375,-0.874847412109375,-0.29412841796875,0.15936279296875
1783002706703223800,4.145223876953125,-0.8849334716796875,-0.2982940673828125,0.1660614013671875
1783002706713274600,4.155274658203125,-0.9015960693359375,-0.2975616455078125,0.1710968017578125
1783002706723326700,4.16532666015625,-0.927001953125,-0.28765869140625,0.1682281494140625
1783002706733377800,4.175377685546875,-0.958648681640625,-0.262237548828125,0.155487060546875
1783002706743429600,4.1854296875,-0.983673095703125,-0.2359466552734375,0.1409454345703125
1783002706753480700,4.195480712890625,-0.9828338623046875,-0.2255096435546875,0.125030517578125
1783002706763532500,4.205532470703125,-0.972503662109375,-0.22149658203125,0.1093292236328125
1783002706773584600,4.215584716796875,-0.958343505859375,-0.2215423583984375,0.0861663818359375
1783002706783635700,4.2256357421875,-0.944366455078125,-0.218536376953125,0.0636749267578125
1783002706793687600,4.2356875,-0.941650390625,-0.2199554443359375,0.0538330078125
1783002706803738600,4.245738525390625,-0.9301300048828125,-0.2321319580078125,0.0392303466796875
1783002706813790500,4.25579052734375,-0.90386962890625,-0.2482452392578125,0.0330352783203125
1783002706823841500,4.265841552734375,-0.873779296875,-0.260223388671875,0.03375244140625
1783002706833893600,4.2758935546875,-0.8468170166015625,-0.2754974365234375,0.0483856201171875
1783002706843944400,4.2859443359375,-0.8280029296875,-0.2975311279296875,0.0664825439453125
1783002706853996500,4.29599658203125,-0.8120269775390625,-0.318389892578125,0.0738983154296875
1783002706864047600,4.306047607421875,-0.7969207763671875,-0.3351593017578125,0.0732421875
1783002706874099700,4.316099609375,-0.77459716796875,-0.35076904296875,0.068695068359375
1783002706884150800,4.32615087890625,-0.7718658447265625,-0.3542938232421875,0.07122802734375
1783002706894202600,4.33620263671875,-0.790069580078125,-0.352508544921875,0.0831756591796875
1783002706904253700,4.346253662109375,-0.80633544921875,-0.357879638671875,0.0887451171875
1783002706914305800,4.356305908203125,-0.82891845703125,-0.364044189453125,0.096160888671875
1783002706924356600,4.366356689453125,-0.8563232421875,-0.362518310546875,0.0973663330078125
1783002706934408700,4.37640869140625,-0.8790130615234375,-0.3536529541015625,0.0873260498046875
1783002706944459800,4.386459716796875,-0.9046173095703125,-0.337860107421875,0.0694427490234375
1783002706954511600,4.39651171875,-0.935394287109375,-0.321136474609375,0.0548248291015625
1783002706964562700,4.406562744140625,-0.94866943359375,-0.312957763671875,0.0389556884765625
1783002706974614500,4.416614501953125,-0.9356689453125,-0.30999755859375,0.01910400390625
1783002706984665600,4.42666552734375,-0.937042236328125,-0.305023193359375,0.018035888671875
1783002706994717700,4.4367177734375,-0.966064453125,-0.3004608154296875,0.0248565673828125
1783002707004768500,4.4467685546875,-1.0028228759765625,-0.3014678955078125,0.04583740234375
1783002707014820600,4.456820556640625,-1.00244140625,-0.318359375,0.058807373046875
1783002707024871700,4.46687158203125,-0.9964752197265625,-0.334259033203125,0.0572967529296875
1783002707034923500,4.476923583984375,-1.0071868896484375,-0.3355865478515625,0.0547943115234375
1783002707044974600,4.486974609375,-1.01422119140625,-0.33441162109375,0.04608154296875
1783002707055026400,4.4970263671875,-1.0262908935546875,-0.332183837890625,0.035919189453125
1783002707065077500,4.507077392578125,-1.048431396484375,-0.3306121826171875,0.031951904296875
1783002707075129900,4.5171298828125,-1.0366973876953125,-0.3416748046875,0.02655029296875
1783002707085180400,4.527180419921875,-0.996337890625,-0.353851318359375,0.0250091552734375
1783002707095232800,4.537232666015625,-0.97332763671875,-0.357696533203125,0.0375213623046875
1783002707105283800,4.547283935546875,-0.968353271484375,-0.3620452880859375,0.0542144775390625
1783002707115335700,4.557335693359375,-0.9635162353515625,-0.3689422607421875,0.0647735595703125
1783002707125386800,4.56738671875,-0.9485931396484375,-0.3765716552734375,0.0628509521484375
1783002707135438600,4.5774384765625,-0.935455322265625,-0.3823089599609375,0.061126708984375
1783002707145489700,4.58748974609375,-0.926361083984375,-0.388214111328125,0.061737060546875
1783002707155541800,4.597541748046875,-0.923980712890625,-0.3912811279296875,0.0626678466796875
1783002707165593600,4.607593505859375,-0.9413909912109375,-0.392120361328125,0.070068359375
1783002707175644700,4.617644775390625,-0.9466705322265625,-0.40167236328125,0.07012939453125
1783002707185696500,4.627696533203125,-0.921875,-0.4104461669921875,0.054840087890625
1783002707195747600,4.63774755859375,-0.9286346435546875,-0.3993377685546875,0.0506134033203125
1783002707205799700,4.647799560546875,-0.9590301513671875,-0.38775634765625,0.05584716796875
1783002707215850500,4.6578505859375,-0.96966552734375,-0.3883056640625,0.0582275390625
1783002707225902800,4.66790283203125,-0.9652557373046875,-0.386871337890625,0.060760498046875
1783002707235954000,4.677953857421875,-0.9597015380859375,-0.37896728515625,0.05914306640625
1783002707246005800,4.688005859375,-0.957061767578125,-0.373504638671875,0.055633544921875
1783002707256056800,4.698056884765625,-0.96685791015625,-0.3748931884765625,0.050445556640625
1783002707266109000,4.70810888671875,-0.97698974609375,-0.388214111328125,0.0517730712890625
1783002707276159700,4.71815966796875,-0.9545135498046875,-0.43408203125,0.06646728515625
1783002707286211800,4.7282119140625,-0.952972412109375,-0.4582366943359375,0.0845947265625
1783002707296263000,4.738262939453125,-1.00628662109375,-0.411468505859375,0.0909881591796875
1783002707306315000,4.74831494140625,-1.042449951171875,-0.3802947998046875,0.07916259765625
1783002707316366000,4.758365966796875,-1.0487518310546875,-0.394134521484375,0.0626983642578125
1783002707326418000,4.76841796875,-1.0565032958984375,-0.39788818359375,0.0568695068359375
1783002707336469000,4.778468994140625,-1.082183837890625,-0.370513916015625,0.050811767578125
1783002707346520800,4.788520751953125,-1.0969696044921875,-0.3348846435546875,0.0381317138671875
1783002707356572000,4.798572021484375,-1.0886993408203125,-0.30535888671875,0.0161590576171875
1783002707366624000,4.8086240234375,-1.074920654296875,-0.2719879150390625,0.0006256103515625
1783002707376674800,4.8186748046875,-1.0594024658203125,-0.2444000244140625,-0.0136260986328125
1783002707386727000,4.828726806640625,-1.0336456298828125,-0.232574462890625,-0.0193939208984375
1783002707396778000,4.838778076171875,-1.01751708984375,-0.2280120849609375,-0.016876220703125
1783002707406829800,4.848829833984375,-1.0236968994140625,-0.223846435546875,-0.007171630859375
1783002707416881000,4.858880859375,-1.029876708984375,-0.2178192138671875,0
1783002707426932700,4.8689326171875,-1.0346527099609375,-0.2114410400390625,-0.007110595703125
1783002707436983800,4.87898388671875,-1.03485107421875,-0.2120361328125,-0.021148681640625
1783002707447036000,4.889035888671875,-1.0257110595703125,-0.2140350341796875,-0.0295562744140625
1783002707457086700,4.899086669921875,-1.026031494140625,-0.209686279296875,-0.0328826904296875
1783002707467138800,4.909138916015625,-1.0304412841796875,-0.1981201171875,-0.04119873046875
1783002707477190000,4.91918994140625,-1.008209228515625,-0.1901397705078125,-0.05657958984375
1783002707487242000,4.929241943359375,-0.9739837646484375,-0.1905975341796875,-0.0632476806640625
1783002707497293000,4.93929296875,-0.9599609375,-0.1936187744140625,-0.054443359375
1783002707507345000,4.949344970703125,-0.9494476318359375,-0.202545166015625,-0.0440521240234375
1783002707517397000,4.95939697265625,-0.9297637939453125,-0.21893310546875,-0.04144287109375
1783002707527448000,4.969447998046875,-0.929229736328125,-0.2274627685546875,-0.0406951904296875
1783002707537500000,4.9795,-0.9473419189453125,-0.2207794189453125,-0.0455169677734375
1783002707547551000,4.989551025390625,-0.9704437255859375,-0.2068023681640625,-0.0641326904296875
1783002707557602800,4.999602783203125,-0.9879608154296875,-0.197021484375,-0.0936279296875
1783002707567654000,5.00965380859375,-1.001800537109375,-0.1864013671875,-0.1209259033203125
1783002707577706000,5.0197060546875,-0.9954376220703125,-0.1725921630859375,-0.133636474609375
1783002707587756800,5.0297568359375,-0.981689453125,-0.164031982421875,-0.1317901611328125
1783002707597809000,5.039808837890625,-0.9643707275390625,-0.162445068359375,-0.1275177001953125
1783002707607860000,5.04985986328125,-0.948883056640625,-0.1782684326171875,-0.125091552734375
1783002707617911800,5.059911865234375,-0.9332275390625,-0.1997222900390625,-0.110382080078125
1783002707627963000,5.069962890625,-0.9072418212890625,-0.2169036865234375,-0.09283447265625
1783002707638014700,5.0800146484375,-0.9073028564453125,-0.22259521484375,-0.0771026611328125
1783002707648065800,5.090065673828125,-0.92333984375,-0.228851318359375,-0.067230224609375
1783002707658118000,5.100117919921875,-0.9310455322265625,-0.2448272705078125,-0.06317138671875
1783002707668168700,5.110168701171875,-0.9322662353515625,-0.26141357421875,-0.0541534423828125
1783002707678221000,5.120220947265625,-0.9171142578125,-0.27435302734375,-0.055938720703125
1783002707688272000,5.13027197265625,-0.91357421875,-0.2771148681640625,-0.0626373291015625
1783002707698324000,5.140323974609375,-0.925506591796875,-0.2707061767578125,-0.06494140625
1783002707708375000,5.150375,-0.943084716796875,-0.2664642333984375,-0.05938720703125
1783002707718427000,5.160427001953125,-0.948577880859375,-0.269256591796875,-0.05517578125
1783002707728478000,5.17047802734375,-0.9285736083984375,-0.2761383056640625,-0.058258056640625
1783002707738530000,5.180530029296875,-0.907989501953125,-0.2737274169921875,-0.0637969970703125
1783002707748580900,5.190580810546875,-0.8992156982421875,-0.2694549560546875,-0.0655059814453125
1783002707758633000,5.200633056640625,-0.9180145263671875,-0.2656097412109375,-0.057159423828125
1783002707768684000,5.21068408203125,-0.9693145751953125,-0.2567291259765625,-0.0404052734375
1783002707778735900,5.22073583984375,-0.9912109375,-0.2527923583984375,-0.022125244140625
1783002707788787000,5.230786865234375,-0.9568939208984375,-0.26202392578125,-0.0352630615234375
1783002707798838800,5.2408388671875,-0.927154541015625,-0.26416015625,-0.06390380859375
1783002707808889900,5.250889892578125,-0.9427032470703125,-0.250701904296875,-0.07769775390625
1783002707818942000,5.26094189453125,-0.9694061279296875,-0.243804931640625,-0.0821380615234375
1783002707828992800,5.27099267578125,-0.965545654296875,-0.2454833984375,-0.075469970703125
1783002707839044900,5.281044921875,-0.947021484375,-0.2470703125,-0.0652923583984375
1783002707849096000,5.291095947265625,-0.949615478515625,-0.2412109375,-0.049774169921875
1783002707859147800,5.301147705078125,-0.99481201171875,-0.232574462890625,-0.0214385986328125
1783002707869200000,5.311199951171875,-1.0160980224609375,-0.23388671875,0.010955810546875
1783002707879250700,5.321250732421875,-0.99053955078125,-0.237945556640625,0.010040283203125
1783002707889303000,5.331302978515625,-0.9659576416015625,-0.24237060546875,-0.00946044921875
1783002707899353900,5.341353759765625,-0.94927978515625,-0.25067138671875,-0.0164642333984375
1783002707909406000,5.351406005859375,-0.94952392578125,-0.267364501953125,-0.0232086181640625
1783002707919457000,5.36145703125,-0.96990966796875,-0.2819976806640625,-0.008636474609375
1783002707929508900,5.3715087890625,-0.990936279296875,-0.291473388671875,0.005035400390625
1783002707939560000,5.381559814453125,-1.00604248046875,-0.2931671142578125,0.002960205078125
1783002707949611800,5.39161181640625,-1.0128936767578125,-0.2865142822265625,-0.0143280029296875
1783002707959662800,5.401662841796875,-1.0081329345703125,-0.276458740234375,-0.0327606201171875
1783002707969715000,5.41171484375,-1.015167236328125,-0.267547607421875,-0.050628662109375
1783002707979766000,5.42176611328125,-1.0486602783203125,-0.27313232421875,-0.06561279296875
1783002707989817900,5.43181787109375,-1.059295654296875,-0.2861480712890625,-0.0625762939453125
1783002707999869000,5.441868896484375,-1.0446624755859375,-0.300689697265625,-0.0342254638671875
1783002708009920800,5.451920654296875,-1.022430419921875,-0.321258544921875,0.01300048828125
1783002708019971800,5.461971923828125,-0.9912872314453125,-0.3460540771484375,0.055023193359375
1783002708030024000,5.47202392578125,-0.97601318359375,-0.359161376953125,0.0821990966796875
1783002708040074800,5.48207470703125,-0.9683990478515625,-0.3652801513671875,0.0853729248046875
1783002708050126800,5.492126953125,-0.9562530517578125,-0.377777099609375,0.06549072265625
1783002708060178000,5.502177978515625,-0.969085693359375,-0.38543701171875,0.0506439208984375
1783002708070229800,5.512229736328125,-0.966766357421875,-0.390228271484375,0.0548858642578125
1783002708080280800,5.52228076171875,-0.939056396484375,-0.3878326416015625,0.0710296630859375
1783002708090333000,5.5323330078125,-0.938873291015625,-0.3710784912109375,0.0827789306640625
1783002708100384000,5.542384033203125,-0.940887451171875,-0.3522491455078125,0.102996826171875
1783002708110435800,5.552435791015625,-0.92718505859375,-0.341400146484375,0.1140899658203125
1783002708120487000,5.56248681640625,-0.9132843017578125,-0.330780029296875,0.11224365234375
1783002708130539000,5.5725390625,-0.89825439453125,-0.3235015869140625,0.0903472900390625
1783002708140590000,5.582590087890625,-0.908599853515625,-0.312164306640625,0.0537261962890625
1783002708150642000,5.592641845703125,-0.9194793701171875,-0.3094024658203125,0.02001953125
1783002708160693000,5.60269287109375,-0.9085540771484375,-0.322357177734375,0.0133056640625
1783002708170744800,5.612744873046875,-0.895111083984375,-0.3331451416015625,0.035919189453125
1783002708180796000,5.6227958984375,-0.9227752685546875,-0.3305511474609375,0.0777587890625
1783002708190848000,5.632847900390625,-0.9753265380859375,-0.32659912109375,0.1236724853515625
1783002708200898800,5.64289892578125,-0.9412994384765625,-0.3628997802734375,0.147216796875
1783002708210951000,5.652950927734375,-0.8802642822265625,-0.3999176025390625,0.124847412109375
1783002708221006600,5.663006591796875,-0.9039764404296875,-0.3731842041015625,0.09429931640625
1783002708231057700,5.6730576171875,-0.95819091796875,-0.33514404296875,0.0662841796875
1783002708241109500,5.683109619140625,-0.9949493408203125,-0.3284149169921875,0.0699462890625
1783002708251160600,5.69316064453125,-1.032958984375,-0.3378753662109375,0.1308135986328125
1783002708261212700,5.703212646484375,-1.0814971923828125,-0.3519744873046875,0.2126312255859375
1783002708271263500,5.713263427734375,-1.106536865234375,-0.3837432861328125,0.3041839599609375
1783002708281315600,5.723315673828125,-0.996124267578125,-0.408233642578125,0.340972900390625
1783002708291366700,5.73336669921875,-0.9908599853515625,-0.408721923828125,0.30169677734375
1783002708301418500,5.74341845703125,-1.241912841796875,-0.3956756591796875,0.17401123046875
1783002708311469600,5.753469482421875,-1.241058349609375,-0.34857177734375,0.0851593017578125
1783002708321521400,5.763521484375,-1.1553802490234375,-0.3325042724609375,0.056793212890625
1783002708331572500,5.773572509765625,-1.079376220703125,-0.3619842529296875,0.036224365234375
1783002708341624800,5.783624755859375,-1.0877685546875,-0.35137939453125,0.0182952880859375
1783002708351675600,5.793675537109375,-1.0583648681640625,-0.30364990234375,0.008026123046875
1783002708361727700,5.803727783203125,-0.9638214111328125,-0.3056182861328125,0.001678466796875
1783002708371778800,5.81377880859375,-0.8768157958984375,-0.312164306640625,0.04071044921875
1783002708381830700,5.82383056640625,-0.8409271240234375,-0.3271942138671875,0.0757904052734375
