time,seconds_elapsed,z,y,x
1783002702651213300,0.09321337890625,1.236720892804861,0.24375994878560303,-0.06049880103385075
1783002702661264400,0.103264404296875,0.45939504232704637,0.2577750301346183,0.16445326090194284
1783002702671316700,0.113316650390625,0.3218506119430065,-0.07962970929294824,0.20851978164352475
1783002702681367300,0.1233671875,0.6276280409634113,-0.24118571438342332,0.18310208473252132
1783002702691419600,0.133419677734375,0.5212894807040691,0.006999065107107162,0.10535261796191334
1783002702701470700,0.143470703125,0.13251988022029398,0.1374655199289322,-0.007625581241305917
1783002702711522600,0.1535224609375,-0.24573650955557821,0.009304419440031051,-0.0907644129000604
1783002702721573600,0.16357373046875,-0.407654918217659,-0.13049889578670262,-0.19801654434036461
1783002702731625500,0.17362548828125,-0.17749767058789728,-0.1999275290608406,-0.28002237164750693
1783002702741676500,0.183676513671875,0.11372107172608376,-0.22817776425033806,-0.3038672480175271
1783002702751728600,0.193728759765625,0.023161095356941223,-0.2554679222360253,-0.31683095715008674
1783002702761779500,0.203779541015625,-0.30909108361303805,-0.3072907561928034,-0.343948169721663
1783002702771831600,0.21383154296875,-0.445484590396285,-0.3803577459692955,-0.35266963817458596
1783002702781882600,0.223882568359375,-0.28690146363675595,-0.42594636171162126,-0.3544545488299802
1783002702791934500,0.2339345703125,0.12002221769690513,-0.5484484135255218,-0.4216330650897696
1783002702801985500,0.243985595703125,0.544154807984829,-0.7475237096711993,-0.5808179936673492
1783002702812037400,0.254037353515625,0.6211655669510364,-0.8585144796505569,-0.6639303574442863
1783002702822088400,0.26408837890625,0.42025194946229455,-0.9154907508477568,-0.5845375256471336
1783002702832140500,0.274140625,0.28064240324199197,-1.0262585257261991,-0.4529927740693092
1783002702842191400,0.28419140625,0.27141221808195115,-1.183501343792677,-0.3860550442954525
1783002702852243500,0.294243408203125,0.45149113733470436,-1.323292676320672,-0.41603378377798944
1783002702862294500,0.30429443359375,0.5504717360466719,-1.3688456362277268,-0.44562494871504604
1783002702872346400,0.314346435546875,0.4787994154989719,-1.3911892777219415,-0.4785447466181591
1783002702882397400,0.3243974609375,0.4364046273618936,-1.4579995451912282,-0.49554969396553933
1783002702892449500,0.334449462890625,0.5519809715658426,-1.5461381396323441,-0.5175931834693998
1783002702902500400,0.344500244140625,0.6507400364816188,-1.563178998543322,-0.553388208015263
1783002702912552700,0.354552734375,0.4756880054801702,-1.5222577900901435,-0.5639122689107433
1783002702922603500,0.364603515625,0.34842999131083485,-1.5857298530474304,-0.5557585904084146
1783002702932655600,0.374655517578125,0.47275312107205386,-1.6807000470742581,-0.5491913043146953
1783002702942706700,0.384706787109375,0.5475947193056344,-1.6694091299921274,-0.5228597256954759
1783002702952758500,0.394758544921875,0.42022272336781025,-1.5839251417130231,-0.4801425737362355
1783002702962809600,0.4048095703125,0.2932984711974859,-1.5156395409941672,-0.46216359372492877
1783002702972861400,0.414861328125,0.3673696695804596,-1.472312148182094,-0.5118282997997478
1783002702982912500,0.42491259765625,0.5113339038789272,-1.403877494381368,-0.519167739309743
1783002702992964600,0.434964599609375,0.5002963770359754,-1.3081906765177844,-0.4383684747807681
1783002703003015400,0.445015380859375,0.45206689139604567,-1.3304425480753184,-0.35165023199897255
1783002703013067500,0.455067626953125,0.44548517491817474,-1.376473354627192,-0.3230929401542991
1783002703023118600,0.46511865234375,0.3989958109438419,-1.3260960433036089,-0.32937629474010316
1783002703033170400,0.47517041015625,0.227211841827631,-1.2445415034279226,-0.3444546214064583
1783002703043221500,0.485221435546875,0.11769932770729065,-1.258276891052723,-0.3467686339698732
1783002703053273300,0.4952734375,0.17481471511423588,-1.3237445117413997,-0.5177354414843023
1783002703063324400,0.505324462890625,0.2005897923618555,-1.2594377515256403,-0.6485732869017868
1783002703073376500,0.51537646484375,0.20275369239747523,-1.1466761724814771,-0.5891552485756576
1783002703083427300,0.52542724609375,0.23378362143337725,-1.1118784153446555,-0.49282600462269033
1783002703093479400,0.5354794921875,0.3622013270318508,-1.1814444112628697,-0.3986256624571979
1783002703103530500,0.545530517578125,0.46694998775124547,-1.1988441666141152,-0.3336429026760161
1783002703113582600,0.55558251953125,0.37619010489583016,-1.147801084858179,-0.2442715881021693
1783002703123633700,0.565633544921875,0.1941629741847515,-1.1778215445905924,-0.17921484976932406
1783002703133685500,0.575685546875,0.08703063319921493,-1.173994972039759,-0.1489084857676178
1783002703143736600,0.585736572265625,-0.024030279406905174,-1.0671870407029986,-0.16131647897986695
1783002703153788700,0.59578857421875,0.00814940418601036,-0.9884031345844269,-0.21834338438576087
1783002703163839500,0.605839599609375,0.1438864928871393,-0.9976850499317049,-0.2862032522395253
1783002703173891600,0.6158916015625,0.034304420661926266,-1.049685286282003,-0.2549201886927709
1783002703183942700,0.625942626953125,-0.1125906063914299,-1.2221265502631664,-0.12668776740017346
1783002703193994500,0.635994384765625,-0.011741291198134421,-1.471001065583527,0.03021463973079808
1783002703204045600,0.646045654296875,-0.17713818962574004,-1.5297028453990815,0.17412284212624654
1783002703214097400,0.656097412109375,-0.7893798608869314,-1.4691171515330672,0.22689946967652067
1783002703224145000,0.666144775390625,-1.1435048489689825,-1.463611832115054,0.14619542741663752
1783002703234197000,0.676197021484375,-1.27363111205101,-1.3853475659564136,-0.030076884361077097
1783002703244247800,0.686247802734375,-1.5619623162299394,-1.2260843479782342,-0.22520685868076978
1783002703254300200,0.696300048828125,-1.9276117378890514,-1.0724725798904895,-0.2999746244931593
1783002703264351000,0.70635107421875,-2.1765397369623183,-0.9712117612868547,-0.3593031213723123
1783002703274403000,0.716403076171875,-2.3225270015209913,-0.7779042348876595,-0.42897878821007907
1783002703284454100,0.7264541015625,-2.222779510089755,-0.4994909058719873,-0.5376325666092335
1783002703294506000,0.736506103515625,-1.902259269967675,-0.2618126150876284,-0.6359674147635698
1783002703304557000,0.74655712890625,-1.7172142527401446,-0.06491817011237144,-0.683432491902262
1783002703314609200,0.756609130859375,-1.3882611153155564,0.03594283551871776,-0.648025370695442
1783002703324660000,0.766659912109375,-0.5526122552067041,0.0672813921123743,-0.5905916380543261
1783002703334712000,0.776712158203125,-0.20009061066806316,0.25456132878512144,-0.580810979404673
1783002703344763100,0.78676318359375,-0.702040600129962,0.4989008310243487,-0.7619770363070071
1783002703354815000,0.79681494140625,-1.0136620790034532,0.5795961237221956,-0.8804691218271851
1783002703364866000,0.806865966796875,-0.8635691326916217,0.5462056030347943,-0.8508606038965284
1783002703374918000,0.81691796875,-0.6062982526868581,0.5097989493966102,-0.6946159300219267
1783002703384969000,0.826968994140625,-0.3098258276283741,0.4854360770344734,-0.3785036790678277
1783002703395021000,0.83702099609375,-0.048020811325311656,0.3779758192688226,-0.0404493166251108
1783002703405072000,0.84707177734375,0.21396716032922267,0.2341112459525466,0.2176944006914273
1783002703415124000,0.8571240234375,0.3747264620840549,0.17831687801629303,0.46804658734891563
1783002703425175000,0.867175048828125,0.4931786539852619,0.1402504744723439,0.5542319288304075
1783002703435227000,0.877226806640625,0.538462733823061,0.1284808339625597,0.6776632608510553
1783002703445278000,0.88727783203125,0.3471773609012365,0.15248451762348414,0.8405847821410745
1783002703455329800,0.897329833984375,-0.19125790039300916,0.1630231550335884,0.9856333776101469
1783002703465380900,0.907380859375,-0.4028098162740469,0.17521715843528507,1.0871997550316155
1783002703475433200,0.91743310546875,-0.20325871931016443,0.26993483900576826,1.2158860484384
1783002703485484000,0.927484130859375,-0.06257365281283855,0.3844219266682863,1.2159689774814992
1783002703495536000,0.9375361328125,-0.12674889560341834,0.41993923025131225,1.1693098829634487
1783002703505587200,0.947587158203125,-0.27557050680518147,0.42214638490676876,1.0548587433971464
1783002703515639000,0.95763916015625,-0.38745734884142874,0.5414484716355801,0.969501888629049
1783002703525690000,0.967690185546875,-0.5057826994925737,0.6906912308588623,0.8168897991031407
1783002703535742000,0.977741943359375,-0.5865174474179744,0.7674176199257373,0.7455575241647661
1783002703545793000,0.98779296875,-0.4359533764630556,0.7431926947295665,0.6581437368668616
1783002703555845000,0.99784521484375,-0.20621990720331668,0.7555401351273059,0.568464415789768
1783002703565896000,1.00789599609375,-0.06977613153755664,0.8198483566477894,0.5415716230912134
1783002703575948000,1.017947998046875,0.013317162212729453,0.8421250703856349,0.5421976095024496
1783002703585999000,1.0279990234375,0.2602116096317768,0.8067869227617979,0.512523953913711
1783002703596051000,1.038051025390625,0.6066022040694952,0.7356111535593867,0.5035963318968192
1783002703606102000,1.04810205078125,0.8605342950403689,0.6861214387252926,0.572808290212974
1783002703616153900,1.05815380859375,1.0399620569080115,0.6525263353765011,0.6392493590436875
1783002703626205000,1.068204833984375,1.1747966438114643,0.6191238319903611,0.6841612445682287
1783002703636257000,1.078257080078125,1.2914262964606285,0.5610279091134667,0.7672028811965137
1783002703646307800,1.088307861328125,1.3194441841989755,0.36424861495047806,0.8224249291375278
1783002703656360000,1.09835986328125,1.3472978212863207,0.18113602709025142,0.8938378680966794
1783002703666411000,1.108410888671875,1.3420119898378848,0.1299208036378026,0.9119643302872776
1783002703676462800,1.118462890625,1.2223159353554247,0.19297990188002584,0.8053488527826964
1783002703686514000,1.128513916015625,1.246620355528593,0.228772807534039,0.6662153996415436
1783002703696566000,1.13856591796875,1.4750439112335443,0.15327186860889194,0.5635665972782299
1783002703706617000,1.1486171875,1.6252198596537113,0.0762324680700898,0.5596911075517534
1783002703716669200,1.158669189453125,1.5886843189388513,0.039915538541972634,0.5896142809221521
1783002703726720000,1.168719970703125,1.4486878192275763,0.01813099223524332,0.6459585012935102
1783002703736772000,1.178772216796875,1.3245856387406587,-0.0672226476624608,0.6783158795408905
1783002703746823200,1.1888232421875,1.2241852363586425,-0.18594868806898593,0.6788840348176658
1783002703756875000,1.198875,1.1278753181606531,-0.2560793321326375,0.6377618969649076
1783002703766926000,1.208926025390625,0.9387707964092492,-0.27810908537209034,0.5956631691649555
1783002703776978000,1.21897802734375,0.6927355961680411,-0.3181158093288541,0.5939038313422351
1783002703787029000,1.229029052734375,0.5815086793452501,-0.36310090622007846,0.5300283386832103
1783002703797081000,1.2390810546875,0.518771944925189,-0.434346818049252,0.5208143374729901
1783002703807132000,1.2491318359375,0.3262953163921833,-0.5578460642069578,0.5836153327682987
1783002703817184000,1.25918408203125,0.1807867752611637,-0.7037330832615495,0.636824177723378
1783002703827235000,1.269235107421875,0.25215865155756473,-0.7697992543652653,0.6594578882053495
1783002703837287000,1.279286865234375,0.2454676294863224,-0.802752552679181,0.6257060599248856
1783002703847338000,1.289337890625,0.11782675347924232,-0.8736176484972238,0.5835685344845056
1783002703857389800,1.299389892578125,-0.01478957285284996,-0.9520637009635567,0.5869465230176225
1783002703867441000,1.30944091796875,-0.18916414298415182,-1.052794065952301,0.6597763795699924
1783002703877493000,1.319492919921875,-0.3135848879009485,-1.1646163183197378,0.6929664823144673
1783002703887543800,1.329543701171875,-0.3139426152974367,-1.2302040582567453,0.6497689264271408
1783002703897596200,1.33959619140625,-0.39809506271183487,-1.212410627412796,0.6028383214913309
1783002703907647000,1.34964697265625,-0.6632932285845279,-1.1851979185774921,0.6037047290623188
1783002703917699000,1.359698974609375,-1.0523568435788153,-1.2021592825114726,0.7824021308287977
1783002703927750100,1.369750244140625,-1.224355916750431,-1.324963532142341,0.7437587311144918
1783002703937802000,1.379802001953125,-0.8274263906866312,-1.406218212288618,0.4363497553694993
1783002703947853000,1.38985302734375,-0.6187269416272639,-1.2796768219560384,0.2709927505608648
1783002703957905200,1.3999052734375,-0.8770867859125137,-1.1363175678133963,0.2911366169884801
1783002703967956000,1.4099560546875,-0.924041429311037,-1.1344228401079772,0.3863569498514756
1783002703978008000,1.420008056640625,-0.6441296784311532,-1.2160042679905891,0.5643348051717505
1783002703988059100,1.43005908203125,-0.4727344163715839,-1.261568333813548,0.6786301331218332
1783002703998111000,1.440111083984375,-0.5634884540081024,-1.4008753899559379,0.8527719174105673
1783002704008162000,1.450162109375,-0.4859878656983375,-1.7561346427649258,1.1078646496586502
1783002704018214000,1.4602138671875,-0.4738853399723768,-1.7514929544389246,1.2181673643086104
1783002704028265000,1.470264892578125,-0.7642027495324611,-1.1900929971426724,1.149103180432692
1783002704038317000,1.480317138671875,-1.1827911496967076,-0.731248282174766,1.0018368358489125
1783002704048367900,1.490367919921875,-1.4129577496767043,-0.5544646050751209,0.7734226324941963
1783002704058420000,1.500419921875,-1.4706307709664106,-0.39279198786765335,0.5531269997958094
1783002704068471000,1.510470947265625,-1.3440309284448624,-0.06819850695729256,0.40354799435548483
1783002704078523000,1.52052294921875,-1.4670681100487708,0.3623676235094666,0.280848264545016
1783002704088574000,1.530573974609375,-1.7077590266525744,0.6985828608915209,-0.018105175090685953
1783002704098625800,1.540625732421875,-1.6561375604867934,0.8886758091583847,-0.32158578699436036
1783002704108676900,1.5506767578125,-1.4106658393472433,1.0076765748530625,-0.44953729985319074
1783002704118729200,1.560729248046875,-1.0424334154576063,1.094722990143299,-0.45552393651474266
1783002704128779800,1.57077978515625,-0.8906050236552954,1.2943407226026058,-0.3019956089267507
1783002704138832100,1.58083203125,-1.001329251652956,1.5163485660463571,-0.11427256812900304
1783002704148883200,1.59088330078125,-0.9066086484730244,1.6102312570974229,-0.10386630666060373
1783002704158935000,1.60093505859375,-0.917888751900196,1.7186092142298817,-0.1856123322540894
1783002704168986000,1.610986083984375,-1.111321658244729,1.8697586838573217,-0.2237456452880986
1783002704179038000,1.621037841796875,-1.1646534354597329,1.9100567919760942,-0.4365688049476594
1783002704189089000,1.631089111328125,-0.9461930553644895,1.9170970658764241,-0.5337103516642004
1783002704199141000,1.64114111328125,-0.7815887686192989,1.9314011932998894,-0.508909928135015
1783002704209192000,1.65119189453125,-0.4147936840564012,1.7859549037501214,-0.641649844314158
1783002704219244000,1.661244140625,0.10346095899641514,1.6703183537915347,-0.6843488760948181
1783002704229294800,1.671294921875,0.3349129226118326,1.6478285818248986,-0.7373530287906527
1783002704239346700,1.6813466796875,0.433813441824913,1.5799848796546458,-0.8439685062952339
1783002704249397800,1.691397705078125,0.6338923620551824,1.4592074596762656,-0.9409598308861256
1783002704259449600,1.70144970703125,0.961291255775094,1.2342968805283308,-1.0585269835811109
1783002704269500700,1.711500732421875,1.3080021682083607,1.018386477176845,-1.1737169588159768
1783002704279552800,1.721552734375,1.4005974497973919,0.884553760792315,-1.159444468639791
1783002704289603600,1.731603515625,1.2666846539139747,0.7255798811495303,-1.059536599015072
1783002704299655700,1.74165576171875,1.1573925045460463,0.5156292629852891,-0.9378410412784666
1783002704309706800,1.751706787109375,1.223967794215679,0.2962140663832426,-0.7655104711301625
1783002704319758600,1.761758544921875,1.250460079821944,0.14728811802417038,-0.5679592427466065
1783002704329809700,1.7718095703125,0.9695505500763654,0.10077829578369855,-0.3628327568031847
1783002704339861800,1.78186181640625,0.6258627848565578,0.04198971446752548,-0.33496012275442477
1783002704349912600,1.79191259765625,0.5213537781119346,-0.008473813834786414,-0.46389425344243645
1783002704359965000,1.80196484375,0.5359586420476437,0.023519115014374255,-0.6862722453728318
1783002704370015700,1.812015625,0.4847060091942548,0.08984978227317332,-0.7805221623010933
1783002704380067800,1.82206787109375,0.3277776639044285,0.052801615861058235,-0.8200707672268152
1783002704390119000,1.832118896484375,0.29031624051630495,-0.020138824926316738,-0.7751365237399935
1783002704400170800,1.842170654296875,0.21520050151646136,-0.06768880386948585,-0.6313043913885951
1783002704410221800,1.852221923828125,-0.05640694687664508,-0.10682225212305783,-0.5414063129942864
1783002704420273700,1.862273681640625,-0.29905718085467814,-0.10507570071667433,-0.5083713277462869
1783002704430324700,1.87232470703125,-0.2717103242456913,-0.06420709923356771,-0.560713326738961
1783002704440376800,1.882376953125,-0.16194295858144758,-0.014052198489010332,-0.6203247322127222
1783002704450427600,1.892427734375,-0.12646072631180286,0.025111060380935666,-0.695345194144547
1783002704460479700,1.902479736328125,-0.17174831328094003,0.0477989852681756,-0.7286059509724379
1783002704470530800,1.91253076171875,-0.20165011506974695,0.03234364198297262,-0.6824369780588895
1783002704480582700,1.922582763671875,-0.18651976595520972,-0.007904781775176525,-0.6507930818431079
1783002704490633700,1.9326337890625,-0.1504623641461134,-0.019647534278035162,-0.6614551995024085
1783002704500685600,1.942685546875,-0.1481517491161823,-0.03336947789937258,-0.6577776800334453
1783002704510736600,1.952736572265625,-0.1921282534867525,-0.07755173397511243,-0.6152502054274082
1783002704520788700,1.962788818359375,-0.12298808176517485,-0.13737901068925856,-0.6186536571953445
1783002704530839800,1.97283984375,-0.005840542721748352,-0.1664668657466769,-0.5842560052920133
1783002704540891600,1.9828916015625,-0.01786006633937359,-0.17940467325299977,-0.5692754399117081
1783002704550942700,1.992942626953125,-0.0010942249774932862,-0.2469271806448698,-0.5351218989625572
1783002704560994800,2.002994873046875,0.08919161062538623,-0.33121436035484075,-0.38800000435076654
1783002704571046000,2.0130458984375,0.19331834005415438,-0.48245589217990636,-0.2124858905292116
1783002704581097700,2.02309765625,0.2081359699577093,-0.5811103276774287,-0.08990759514132514
1783002704591148800,2.033148681640625,0.1332996324211359,-0.6044155076801776,-0.01874733403529972
1783002704601201000,2.043200927734375,0.09434124847352504,-0.6361401409819721,-0.019348533065151424
1783002704611251700,2.053251708984375,0.18996376892924308,-0.6590607055813074,-0.14896014288961887
1783002704621303800,2.0633037109375,0.3056675389051437,-0.651403761087358,-0.27745531590478495
1783002704631355000,2.07335498046875,0.22380057207942008,-0.6217930511996149,-0.2713195713624358
1783002704641406700,2.08340673828125,0.1054185228049755,-0.6397226756438612,-0.23321546615660188
1783002704651457800,2.093457763671875,0.14849194085597991,-0.7329290748685598,-0.2527383876742795
1783002704661509600,2.103509521484375,0.2931412348091602,-0.8289525773406028,-0.3034172757603228
1783002704671560700,2.113560791015625,0.3262070535868406,-0.8885705952182411,-0.3669403017198667
1783002704681612800,2.12361279296875,0.19746376929581164,-0.9390116194278001,-0.38804139580707997
1783002704691663600,2.13366357421875,0.08556406777799129,-0.9735364048421382,-0.33506709026023745
1783002704701715700,2.1437158203125,0.05597440067827701,-0.9653995678767562,-0.285396666830685
1783002704711766800,2.153766845703125,0.04345627988874912,-0.95696257892102,-0.24448121226485817
1783002704721818600,2.163818603515625,0.1228594869494438,-0.9515253563031554,-0.2872239005241543
1783002704731869700,2.17386962890625,0.12614099283814428,-0.9072609749019146,-0.3688901206133887
1783002704741921500,2.183921630859375,0.021365444111824033,-0.8479378483176231,-0.4686289903467521
1783002704751972600,2.19397265625,-0.10164718757271766,-0.8046092864617704,-0.573911465681903
1783002704762024700,2.204024658203125,-0.10595628294348716,-0.7870730452492832,-0.6547428423821926
1783002704772075800,2.21407568359375,-0.06305062267482281,-0.7881219697803259,-0.6444441512078046
1783002704782127900,2.2241279296875,0.019217910689115523,-0.9513006076365709,-0.5220089906176552
1783002704792179000,2.234178955078125,0.17679624432027338,-1.3263915191188453,-0.31066472613792867
1783002704802230800,2.244230712890625,0.17183949869573115,-1.491663329862058,-0.12725523769035935
1783002704812281900,2.25428173828125,-0.16077157671451567,-1.3604130311861633,-0.005872508762590586
1783002704822333700,2.264333740234375,-0.5949976909935474,-1.2025003510341048,0.11660481046885252
1783002704832384800,2.274384765625,-0.8642121067702769,-1.1641916631668805,0.25019754408504813
1783002704842436900,2.284436767578125,-0.8652852889597415,-1.1496543115094304,0.3150112674422562
1783002704852487700,2.29448779296875,-1.0582552539676426,-0.9852937703922391,0.3701721597805619
1783002704862539800,2.304539794921875,-1.6440619227677582,-0.7114876429110765,0.38207024897560476
1783002704872590800,2.3145908203125,-2.188065924105048,-0.4430035872355103,0.1610401097238995
1783002704882642700,2.324642578125,-2.548929865053296,-0.2500616792783141,-0.08076382788941264
1783002704892693800,2.33469384765625,-2.7379215740799903,-0.05175795202702284,-0.3389615404155105
1783002704902745600,2.34474560546875,-2.761622183141112,0.2511310620754957,-0.583030409019813
1783002704912796700,2.354796630859375,-2.681168005722761,0.6684715080052613,-0.8100529388204216
1783002704922848800,2.364848876953125,-2.542020231795311,0.9639166358426212,-0.9904837402507662
1783002704932899800,2.37489990234375,-2.1709669052660465,1.1613143541648983,-0.9820889830015599
1783002704942951700,2.38495166015625,-1.721805087661743,1.3446610430419443,-0.7501530352614819
1783002704953002800,2.395002685546875,-1.131336856791377,1.394265616427362,-0.5579054662439972
1783002704963054600,2.4050546875,-0.47265492139458654,1.3968813518837093,-0.3853426217097789
1783002704973105700,2.415105712890625,0.09086509679555893,1.3852359222754835,-0.2339209840774536
1783002704983157800,2.42515771484375,0.5469318714827299,1.3167337561964987,-0.17183818352147937
1783002704993208600,2.43520849609375,0.8139554992169141,1.256786652494967,-0.09674129535257815
1783002705003261000,2.445260986328125,0.7985761437773704,1.2042448566138744,0.10398702869713305
1783002705013311700,2.455311767578125,0.7446715351104736,1.1129489671856165,0.3463951244823634
1783002705023363800,2.46536376953125,0.7738602201938629,0.9746826522678136,0.7012083870895206
1783002705033415000,2.475414794921875,0.9406266534090042,0.8549652627363801,1.0293833797484635
1783002705043466800,2.485466796875,1.2266542568206786,0.8456509064242244,1.231584698960185
1783002705053517800,2.495517822265625,1.2330869202166794,0.8544833244383334,1.373007285951823
1783002705063569700,2.505569580078125,0.9418079721480608,0.8818062156498432,1.4574755213171242
1783002705073620700,2.515620849609375,0.6422650536030531,0.8865849743589759,1.3927163411587475
1783002705083672800,2.5256728515625,0.6031231297820806,0.918812004224956,1.0944644853375851
1783002705093723600,2.5357236328125,0.6391098044425249,1.0993503576830028,0.7356409641757607
1783002705103775700,2.545775634765625,0.5131652109593152,1.300508013060689,0.46007484128475185
1783002705113826800,2.555826904296875,0.3575654839247465,1.421992412264645,0.2570712657794356
1783002705123878700,2.565878662109375,0.2668658068239689,1.4808169416770338,0.19400617618784308
1783002705133929700,2.5759296875,0.27755320505499836,1.4276424008503554,0.165310389187932
1783002705143981600,2.585981689453125,0.35525486889481545,1.3941402364820241,0.261491566439718
1783002705154032600,2.59603271484375,0.36532793461978436,1.3413199159204958,0.344909562099725
1783002705164084700,2.606084716796875,0.44711657551228995,1.2293828050017357,0.33225831644982096
1783002705174136600,2.616136474609375,0.44938276687860484,1.1663660845965147,0.36037820325791836
1783002705184187600,2.626187744140625,0.49907647985219955,1.0854960198536514,0.3566168048977852
1783002705194238700,2.63623876953125,0.6932546516060829,0.993065281176567,0.3204822461992502
1783002705204290800,2.646290771484375,0.8133750689804553,0.8826692622199654,0.3995155970342457
1783002705214341600,2.656341552734375,0.8136427800059318,0.7453788065969944,0.6026181028693914
1783002705224397000,2.66639697265625,0.8183791608780622,0.6816089297369122,0.7514136297818272
1783002705234449000,2.676448974609375,0.83708912204504,0.6193216926500201,0.7483248699862509
1783002705244500000,2.6865,0.7818354368567466,0.6239037597432732,0.7328232033412904
1783002705254551800,2.6965517578125,0.501986814340949,0.634407910361886,0.5168081705715507
1783002705264603000,2.706602783203125,0.253320096552372,0.503935902582109,0.33777306128330525
1783002705274655000,2.716655029296875,0.10822072074413298,0.4193640607118606,0.23078049409464
1783002705284706000,2.7267060546875,0.41200376107692716,0.31109219430238005,0.20413170275241135
1783002705294758100,2.736758056640625,0.5550175627827644,0.09713497084528207,0.3028476591788232
1783002705304809200,2.746809326171875,0.36989714223146436,-0.05574877522885799,0.4866601389367133
1783002705314861000,2.756861083984375,-0.011897358542680739,-0.03890840732604265,0.7128888149458914
1783002705324912000,2.766912109375,-0.2783142525553703,-0.1310793260231614,0.6879929316855966
1783002705334964000,2.7769638671875,-0.4504430895864963,-0.21059739163517951,0.6555738133136183
1783002705345015000,2.78701513671875,-0.31506080567240713,-0.27769056769907474,0.7043385018087923
1783002705355067100,2.797067138671875,-0.06617723026275635,-0.31819384300112724,0.7235538552146404
1783002705365118000,2.807117919921875,0.06669511665701866,-0.36951135778427124,0.6709345371179283
1783002705375170000,2.817170166015625,0.03559387595057487,-0.41933425009548664,0.574617093200609
1783002705385221000,2.82722119140625,-0.02410626725256443,-0.5209384753093124,0.48054165605641896
1783002705395273000,2.83727294921875,0.18225626329183578,-0.6028975043326615,0.4737482695892453
1783002705405324000,2.847323974609375,0.535980269357562,-0.6141974815040826,0.5441082288967445
1783002705415376000,2.8573759765625,0.7283581136912107,-0.7265317750468849,0.7046511479545384
1783002705425427000,2.867427001953125,0.7407353647053241,-0.8038383020892739,0.7895094786159693
1783002705435479000,2.87747900390625,0.6018067864865064,-0.7596963780239224,0.7497096754081547
1783002705445529900,2.88752978515625,0.34228315911889073,-0.7216694297075271,0.5645778932126239
1783002705455582000,2.89758203125,0.22363515238463877,-0.6483528490841388,0.441264378885366
1783002705465633000,2.907633056640625,0.14992285044193268,-0.5492889560028911,0.37661428512465206
1783002705475685000,2.91768505859375,0.07242927639484405,-0.4991998139709234,0.20533607357349246
1783002705485736000,2.92773583984375,0.08229366780519486,-0.5206286787077784,0.0661509085114114
1783002705495788000,2.9377880859375,0.02441781741976738,-0.5701400208517908,0.10282182084266096
1783002705505839000,2.947839111328125,0.04023614879846572,-0.6505155800759792,0.23654218116020784
1783002705515891200,2.95789111328125,0.07480535787642002,-0.6911673239380121,0.3235055760757997
1783002705525942000,2.96794189453125,0.051477089259028434,-0.6820885299474001,0.3451443937689066
1783002705535994000,2.977994140625,-0.04406242908835411,-0.6778907859966159,0.458002053598687
1783002705546045200,2.988045166015625,-0.06632336073517799,-0.6983379462197422,0.6003557839605957
1783002705556097000,2.998096923828125,-0.04994388834238052,-0.6616945612162352,0.673032970701903
1783002705566148000,3.008148193359375,-0.18931845676302908,-0.5883092992708087,0.6979952702619135
1783002705576200000,3.018199951171875,-0.4043079458773136,-0.5519453157305717,0.7022896064549684
1783002705586251000,3.0282509765625,-0.5385135872274637,-0.5708250805065036,0.6798620860695839
1783002705596303000,3.03830322265625,-0.524935728251934,-0.6088435532554983,0.6345595207270235
1783002705606354000,3.04835400390625,-0.49831309426426884,-0.7414362064510583,0.5715758258085698
1783002705616406000,3.058406005859375,-0.590222147154808,-0.906072057378292,0.5558745449382811
1783002705626457000,3.06845703125,-0.6656061817020178,-0.8727253758326172,0.5752539297994226
1783002705636509000,3.078509033203125,-0.9361907167881727,-0.7298994979143142,0.6562105037819593
1783002705646560000,3.08856005859375,-1.4347294365018606,-0.7376727622643112,0.7778348959784954
1783002705656611800,3.09861181640625,-1.5661755500108003,-0.8714660234212875,0.8645500334877521
1783002705666663000,3.108662841796875,-1.4287024312973022,-0.9023995063453912,0.814115585149452
1783002705676715000,3.118715087890625,-1.3296610423088073,-0.7130205515667796,0.7330770319718867
1783002705686765800,3.128765869140625,-1.1427888096541166,-0.3894932385832071,0.6151571203164756
1783002705696818200,3.138818115234375,-1.0641156704336405,-0.12699205670952796,0.37861926827151327
1783002705706869200,3.148869140625,-1.0380834035545587,0.08524024265110493,0.14132013126416132
1783002705716921000,3.158921142578125,-0.9510364037424326,0.25087884088009593,-0.009989935752470046
1783002705726972200,3.16897216796875,-0.7967074272960424,0.3591936696484685,-0.10295776784778572
1783002705737024000,3.17902392578125,-0.5899836622238159,0.43497722490727897,-0.17890379279246552
1783002705747075000,3.189074951171875,-0.582794042980671,0.5121837987065315,-0.14886518548200836
1783002705757127200,3.199127197265625,-0.7008154422491788,0.5780675989806652,-0.1361684475894086
1783002705767178000,3.209177978515625,-0.6616559827715158,0.5826514196395873,-0.22902831666506826
1783002705777230000,3.21922998046875,-0.4541460357576608,0.5807046694859862,-0.3422053446423262
1783002705787282000,3.229281982421875,-0.2954454200983047,0.608478811596334,-0.3161893713109195
1783002705797333000,3.2393330078125,-0.3515139288008213,0.5804623851627111,-0.3082048022978008
1783002705807385000,3.249385009765625,-0.36457214781641956,0.5317863247990607,-0.34738344139996913
1783002705817436000,3.259435791015625,-0.22455577436089513,0.5082914674431085,-0.38040085445865984
1783002705827488000,3.269488037109375,0.06018588089346885,0.48831367829740047,-0.4513243659330532
1783002705837539000,3.2795390625,0.1654109269529581,0.5511041887313127,-0.5080740253001451
1783002705847591000,3.2895908203125,-0.06899462577104568,0.6694640261739492,-0.5410691899944097
1783002705857642000,3.29964208984375,-0.29594167918264863,0.7686185201480984,-0.6119179922647774
1783002705867693800,3.30969384765625,-0.45925651063919065,0.8898694028571248,-0.6794792972970753
1783002705877745000,3.319744873046875,-0.7012146706998348,0.9542328616961836,-0.7451499662771821
1783002705887797000,3.329796875,-1.1097767668902874,0.963950830373168,-0.8372822334643453
1783002705897847800,3.339847900390625,-1.3706366112977266,0.9746183548599481,-0.9198710117585956
1783002705907900200,3.349900146484375,-1.0793068098247052,0.9791203424543142,-1.1067754661824554
1783002705917951200,3.359951171875,-0.6372592081397771,1.009661903451383,-1.3293052146084605
1783002705928003000,3.370003173828125,-0.4070078524857759,1.0424901140809057,-1.3486489436343312
1783002705938054100,3.38005419921875,-0.28794191260039803,1.030028107392788,-1.2067337508201599
1783002705948106000,3.39010595703125,-0.2632616448521614,1.0026727752164006,-0.9972160441804677
1783002705958157000,3.400156982421875,-0.47398295512795446,0.9006351270213723,-0.8260385895900427
1783002705968209200,3.410209228515625,-0.2641857739597559,0.6376502532839775,-0.871662715037167
1783002705978260000,3.420260009765625,0.15847323664426802,0.4477200943633914,-1.1351575841233135
1783002705988312000,3.43031201171875,0.29567279911339284,0.3954565309017896,-1.2876454627476632
1783002705998363100,3.440363037109375,0.4136439294993877,0.2861485994428396,-1.251892742973566
1783002706008415000,3.4504150390625,0.47813130697906014,0.16668401562869548,-1.0131816020101307
1783002706018466000,3.460466064453125,0.4259411010146141,0.05726794762015342,-0.6379749551936984
1783002706028518000,3.470517822265625,0.6284504632622003,-0.12308452787697315,-0.335394787844643
1783002706038569000,3.48056884765625,0.8452776891976594,-0.25771365533620116,-0.23236173540409652
1783002706048621000,3.49062109375,0.834845727032423,-0.267650819721818,-0.18215225492808967
1783002706058671900,3.500671875,0.8138719125866889,-0.2040232739418745,-0.211137526393868
1783002706068724000,3.510723876953125,0.8238613916814327,-0.14502280344069005,-0.34256858846414834
1783002706078775000,3.520775146484375,0.8742173679560422,-0.16814269000440835,-0.3892725085046142
1783002706088827000,3.530826904296875,0.9541974981218576,-0.22318477826863525,-0.3939350934881717
1783002706098878000,3.5408779296875,0.9853887551993131,-0.24188392578065393,-0.35392592184599486
1783002706108930000,3.550929931640625,0.835608528098464,-0.16247048958688973,-0.359633303174749
1783002706118981000,3.560981201171875,0.7892103495389222,-0.10940613113641738,-0.5464186977962031
1783002706129033200,3.571033203125,0.9234013778418302,-0.047833179798722265,-0.7285003717061131
1783002706139084000,3.581083984375,1.0054127215743065,0.08577858731150627,-0.8041601544547825
1783002706149136100,3.59113623046875,0.9219728063434361,0.1788566839814186,-0.7814755175031721
1783002706159187200,3.601187255859375,0.8309896361261606,0.1877490154892206,-0.7943342684239149
1783002706169239000,3.611239013671875,0.9226806623518466,0.09396656994223594,-0.7180762275211513
1783002706179290000,3.6212900390625,0.9880927534610032,-0.023426760555803776,-0.5572188722193241
1783002706189342000,3.631342041015625,1.031862921604514,-0.20923340980559585,-0.41316619245242325
1783002706199394000,3.64139404296875,0.9703548521965741,-0.3814320972025394,-0.3047237917816266
1783002706209445000,3.651445068359375,0.8348574174702167,-0.4546621685862541,-0.18984072707146404
1783002706219497000,3.6614970703125,0.7296037298381328,-0.4823907179892063,-0.23352588381264358
1783002706229544700,3.671544677734375,0.5889052193373442,-0.5370943680793047,-0.3857986949142068
1783002706239596500,3.681596435546875,0.20744155795276165,-0.5290460861802101,-0.48336931723039595
1783002706249647600,3.691647705078125,-0.008387889117002487,-0.5861123737484216,-0.5173680329440161
1783002706259699500,3.701699462890625,0.09220774357616901,-0.696059479893744,-0.5186640275713056
1783002706269750500,3.71175048828125,0.23630758695304394,-0.8165615900620817,-0.48729149564281105
1783002706279802600,3.721802734375,0.14554887314140796,-0.8649091491237282,-0.3928360827377066
1783002706289853700,3.731853759765625,0.09326865080595016,-0.900710238084197,-0.3384013857821002
1783002706299905500,3.741905517578125,0.1020768111616373,-0.9603490064889192,-0.3408571449037641
1783002706309956600,3.75195654296875,0.041779871109127995,-1.0063689993858336,-0.27211305982768536
1783002706320008400,3.762008544921875,0.03561141160726547,-1.058812595589459,-0.22838760760873555
1783002706330059500,3.7720595703125,0.026614450681209562,-1.0582464861392975,-0.2423907062590122
1783002706340111600,3.782111572265625,-0.05177519542276859,-1.0178682985216378,-0.27393801023252307
1783002706350162700,3.79216259765625,-0.18542495645582674,-1.0088000259250403,-0.35131153809651733
1783002706360214800,3.80221484375,-0.33395664480030535,-0.9835179928913712,-0.48106516847386954
1783002706370265600,3.812265625,-0.5025941325843334,-0.9239590117245912,-0.518562613023445
1783002706380317700,3.822317626953125,-0.6936784299761056,-0.8322115791365504,-0.5192711996842175
1783002706390368800,3.83236865234375,-0.7680372131288051,-0.7572779187053441,-0.591838861636445
1783002706400420600,3.842420654296875,-0.8079863616794347,-0.6688654757589101,-0.6997323962528258
1783002706410471700,3.8524716796875,-0.8910679649919271,-0.48367988101691006,-0.8326159952189773
1783002706420523500,3.8625234375,-1.0999047766953707,-0.36679713038951156,-0.9142837862107902
1783002706430574600,3.87257470703125,-1.1024462778717279,-0.48753188026994465,-0.9144424108386039
1783002706440626700,3.882626708984375,-0.701611561062932,-0.8482932376265525,-0.8814195544198155
1783002706450677800,3.892677734375,-0.5000280814886093,-0.9420075863733887,-0.6240812352020293
1783002706460729600,3.9027294921875,-0.5454448477953672,-0.8836199870735406,-0.273609435865283
1783002706470780700,3.91278076171875,-0.6079904435575008,-1.0096505052745341,-0.06245272984690964
1783002706480832500,3.92283251953125,-0.7883797439336776,-1.0586223337143659,0.1729038399916142
1783002706490883600,3.932883544921875,-1.0125655159384013,-0.9368506420016288,0.37142259823307394
1783002706500935700,3.942935791015625,-0.9577268412917852,-0.7614999203145504,0.35532398860827086
1783002706510986500,3.952986572265625,-0.9307114085942506,-0.563123712348938,0.14510463650524616
1783002706521038600,3.96303857421875,-1.2925994318932295,-0.2704536021828651,-0.1095669477213174
1783002706531089700,3.973089599609375,-1.5663246030926703,0.08308803305327891,-0.3009314502939582
1783002706541141800,3.983141845703125,-1.6227859105050564,0.4787906476706266,-0.4839852937042713
1783002706551192600,3.993192626953125,-1.4443734631597995,0.6769818544581532,-0.5899898727688938
1783002706561244700,4.00324462890625,-1.196919628292322,0.7469748436167836,-0.510121532414481
1783002706571295700,4.013295654296875,-1.0614520041823388,0.8612734229698776,-0.37972894654646516
1783002706581347600,4.02334765625,-1.1916636074602602,1.0565835213631392,-0.1862476710155606
1783002706591399700,4.033399658203125,-1.1959803016155957,1.1847864151671528,-0.04340878748521208
1783002706601450800,4.04345068359375,-0.783354609248042,1.1793535764634608,-0.06166282157823443
1783002706611502600,4.053502685546875,-0.32981764529943464,1.2194094002589582,-0.0034547435637563464
1783002706621553700,4.0635537109375,-0.05848258410692215,1.2714017455637454,0.12548662058264015
1783002706631605500,4.07360546875,0.17248071920871733,1.2152262693554163,0.26781222082860767
1783002706641656600,4.083656494140625,0.3773305071026087,1.1233131248116492,0.4790043634865433
1783002706651708700,4.093708740234375,0.4930079735934734,1.0311910136923192,0.7213211277265101
1783002706661759500,4.103759521484375,0.5916612400472164,0.9430483275979756,0.8707810368318111
1783002706671811600,4.1138115234375,0.7222451837688684,0.8787035734593868,0.8804378499060869
1783002706681862700,4.123862548828125,0.7093313416600227,0.8150959014236927,0.9162024793136865
1783002706691914500,4.13391455078125,0.5529232208520174,0.7489969970941543,0.9894605346828699
1783002706701965600,4.143965576171875,0.44620647493004795,0.69887366053164,1.0830559332251548
1783002706712017700,4.154017578125,0.3195207076907158,0.6736544636011124,1.198367196752131
1783002706722068500,4.164068359375,0.09560147766768932,0.7175365676864981,1.2250218333132565
1783002706732120600,4.17412060546875,-0.18198855226635932,0.8940063565313816,1.160218667882681
1783002706742171600,4.184171630859375,-0.45331484563052654,1.13630149346143,1.0536847311817108
1783002706752223700,4.1942236328125,-0.49077100832164283,1.244293081624806,0.9408042019329964
1783002706762274800,4.20427490234375,-0.3901157543957233,1.2711667677640914,0.8219988126799463
1783002706772326700,4.21432666015625,-0.2575333303332329,1.2644260613322258,0.6522825166832655
1783002706782377700,4.224377685546875,-0.10690087031722068,1.291753628718853,0.43071635259240865
1783002706792429600,4.2344296875,-0.059575640040636056,1.304955640119314,0.33859453373402354
1783002706802480600,4.244480712890625,-0.002587678405642509,1.230778935535252,0.22448612492447717
1783002706812532700,4.25453271484375,0.2389882043391466,1.0777619184702634,0.14241494076354427
1783002706822583600,4.26458349609375,0.5180395389974117,0.9637442018851637,0.14116298620738088
1783002706832635600,4.2746357421875,0.805109929460287,0.8342275951340794,0.24728110864907502
1783002706842686700,4.284686767578125,0.9952297657340764,0.6339598743334413,0.4390103528808802
1783002706852738600,4.294738525390625,1.1639964328557253,0.41600305984616276,0.5377081891287118
1783002706862789600,4.30478955078125,1.2992068673342465,0.2524123340576887,0.5400572364728897
1783002706872841500,4.314841552734375,1.5134779790461061,0.08691255977749825,0.49415590151958166
1783002706882892500,4.324892578125,1.6120932515770197,0.019113281270861624,0.4760772970587015
1783002706892944600,4.334944580078125,1.4621002585083245,0.03258680308908224,0.5824388728674501
1783002706902995700,4.34499560546875,1.300084234690666,-0.012030045011639595,0.6526443357329815
1783002706913047600,4.355047607421875,1.1106383521556853,-0.10066986697316169,0.7315390818148851
1783002706923098600,4.3650986328125,0.8533768245011567,-0.13662936136573553,0.7854861413840204
1783002706933150500,4.375150390625,0.6321130774229765,-0.10134791236519813,0.7277308486383408
1783002706943201500,4.385201416015625,0.4111585424244404,-0.0004980126500129699,0.589186593561992
1783002706953253600,4.395253662109375,0.12664718879461287,0.13418518308401106,0.43790436440035696
1783002706963305700,4.4053056640625,-0.060685647109150885,0.20436346568167207,0.32695604532323774
1783002706973356800,4.415356689453125,0.0439887793302536,0.20017682764679193,0.11314286084617488
1783002706983408600,4.42540869140625,0.10189327128827572,0.21056670423597096,0.05874060485544614
1783002706993459700,4.435459716796875,-0.10696166059374809,0.2264768055513501,0.10603143967208452
1783002707003511600,4.445511474609375,-0.4796744447678327,0.20758359677195548,0.2817025432867929
1783002707013562600,4.455562744140625,-0.5618856949865818,0.03717559218406677,0.46377654534690077
1783002707023614700,4.46561474609375,-0.4523866248697042,-0.18433540765345097,0.4674205644050613
1783002707033665500,4.47566552734375,-0.5233329692304134,-0.26050737770795823,0.45354927544090895
1783002707043717600,4.485717529296875,-0.6000900456964969,-0.27946605293899773,0.3859708000781014
1783002707053768700,4.495768798828125,-0.6745937902778386,-0.2922702971935272,0.2869222506964579
1783002707063820500,4.505820556640625,-0.8877624937057494,-0.2948796029090881,0.23637864289525895
1783002707073871600,4.51587158203125,-0.8789514107406139,-0.39788668065816163,0.19338999878456814
1783002707083923500,4.52592333984375,-0.49555531998872754,-0.5502262368530034,0.1404947680896148
1783002707093974500,4.535974609375,-0.20927871025204658,-0.6103370066836475,0.2172758830184117
1783002707104026600,4.546026611328125,-0.1254611938804388,-0.6484890426844359,0.3643319458523765
1783002707114077700,4.55607763671875,-0.1004646997898817,-0.7098717321470379,0.48780813992805777
1783002707124129500,4.566129638671875,0.02510053898692131,-0.7821855654686689,0.4928742276785895
1783002707134180600,4.5761806640625,0.16954408123493195,-0.8387892039611935,0.4660409100823104
1783002707144232700,4.586232666015625,0.2590963418662548,-0.8912479977339506,0.4790688070248812
1783002707154283500,4.596283447265625,0.31777298724055286,-0.9298787571623921,0.4882540570646524
1783002707164335600,4.606335693359375,0.1886129388421774,-0.9328212403550743,0.5631392387116327
1783002707174386700,4.61638671875,0.05486965430676937,-0.9983931982010602,0.6197160987950862
1783002707184438800,4.626438720703125,0.2705073781967163,-1.111435347752273,0.49248318253438916
1783002707194489600,4.636489501953125,0.31439620428383347,-1.0408853092327712,0.41439091194178906
1783002707204541700,4.646541748046875,0.02296644956767559,-0.9022688657030463,0.46316400293912735
1783002707214592800,4.6565927734375,-0.1449760416895151,-0.8782210506394506,0.5038867662107571
1783002707224644900,4.666644775390625,-0.12445640075206756,-0.8752987334519624,0.5463213018363341
1783002707234696000,4.676696044921875,-0.06343640712201595,-0.7925546915307641,0.5636508049629628
1783002707244747800,4.686747802734375,-0.041600422888994217,-0.7087120407178997,0.5478398166405036
1783002707254798800,4.696798828125,-0.10245733491182327,-0.6829933698326349,0.5214372916769237
1783002707264851000,4.706850830078125,-0.24797405934929848,-0.7376715932205319,0.5317144651392475
1783002707274901800,4.71690185546875,-0.11534954971075058,-1.0797986849948764,0.6630089317504316
1783002707284953900,4.726953857421875,0.02664952199459076,-1.4270678158327936,0.8670627469610422
1783002707295005000,4.7370048828125,-0.42792438378632064,-1.0688128883391619,0.9895469708573073
1783002707305056800,4.747056884765625,-0.8761936364650725,-0.6242594413131475,0.9392101376745849
1783002707315108900,4.75710888671875,-0.9934136562228202,-0.6862535406723618,0.7974456784427165
1783002707325159700,4.76715966796875,-1.0211498044103384,-0.8092419146984815,0.7401550805993378
1783002707335212000,4.7772119140625,-1.2431786906421183,-0.6307701383814215,0.7048602606605738
1783002707345262800,4.787262939453125,-1.4252028987437486,-0.31449528074413535,0.6123433415373787
1783002707355315000,4.79731494140625,-1.3790923049539328,-0.050828562222421166,0.4043858699517324
1783002707365366000,4.807365966796875,-1.2297452085733414,0.22296529029905796,0.2293853682081215
1783002707375417900,4.81741796875,-1.0842372519642114,0.4992568048551678,0.08070870016869157
1783002707385469000,4.827468994140625,-0.8452437869280576,0.6302960911288857,-0.006451678623724729
1783002707395521000,4.83752099609375,-0.6342021586567164,0.6762701990574598,-0.012559859305713326
1783002707405571800,4.84757177734375,-0.6526695432394742,0.7100497190624475,0.07606719450578094
1783002707415624000,4.8576240234375,-0.7294207744866609,0.759943338522315,0.17682298619672654
1783002707425675000,4.867675048828125,-0.7705202621161937,0.8238654833346605,0.16843728903681038
1783002707435726800,4.877726806640625,-0.796529148119688,0.8328104218125343,0.053312962916679675
1783002707445778000,4.88777783203125,-0.7129197215408086,0.8043649563118815,-0.021382650974951685
1783002707455829800,4.897829833984375,-0.6813485252350568,0.8269079197704792,-0.04509003683673218
1783002707465880800,4.907880859375,-0.7505266908794641,0.9368295992136001,-0.09504687599223106
1783002707475933000,4.917932861328125,-0.609308540418744,1.044904774007201,-0.2347570878417231
1783002707485983700,4.927983642578125,-0.27447920443713664,1.0796943478375673,-0.3329189723156392
1783002707496035800,4.938035888671875,-0.08765373353362083,1.0795602000638842,-0.28275955979274586
1783002707506087000,4.9480869140625,-0.021432664129137993,1.0483002616643906,-0.16648147879391909
1783002707516138800,4.958138671875,0.16101590686440467,0.922631562513113,-0.12628131462428718
1783002707526189800,4.96818994140625,0.22225392715930936,0.8416258886918425,-0.10864599695149808
1783002707536241700,4.97824169921875,0.0685801997512579,0.8867571160554886,-0.11887365044998004
1783002707546292700,4.988292724609375,-0.1647702909618616,1.0350137868508695,-0.24822803411036728
1783002707556345000,4.998344970703125,-0.34557518640160556,1.1401999622046948,-0.5027718637714162
1783002707566396000,5.00839599609375,-0.5023468798249959,1.2338982365995645,-0.7877164577193557
1783002707576448000,5.018447998046875,-0.49174131465852255,1.3660212264567613,-0.9423295118041336
1783002707586499000,5.0284990234375,-0.35538346371054647,1.4524083010554312,-0.9728642046689987
1783002707596551000,5.038551025390625,-0.199675015604496,1.5048320235148072,-0.9352125194057822
1783002707606602000,5.04860205078125,-0.031635493713617326,1.3840420363157986,-0.9514661734618246
1783002707616653800,5.05865380859375,0.10101239680051803,1.182686228017509,-0.8615832926366478
1783002707626705000,5.068704833984375,0.3505062130630016,0.9883876447543501,-0.7166888648159802
1783002707636757000,5.078757080078125,0.4422130213797092,0.9071060766011476,-0.5913139609795064
1783002707646807800,5.088807861328125,0.2907593081086874,0.8480714115694165,-0.49534920295737683
1783002707656860000,5.09885986328125,0.20822481728494166,0.6832213333696127,-0.48105797154810276
1783002707666911000,5.108910888671875,0.17677286344468593,0.4931926825106144,-0.40512729943618175
1783002707676962800,5.118962890625,0.3052817544579506,0.31693039893656966,-0.4127199465222656
1783002707687015000,5.129014892578125,0.4046837934523821,0.2331999763265252,-0.48867889488060023
1783002707697065700,5.139065673828125,0.318323022338748,0.2526958271741867,-0.5543922339586541
1783002707707117800,5.149117919921875,0.1633370432883501,0.2839510893985629,-0.5327697828784584
1783002707717169000,5.1591689453125,0.059627077966928475,0.24769524240791796,-0.49853302062526345
1783002707727220700,5.169220703125,0.21704291451275348,0.15632161156833171,-0.5250887268565595
1783002707737271800,5.179271728515625,0.44713644925653934,0.12929185808449983,-0.5990230375194922
1783002707747324000,5.189323974609375,0.5701134251058101,0.15825959389358757,-0.6439585596479475
1783002707757374700,5.199374755859375,0.4855605801969766,0.16052140134572981,-0.6012691724784672
1783002707767427000,5.209427001953125,0.037976971694827076,0.21031009912639856,-0.45075358030777424
1783002707777478000,5.219477783203125,-0.30805297273695464,0.2433890696465969,-0.24383807378942146
1783002707787530000,5.229530029296875,-0.06053133333027363,0.1555970966860652,-0.269324415489845
1783002707797581000,5.2395810546875,0.3046539779484272,0.07656359972059726,-0.5661886894101277
1783002707807633000,5.2496328125,0.2592868960022926,0.18407383410781622,-0.7605612512249499
1783002707817684000,5.25968408203125,-0.025188217270374298,0.27446517591178415,-0.8526616619691252
1783002707827735800,5.26973583984375,-0.06574176145493983,0.26217443413734437,-0.8465781773369759
1783002707837787000,5.279786865234375,0.10992284848690033,0.22286679836064577,-0.7852089318778366
1783002707847839000,5.2898388671875,0.18872341347932814,0.23543752612024543,-0.6919152196958661
1783002707857889800,5.299889892578125,-0.1741600505977869,0.2918658080458641,-0.47568774975184347
1783002707867942000,5.30994189453125,-0.5036930337369442,0.266067349922657,-0.1464058552969247
1783002707877993000,5.319992919921875,-0.31120354572236536,0.19094371987730263,-0.053129605706408616
1783002707888044800,5.330044921875,-0.04114917199015617,0.12743658560663462,-0.23798001367729155
1783002707898095900,5.340095947265625,0.14412965399324892,0.04810176760703325,-0.31509339276775716
1783002707908147700,5.350147705078125,0.20232640689611434,-0.1079088783159852,-0.3895595087524503
1783002707918198800,5.36019873046875,0.03756371471881866,-0.26781068645864725,-0.2840571435889229
1783002707928251000,5.3702509765625,-0.18363398138582707,-0.36796558964699505,-0.11567059835866093
1783002707938301700,5.3803017578125,-0.346594592577219,-0.40057460456788535,-0.10285215204884297
1783002707948353800,5.390353759765625,-0.4485498231858015,-0.3157370974987745,-0.2512587983747013
1783002707958404900,5.40040478515625,-0.4363578656107187,-0.1852148208364844,-0.48260772174075245
1783002707968457000,5.41045703125,-0.45957156793773174,-0.029293606762588024,-0.6999905357323587
1783002707978508000,5.420508056640625,-0.7655377975285053,-0.0014227262794971466,-0.9376506332729011
1783002707988560000,5.430559814453125,-0.9795394446492195,-0.07201631167978048,-1.022879404681921
1783002707998611000,5.44061083984375,-0.878954917871952,-0.17346359276622533,-0.8793449401028454
1783002708008663000,5.4506630859375,-0.7023223396807908,-0.3184644766360521,-0.5091521759256721
1783002708018713900,5.4607138671875,-0.414102194660902,-0.5260957119420171,-0.13416735516637562
1783002708028766000,5.470765869140625,-0.22990181156396863,-0.6473895570099354,0.10790770927220582
1783002708038817000,5.480817138671875,-0.1849257747620344,-0.6656082275286317,0.14428104516267776
1783002708048868900,5.490868896484375,-0.06598024638593196,-0.7416223766729235,-0.07872180066779255
1783002708058921000,5.5009208984375,-0.14523498488664627,-0.8135109703198075,-0.32686559056080877
1783002708068971800,5.5109716796875,-0.22627602228224275,-0.843463917773962,-0.389634254489094
1783002708079023900,5.52102392578125,0.029741058269143104,-0.8436457040816545,-0.3008387305092066
1783002708089075000,5.531074951171875,0.0959901847243309,-0.6942538917765021,-0.22904599845223128
1783002708099126800,5.541126708984375,0.03204933521151542,-0.47867432781457897,-0.09425605440810322
1783002708109177900,5.551177734375,0.13140636602044103,-0.3266816853612661,0.013768266981095074
1783002708119229700,5.561229736328125,0.2474497432142496,-0.17982289866507054,0.011490750503167509
1783002708129280800,5.57128076171875,0.3916799349725246,-0.0532692333728075,-0.17410430182255804
1783002708139332900,5.581332763671875,0.33593525139689445,0.10491904885023831,-0.5166393898759037
1783002708149383700,5.5913837890625,0.17294599863290785,0.21888152811676262,-0.8976058423280715
1783002708159436000,5.60143603515625,0.21545009236335752,0.15429682774245737,-1.042170234476775
1783002708169487000,5.611487060546875,0.36889877884387967,0.05285977578908205,-0.9052975658744573
1783002708179539000,5.6215390625,0.22452362565696238,0.05354746579229831,-0.524654646288231
1783002708189590000,5.631590087890625,-0.32225627013444896,0.12962941947579384,-0.08859576362408697
1783002708199641900,5.641641845703125,-0.26686697586774827,-0.09682488198280334,0.24563356063775718
1783002708209693000,5.65169287109375,0.4264525576680898,-0.5314321045339108,0.06356982424333692
1783002708219745000,5.6617451171875,0.3564502161592245,-0.3678635905772447,-0.28000746633931994
1783002708229799700,5.671799560546875,-0.17826573235094545,0.0805292884811759,-0.6221585235111415
1783002708239851800,5.681851806640625,-0.6219616857647895,0.2815530883461237,-0.7312889064460992
1783002708249902800,5.69190283203125,-0.9664712887614965,0.25756986295133827,-0.22523002036064863
1783002708259954700,5.70195458984375,-1.4777595999330282,0.21799977684617042,0.5811968369171023
1783002708270005800,5.712005859375,-1.8308359557449816,0.02980535567700863,1.5667381523296235
1783002708280057600,5.7220576171875,-1.3318179280817508,-0.16528320892006157,2.1120324857383963
1783002708290108700,5.732108642578125,-0.31991935161948204,-0.08203706269562244,1.9976310305327176
1783002708300160800,5.742160888671875,-2.8782389763087033,0.07992664641290903,0.8771159389417618
1783002708310211600,5.752211669921875,-3.503122687000036,0.5549015351876616,-0.1450482301428914
1783002708320263700,5.762263671875,-2.7067180420428514,0.8870920470982789,-0.4650638817436993
1783002708330314800,5.772314697265625,-1.9036574463278053,0.6774661308437585,-0.6364478917568922
1783002708340366600,5.78236669921875,-1.7756962523251771,0.6298389950111508,-0.7847069737050681
1783002708350417700,5.792417724609375,-1.7468237935841082,1.12311584867388,-0.8830603073641657
1783002708360469500,5.802469482421875,-0.8766600849330425,1.249622752214968,-0.9577173428110778
1783002708370521600,5.812521484375,-0.0025812486648559567,1.1940651156440376,-0.7175011310469359
1783002708380572700,5.82257275390625,0.4642962583720684,1.151810905021429,-0.2768138579297811
