time,seconds_elapsed,z,y,x
1783002702632367600,0.07436767578125,0.2307029813528061,0.060079850256443024,-0.35496634244918823
1783002702642419500,0.08441943359375,0.24286670982837677,0.15765860676765442,-0.15416213870048523
1783002702652470500,0.094470458984375,0.19468826055526733,0.077229805290699,-0.047810398042201996
1783002702662522600,0.104522705078125,0.15405108034610748,-0.057068612426519394,0.019532687962055206
1783002702672573400,0.114573486328125,0.13153378665447235,-0.08038698136806488,0.08356919884681702
1783002702682625500,0.12462548828125,0.10212396830320358,-0.06396646797657013,0.10863327234983444
1783002702692676600,0.134676513671875,0.0794125348329544,-0.09061218798160553,0.05305176600813866
1783002702702728400,0.144728515625,0.07339086383581161,-0.13584864139556885,-0.09873723238706589
1783002702712779500,0.154779541015625,0.08840975910425186,-0.15940643846988678,-0.3123070299625397
1783002702722831400,0.164831298828125,0.11089349538087845,-0.12881630659103394,-0.5054160356521606
1783002702732882400,0.17488232421875,0.12529107928276062,-0.02304326742887497,-0.6399781107902527
1783002702742934500,0.1849345703125,0.1293523907661438,0.07233358174562454,-0.7522335648536682
1783002702752985600,0.194985595703125,0.12395203858613968,0.10411442071199417,-0.8501105904579163
1783002702763037400,0.205037353515625,0.11111240833997726,0.08329355716705322,-0.8958391547203064
1783002702773088500,0.215088623046875,0.08657217770814896,0.041134919971227646,-0.8631914854049683
1783002702783140400,0.225140380859375,0.059357598423957825,0.07511285692453384,-0.7371089458465576
1783002702793191400,0.23519140625,0.05455485358834267,0.18613897264003754,-0.569191038608551
1783002702803243500,0.245243408203125,0.07219803333282471,0.2752875089645386,-0.4021573066711426
1783002702813294300,0.25529443359375,0.0887860581278801,0.2503927946090698,-0.30768007040023804
1783002702823346700,0.2653466796875,0.08558041602373123,0.1297614574432373,-0.2809227406978607
1783002702833397500,0.2753974609375,0.07711981981992722,-0.005227785091847181,-0.2804529666900635
1783002702843449600,0.28544970703125,0.06120849773287773,-0.07882983237504959,-0.2794574797153473
1783002702853500700,0.295500732421875,0.04111121594905853,-0.0811997801065445,-0.26429370045661926
1783002702863552500,0.305552490234375,0.0065713501535356045,-0.064341701567173,-0.24226829409599304
1783002702873603600,0.315603515625,-0.021817946806550026,-0.04725246503949165,-0.22431325912475586
1783002702883655400,0.325655517578125,-0.048883385956287384,-0.002552107209339738,-0.2001061886548996
1783002702893706500,0.33570654296875,-0.0627877488732338,0.055440887808799744,-0.1889914870262146
1783002702903758600,0.345758544921875,-0.07387156039476395,0.07404360175132751,-0.20795266330242157
1783002702913809700,0.3558095703125,-0.09073229879140854,0.04796512797474861,-0.24513252079486847
1783002702923861500,0.365861572265625,-0.1016741618514061,0.05010711029171944,-0.26442259550094604
1783002702933912600,0.37591259765625,-0.11676602810621262,0.0872558057308197,-0.27389758825302124
1783002702943964400,0.38596435546875,-0.1425161361694336,0.10536769777536392,-0.2765711545944214
1783002702954015500,0.396015380859375,-0.16517964005470276,0.08835037052631378,-0.26036661863327026
1783002702964067600,0.406067626953125,-0.17821075022220612,0.07248884439468384,-0.2347741574048996
1783002702974118400,0.416118408203125,-0.1782597452402115,0.0826788991689682,-0.184963196516037
1783002702984170500,0.42617041015625,-0.18099482357501984,0.0736747533082962,-0.13974937796592712
1783002702994221600,0.4362216796875,-0.17523333430290222,0.046845003962516785,-0.10076389461755753
1783002703004273400,0.4462734375,-0.153879314661026,0.019267704337835312,-0.07030478864908218
1783002703014324500,0.456324462890625,-0.13307896256446838,0.0035891421139240265,-0.04615071788430214
1783002703024376300,0.466376220703125,-0.12874679267406464,-0.008771120570600033,-0.03651806339621544
1783002703034427400,0.476427490234375,-0.13906601071357727,0.02634505368769169,-0.027172498404979706
1783002703044479500,0.4864794921875,-0.13882233202457428,0.13202860951423645,-0.02791818417608738
1783002703054530600,0.496530517578125,-0.12810364365577698,0.2595950961112976,-0.031869783997535706
1783002703064582700,0.506582763671875,-0.11826911568641663,0.32045283913612366,-0.0356256365776062
1783002703074633500,0.516633544921875,-0.11046046763658524,0.29444387555122375,-0.02099582925438881
1783002703084685600,0.526685546875,-0.09718167781829834,0.24858291447162628,0.009442237205803394
1783002703094736600,0.536736572265625,-0.08194413781166077,0.2058490365743637,0.048722267150878906
1783002703104788500,0.54678857421875,-0.08638016134500504,0.16092310845851898,0.08617616444826126
1783002703114839600,0.556839599609375,-0.10011754930019379,0.12378958612680435,0.10574320703744888
1783002703124891400,0.566891357421875,-0.12573929131031036,0.08824730664491653,0.12413473427295685
1783002703134942500,0.5769423828125,-0.16597458720207214,0.059306465089321136,0.15855662524700165
1783002703144994600,0.58699462890625,-0.20110701024532318,0.05907530337572098,0.21492508053779602
1783002703155045600,0.597045654296875,-0.2164103388786316,0.11173425614833832,0.2811243534088135
1783002703165097500,0.607097412109375,-0.20296455919742584,0.16530907154083252,0.3168644905090332
1783002703175148500,0.6171484375,-0.1599036455154419,0.19865450263023376,0.3059293031692505
1783002703185200400,0.627200439453125,-0.09085746854543686,0.23210860788822174,0.2662988007068634
1783002703195251500,0.63725146484375,-0.0199782345443964,0.25313079357147217,0.20325937867164612
1783002703205303600,0.647303466796875,0.014191186055541039,0.21252451837062836,0.07424626499414444
1783002703215351000,0.65735107421875,0.02467445284128189,0.17686185240745544,-0.08163361251354218
1783002703225403100,0.667403076171875,0.015107846818864346,0.1873033195734024,-0.2213190644979477
1783002703235454200,0.6774541015625,-0.008243282325565815,0.2186654955148697,-0.3448370099067688
1783002703245506000,0.687506103515625,-0.0514376237988472,0.22956368327140808,-0.45012056827545166
1783002703255557000,0.69755712890625,-0.09424953907728195,0.2080450803041458,-0.5279871225357056
1783002703265609000,0.70760888671875,-0.14331401884555817,0.14313159883022308,-0.5519611835479736
1783002703275660000,0.717659912109375,-0.21092209219932556,0.08740468323230743,-0.5002761483192444
1783002703285712100,0.727712158203125,-0.26873159408569336,0.08674315363168716,-0.4005604684352875
1783002703295763000,0.737762939453125,-0.2981848120689392,0.07703033834695816,-0.2719305753707886
1783002703305815000,0.74781494140625,-0.28999319672584534,0.014400244690477848,-0.09915055334568024
1783002703315866000,0.7578662109375,-0.2440030723810196,0.021272266283631325,0.12229262292385101
1783002703325918000,0.76791796875,-0.1805543303489685,0.10003631561994553,0.31009766459465027
1783002703335969000,0.777968994140625,-0.11378302425146103,0.11962226778268814,0.34824320673942566
1783002703346020900,0.788020751953125,-0.04081081226468086,0.0727599561214447,0.27572134137153625
1783002703356072000,0.798072021484375,0.03068467602133751,0.04116394743323326,0.16754558682441711
1783002703366124000,0.8081240234375,0.08148633688688278,0.048221323639154434,0.10453865677118301
1783002703376174800,0.8181748046875,0.1099691092967987,0.08700733631849289,0.09989410638809204
1783002703386227000,0.82822705078125,0.11908271163702011,0.13750407099723816,0.16517777740955353
1783002703396278000,0.838278076171875,0.12663091719150543,0.2036101222038269,0.27989661693573
1783002703406330000,0.848330078125,0.12002920359373093,0.28218215703964233,0.3855189383029938
1783002703416381200,0.858381103515625,0.11650477349758148,0.33680224418640137,0.4533451199531555
1783002703426433000,0.86843310546875,0.11765605956315994,0.3551389276981354,0.4620765447616577
1783002703436484000,0.878484130859375,0.11799214780330658,0.28784990310668945,0.41682225465774536
1783002703446536200,0.8885361328125,0.10279535502195358,0.1141928881406784,0.32722339034080505
1783002703456587000,0.8985869140625,0.06607621908187866,-0.07168377190828323,0.2568325996398926
1783002703466639000,0.90863916015625,0.010525877587497234,-0.18292587995529175,0.24403584003448486
1783002703476690200,0.918690185546875,-0.047194141894578934,-0.23718298971652985,0.27483129501342773
1783002703486742000,0.928741943359375,-0.08700813353061676,-0.2553907632827759,0.293381005525589
1783002703496793000,0.93879296875,-0.10122115910053253,-0.27702468633651733,0.273992657661438
1783002703506845000,0.948844970703125,-0.10395222902297974,-0.2930728793144226,0.23049207031726837
1783002703516896000,0.95889599609375,-0.09207719564437866,-0.29651689529418945,0.1551046371459961
1783002703526948000,0.968947998046875,-0.07480579614639282,-0.30234041810035706,0.07257620245218277
1783002703536999000,0.9789990234375,-0.05468694865703583,-0.26209819316864014,0.010437993332743645
1783002703547051000,0.989051025390625,-0.031795747578144073,-0.17573188245296478,-0.011122426018118858
1783002703557102000,0.99910205078125,-0.018638931214809418,-0.07864181697368622,0.005942311137914658
1783002703567154000,1.00915380859375,-0.03164341300725937,0.01200899202376604,0.05163123458623886
1783002703577205000,1.019205078125,-0.044760812073946,0.10149386525154114,0.10715175420045853
1783002703587256800,1.0292568359375,-0.05464300513267517,0.17891834676265717,0.17406287789344788
1783002703597308000,1.039307861328125,-0.05896158888936043,0.2201203852891922,0.21981598436832428
1783002703607360000,1.049360107421875,-0.05840978026390076,0.2135636806488037,0.22504882514476776
1783002703617410800,1.059410888671875,-0.04350380226969719,0.15773716568946838,0.19618496298789978
1783002703627463200,1.069463134765625,-0.02689206786453724,0.07554828375577927,0.15548120439052582
1783002703637514200,1.07951416015625,-0.016384832561016083,0.03988829255104065,0.09126333147287369
1783002703647566000,1.089566162109375,-0.014958975836634636,0.07340950518846512,0.03250334784388542
1783002703657617200,1.0996171875,-0.0186447910964489,0.11149723082780838,-0.0004551342281047255
1783002703667669000,1.1096689453125,-0.020325778052210808,0.10865750163793564,-0.008468319661915302
1783002703677720000,1.119719970703125,-0.01158927846699953,0.08085037767887115,0.01446788851171732
1783002703687772200,1.129772216796875,0.015006113797426224,0.08545577526092529,0.07256634533405304
1783002703697823000,1.139822998046875,0.05331674963235855,0.10710754245519638,0.13042724132537842
1783002703707875000,1.149875,0.09454354643821716,0.0750151202082634,0.1606069952249527
1783002703717926100,1.159926025390625,0.13396047055721283,0.0036698358599096537,0.16763027012348175
1783002703727978000,1.16997802734375,0.16323445737361908,-0.08597589284181595,0.13784362375736237
1783002703738029000,1.180029052734375,0.18642127513885498,-0.13553732633590698,0.08110550791025162
1783002703748081000,1.190080810546875,0.1979202777147293,-0.14779825508594513,0.005114068277180195
1783002703758132000,1.200132080078125,0.19417959451675415,-0.136098712682724,-0.08590185642242432
1783002703768184000,1.21018408203125,0.1790885329246521,-0.12946398556232452,-0.17950718104839325
1783002703778235000,1.22023486328125,0.15219299495220184,-0.13188320398330688,-0.24668221175670624
1783002703788287000,1.230286865234375,0.1235584244132042,-0.11883131414651871,-0.2835094630718231
1783002703798338000,1.240338134765625,0.0974288210272789,-0.10511816293001175,-0.2950068712234497
1783002703808390000,1.250389892578125,0.07800451666116714,-0.12033253908157349,-0.2555966079235077
1783002703818441000,1.26044091796875,0.05957997217774391,-0.12900671362876892,-0.17017732560634613
1783002703828493000,1.2704931640625,0.05156012997031212,-0.12441063672304153,-0.09357309341430664
1783002703838544000,1.2805439453125,0.06523386389017105,-0.1339189112186432,-0.0661366730928421
1783002703848596200,1.29059619140625,0.08948620408773422,-0.17443038523197174,-0.10275540500879288
1783002703858647000,1.30064697265625,0.1142813041806221,-0.23414938151836395,-0.17438192665576935
1783002703868699100,1.31069921875,0.12021748721599579,-0.2712051272392273,-0.24402065575122833
1783002703878750200,1.320750244140625,0.11375213414430618,-0.25819799304008484,-0.28204312920570374
1783002703888802000,1.330802001953125,0.1080327257514,-0.23523861169815063,-0.28880223631858826
1783002703898853000,1.34085302734375,0.08968088030815125,-0.2542589008808136,-0.2869982123374939
1783002703908905000,1.350905029296875,0.0473768375813961,-0.32273784279823303,-0.2701238989830017
1783002703918956000,1.3609560546875,-0.0010817759903147817,-0.3694155812263489,-0.225234717130661
1783002703929008000,1.371008056640625,-0.042089663445949554,-0.2476244419813156,-0.13561002910137177
1783002703939059000,1.381058837890625,-0.056347694247961044,-0.03327193483710289,-0.033129457384347916
1783002703949111000,1.391111083984375,-0.057362090796232224,0.06971276551485062,0.04677203297615051
1783002703959162000,1.401162109375,-0.04165104031562805,0.026079537346959114,0.11843476444482803
1783002703969214000,1.4112138671875,-0.022421685978770256,-0.04319167882204056,0.19428585469722748
1783002703979265000,1.42126513671875,-0.009922139346599579,-0.08369516581296921,0.2579804062843323
1783002703989316900,1.43131689453125,0.002240517409518361,-0.1431094855070114,0.3115032911300659
1783002703999368000,1.441367919921875,0.024761805310845375,-0.17315153777599335,0.3763270378112793
1783002704009420000,1.451419921875,0.026390595361590385,-0.16330291330814362,0.4443015456199646
1783002704019470800,1.461470947265625,-0.023036077618598938,-0.15008164942264557,0.4487639367580414
1783002704029523000,1.47152294921875,-0.11530688405036926,-0.15583354234695435,0.36413589119911194
1783002704039574000,1.481573974609375,-0.20412702858448029,-0.15084198117256165,0.22167514264583588
1783002704049626000,1.491626220703125,-0.2619706392288208,-0.15236130356788635,0.10201744735240936
1783002704059677200,1.50167724609375,-0.31037890911102295,-0.08945664763450623,0.045107558369636536
1783002704069729000,1.51172900390625,-0.35758689045906067,-0.02328881062567234,0.010411628521978855
1783002704079780000,1.521780029296875,-0.3797622323036194,-0.00897032581269741,-0.03268178179860115
1783002704089832200,1.531832275390625,-0.36571139097213745,0.009071525186300278,-0.06635771691799164
1783002704099883000,1.541883056640625,-0.3179284334182739,0.08256091922521591,-0.06435289233922958
1783002704109935000,1.55193505859375,-0.24000780284404755,0.20676249265670776,0.008567921817302704
1783002704119986200,1.561986083984375,-0.16042323410511017,0.320050984621048,0.1271694004535675
1783002704130038000,1.5720380859375,-0.1042768731713295,0.38375991582870483,0.24539883434772491
1783002704140089000,1.582089111328125,-0.048642370849847794,0.4451894462108612,0.3390806019306183
1783002704150141000,1.592140869140625,0.015199991874396801,0.4599902331829071,0.3804685175418854
1783002704160192000,1.60219189453125,0.06035016104578972,0.4240815043449402,0.3390369117259979
1783002704170244000,1.612244140625,0.10096629709005356,0.3461203873157501,0.23492595553398132
1783002704180295000,1.622294921875,0.13477379083633423,0.2419833391904831,0.1478254199028015
1783002704190347000,1.632346923828125,0.14742779731750488,0.11468743532896042,0.12314590066671371
1783002704200398000,1.642398193359375,0.14714843034744263,0.04622102528810501,0.17495210468769073
1783002704210450000,1.652449951171875,0.14137017726898193,0.06619952619075775,0.29888656735420227
1783002704220500700,1.662500732421875,0.13811738789081573,0.11373588442802429,0.4339897930622101
1783002704230552600,1.672552490234375,0.14597637951374054,0.13911554217338562,0.5297980904579163
1783002704240603600,1.682603759765625,0.16330716013908386,0.14304476976394653,0.5628633499145508
1783002704250655700,1.69265576171875,0.20405006408691406,0.15367957949638367,0.5437729954719543
1783002704260706600,1.70270654296875,0.25253212451934814,0.19448426365852356,0.47913143038749695
1783002704270759000,1.712759033203125,0.2948785126209259,0.2327863723039627,0.36576732993125916
1783002704280809700,1.722809814453125,0.30745929479599,0.2178971767425537,0.20329053699970245
1783002704290861800,1.73286181640625,0.29879122972488403,0.15732863545417786,0.017377125099301338
1783002704300913000,1.742912841796875,0.2668718993663788,0.10332079231739044,-0.15308569371700287
1783002704310964700,1.75296484375,0.22660943865776062,0.06588900089263916,-0.2932654321193695
1783002704321015800,1.763015869140625,0.1626001000404358,0.019360914826393127,-0.41198650002479553
1783002704331068000,1.77306787109375,0.10244914144277573,-0.06121781840920448,-0.5128207206726074
1783002704341118700,1.78311865234375,0.06114351376891136,-0.11847764253616333,-0.5571567416191101
1783002704351170800,1.7931708984375,0.03712526336312294,-0.0942830890417099,-0.530336856842041
1783002704361222000,1.803221923828125,0.025464346632361412,-0.028064124286174774,-0.44565123319625854
1783002704371273700,1.813273681640625,0.01799045130610466,0.03786056488752365,-0.3165813982486725
1783002704381324800,1.82332470703125,0.012850284576416016,0.10857627540826797,-0.1619793176651001
1783002704391376600,1.833376708984375,0.006372944451868534,0.1521700918674469,-0.024177508428692818
1783002704401427700,1.843427734375,0.0046509443782269955,0.12038393318653107,0.07562258839607239
1783002704411479800,1.853479736328125,0.004972654394805431,0.029935527592897415,0.12894466519355774
1783002704421530600,1.863530517578125,0.005588643718510866,-0.04809802025556564,0.16979941725730896
1783002704431582700,1.873582763671875,0.01453020703047514,-0.08597083389759064,0.2129112035036087
1783002704441633800,1.8836337890625,0.02316044643521309,-0.09161327034235,0.25879427790641785
1783002704451685600,1.893685546875,0.03485918045043945,-0.09632840007543564,0.2842943072319031
1783002704461736700,1.90373681640625,0.03798040375113487,-0.09272061288356781,0.2890706956386566
1783002704471788500,1.91378857421875,0.04141322150826454,-0.07797469198703766,0.26775500178337097
1783002704481839600,1.923839599609375,0.04214079678058624,-0.04767537862062454,0.21860584616661072
1783002704491892000,1.93389208984375,0.044978659600019455,-0.013614878058433533,0.15044356882572174
1783002704501942800,1.94394287109375,0.047152597457170486,-0.013548299670219421,0.08735568076372147
1783002704511995000,1.953994873046875,0.04936275631189346,-0.0009800433181226254,0.0499289445579052
1783002704522046000,1.9640458984375,0.05278385058045387,0.030707312747836113,0.04227901250123978
1783002704532097800,1.974097900390625,0.05327547341585159,0.03834685683250427,0.05401476472616196
1783002704542148900,1.98414892578125,0.05986147001385689,0.032767266035079956,0.06861981004476547
1783002704552200700,1.99420068359375,0.06645651906728745,0.030714502558112144,0.0869695171713829
1783002704562251800,2.004251708984375,0.088727205991745,0.03741608187556267,0.1176946759223938
1783002704572304000,2.014303955078125,0.12832894921302795,0.02394448034465313,0.143866628408432
1783002704582354700,2.024354736328125,0.15170803666114807,-0.016350477933883667,0.16097743809223175
1783002704592406800,2.03440673828125,0.16834241151809692,-0.0343523807823658,0.14381815493106842
1783002704602457900,2.044457763671875,0.17577235400676727,-0.0054818508215248585,0.11064022779464722
1783002704612509700,2.054509765625,0.1756056398153305,0.06450735032558441,0.08369383215904236
1783002704622560800,2.064560791015625,0.16197851300239563,0.1415051966905594,0.04987914115190506
1783002704632612600,2.074612548828125,0.143270343542099,0.1800781637430191,0.009832656942307949
1783002704642663700,2.08466357421875,0.13183100521564484,0.18639518320560455,-0.02039794996380806
1783002704652715800,2.0947158203125,0.13049861788749695,0.2096506953239441,-0.03490205854177475
1783002704662767600,2.104767578125,0.1316877156496048,0.24041207134723663,-0.033787790685892105
1783002704672818700,2.114818603515625,0.12403326481580734,0.24705000221729279,-0.03906324505805969
1783002704682870800,2.124870849609375,0.11774075031280518,0.221500962972641,-0.03148761764168739
1783002704692921600,2.134921630859375,0.102447010576725,0.16567978262901306,-0.004488757811486721
1783002704702972700,2.14497265625,0.08972030133008957,0.10318443924188614,0.043772779405117035
1783002704713024800,2.155024658203125,0.07624177634716034,0.06085536256432533,0.11836126446723938
1783002704723076900,2.165076904296875,0.06941209733486176,0.05680602416396141,0.1928434818983078
1783002704733128000,2.1751279296875,0.07026990503072739,0.07067789882421494,0.2478015422821045
1783002704743179800,2.1851796875,0.07731156796216965,0.074801005423069,0.28164446353912354
1783002704753230800,2.19523095703125,0.0893985852599144,0.09514622390270233,0.30018991231918335
1783002704763282700,2.20528271484375,0.11692209541797638,0.10964207351207733,0.3262753188610077
1783002704773333800,2.215333740234375,0.1575683206319809,0.1189492866396904,0.3567381501197815
1783002704783385900,2.2253857421875,0.2142089605331421,0.1802840232849121,0.4006241261959076
1783002704793436700,2.235436767578125,0.26116129755973816,0.22660811245441437,0.42976441979408264
1783002704803488800,2.24548876953125,0.2804313898086548,0.18759466707706451,0.43212905526161194
1783002704813539800,2.255539794921875,0.26868417859077454,0.06246071308851242,0.40264892578125
1783002704823591700,2.265591796875,0.22915010154247284,-0.10850889980792999,0.3615952134132385
1783002704833642800,2.275642822265625,0.15750600397586823,-0.2131255865097046,0.32494932413101196
1783002704843694600,2.285694580078125,0.05624303221702576,-0.25037601590156555,0.2673507332801819
1783002704853745700,2.29574560546875,-0.06682856380939484,-0.3042701482772827,0.16232739388942719
1783002704863797800,2.3057978515625,-0.18496398627758026,-0.3523021340370178,0.013616742566227913
1783002704873848600,2.3158486328125,-0.28945550322532654,-0.3295730948448181,-0.16167038679122925
1783002704883900700,2.325900634765625,-0.379451185464859,-0.24541135132312775,-0.32561856508255005
1783002704893951700,2.33595166015625,-0.48273229598999023,-0.08300913125276566,-0.4381517767906189
1783002704904003800,2.34600390625,-0.6016712188720703,0.12848339974880219,-0.4910983443260193
1783002704914055000,2.356054931640625,-0.7123100757598877,0.3839420676231384,-0.49422383308410645
1783002704924106800,2.366106689453125,-0.8029252290725708,0.7033368349075317,-0.45525220036506653
1783002704934157800,2.37615771484375,-0.8581038117408752,1.0074213743209839,-0.388342946767807
1783002704944210000,2.3862099609375,-0.8477947115898132,1.26863694190979,-0.3055466115474701
1783002704954260700,2.3962607421875,-0.7540538311004639,1.464753270149231,-0.20930741727352142
1783002704964312800,2.406312744140625,-0.5951064825057983,1.565392017364502,-0.1185639277100563
1783002704974364000,2.416364013671875,-0.3843551278114319,1.5907820463180542,-0.0277932807803154
1783002704984415700,2.426415771484375,-0.15357758104801178,1.5340590476989746,0.03844299539923668
1783002704994466800,2.436466796875,0.05296734347939491,1.3906582593917847,0.0486663393676281
1783002705004518700,2.4465185546875,0.213171124458313,1.1870784759521484,0.005293298978358507
1783002705014569700,2.45656982421875,0.3044094443321228,0.952785849571228,-0.05193403735756874
1783002705024621800,2.466621826171875,0.3384651243686676,0.7035248875617981,-0.05734638124704361
1783002705034672600,2.476672607421875,0.3215641677379608,0.47519636154174805,0.002831206424161792
1783002705044724700,2.486724853515625,0.27767130732536316,0.23208969831466675,0.08775168657302856
1783002705054775800,2.49677587890625,0.21818213164806366,-0.06632283329963684,0.14399631321430206
1783002705064827600,2.50682763671875,0.1638515144586563,-0.3746146261692047,0.16504274308681488
1783002705074878700,2.516878662109375,0.12683677673339844,-0.5512408018112183,0.169402614235878
1783002705084930600,2.5269306640625,0.11342216283082962,-0.5831084251403809,0.16671840846538544
1783002705094981600,2.536981689453125,0.09532199054956436,-0.5123479962348938,0.14185141026973724
1783002705105034000,2.547033935546875,0.07447662949562073,-0.3961193859577179,0.10789716988801956
1783002705115084500,2.55708447265625,0.04182068258523941,-0.2728523015975952,0.06792499125003815
1783002705125137000,2.567136962890625,0.017434917390346527,-0.15912893414497375,0.04204332455992699
1783002705135188000,2.57718798828125,0.004814994987100363,-0.08669601380825043,0.037212617695331573
1783002705145239800,2.58723974609375,0.007693339604884386,-0.07453921437263489,0.0414036326110363
1783002705155291000,2.597290771484375,0.030187197029590607,-0.07797815650701523,0.04050135239958763
1783002705165342700,2.6073427734375,0.06489644199609756,-0.09795292466878891,0.02869848906993866
1783002705175393800,2.617393798828125,0.10588248819112778,-0.13711604475975037,0.02641855739057064
1783002705185446000,2.62744580078125,0.13245178759098053,-0.1690521389245987,0.04265664890408516
1783002705195496700,2.63749658203125,0.14415477216243744,-0.19983509182929993,0.06168387085199356
1783002705205548800,2.647548828125,0.13515914976596832,-0.2459237426519394,0.0826466754078865
1783002705215599900,2.657599853515625,0.12079885601997375,-0.33004501461982727,0.11019574850797653
1783002705225655000,2.667655029296875,0.1275385171175003,-0.4349445402622223,0.11166208237409592
1783002705235706000,2.6777060546875,0.16094814240932465,-0.567703366279602,0.08358677476644516
1783002705245758000,2.687758056640625,0.22625577449798584,-0.709288477897644,-0.0000876179983606562
1783002705255809000,2.69780908203125,0.3026277720928192,-0.7524734735488892,-0.10434824228286743
1783002705265861000,2.707861083984375,0.34621891379356384,-0.6648864150047302,-0.17712071537971497
1783002705275912000,2.717911865234375,0.33811652660369873,-0.44906488060951233,-0.1583949625492096
1783002705285964000,2.727964111328125,0.2805347144603729,-0.21138814091682434,-0.08030549436807632
1783002705296015000,2.73801513671875,0.19915997982025146,-0.04969644919037819,0.030548321083188057
1783002705306067000,2.74806689453125,0.0945211797952652,0.02129570208489895,0.06944112479686737
1783002705316118000,2.758117919921875,0.0276207085698843,0.04147154465317726,0.013345099985599518
1783002705326169900,2.768169921875,0.009196161292493343,-0.005939115304499865,-0.11064475774765015
1783002705336221000,2.778220947265625,-0.006000102031975985,-0.13972914218902588,-0.21604149043560028
1783002705346273000,2.78827294921875,-0.02875734493136406,-0.30605074763298035,-0.26342257857322693
1783002705356323800,2.79832373046875,-0.08563128113746643,-0.44822946190834045,-0.25282105803489685
1783002705366376000,2.8083759765625,-0.19414924085140228,-0.5248485803604126,-0.2242906242609024
1783002705376427000,2.818427001953125,-0.3125770688056946,-0.5683761239051819,-0.19397027790546417
1783002705386478800,2.828478759765625,-0.4161117374897003,-0.5964103937149048,-0.10664841532707214
1783002705396530000,2.838530029296875,-0.5096198320388794,-0.6061980724334717,0.03975939750671387
1783002705406582000,2.84858203125,-0.5896819233894348,-0.6163084506988525,0.23190993070602417
1783002705416632800,2.8586328125,-0.659153938293457,-0.633072555065155,0.4288826584815979
1783002705426685200,2.868685302734375,-0.7172207236289978,-0.6595025658607483,0.5613056421279907
1783002705436736000,2.878736083984375,-0.7418078184127808,-0.7033986449241638,0.6136141419410706
1783002705446788000,2.8887880859375,-0.7392849922180176,-0.7614433169364929,0.6129744648933411
1783002705456839200,2.898839111328125,-0.7128677368164062,-0.7816058397293091,0.5566866993904114
1783002705466891000,2.90889111328125,-0.6547442674636841,-0.7508929371833801,0.45184841752052307
1783002705476942000,2.918942138671875,-0.5510924458503723,-0.6554009914398193,0.33829787373542786
1783002705486994000,2.928993896484375,-0.4339892566204071,-0.5091100931167603,0.23400796949863434
1783002705497046000,2.9390458984375,-0.30502036213874817,-0.32431790232658386,0.15813051164150238
1783002705507097000,2.94909716796875,-0.16394446790218353,-0.12327239662408829,0.11430393904447556
1783002705517149000,2.95914892578125,-0.02514902874827385,0.041073933243751526,0.10302998125553131
1783002705527200000,2.969199951171875,0.09737848490476608,0.12942084670066833,0.11804221570491791
1783002705537251800,2.979251953125,0.20178824663162231,0.1654486209154129,0.16373780369758606
1783002705547303000,2.989302978515625,0.2842157483100891,0.17821606993675232,0.2279127985239029
1783002705557355000,2.99935498046875,0.35327470302581787,0.1679016500711441,0.29965436458587646
1783002705567405800,3.00940576171875,0.3936229348182678,0.13154897093772888,0.35295379161834717
1783002705577458000,3.0194580078125,0.4276392161846161,0.0928172916173935,0.41143015027046204
1783002705587509000,3.029509033203125,0.4501171112060547,0.07084301114082336,0.4574250876903534
1783002705597561000,3.03956103515625,0.4700995981693268,0.09958917647600174,0.49484676122665405
1783002705607612000,3.04961181640625,0.4805716872215271,0.14635108411312103,0.5141741037368774
1783002705617664000,3.0596640625,0.45208650827407837,0.19419850409030914,0.5124132037162781
1783002705627715000,3.069715087890625,0.38106292486190796,0.21092689037322998,0.45381996035575867
1783002705637767200,3.07976708984375,0.28974074125289917,0.12895292043685913,0.3342946171760559
1783002705647818000,3.08981787109375,0.20035625994205475,0.014854580163955688,0.19612370431423187
1783002705657870000,3.0998701171875,0.11419794708490372,-0.04911348223686218,0.08477827161550522
1783002705667921200,3.109921142578125,0.03832581639289856,-0.07604896277189255,0.02412131428718567
1783002705677973000,3.119972900390625,-0.03177950158715248,-0.061647117137908936,0.022355105727910995
1783002705688024000,3.130024169921875,-0.07762475311756134,-0.04268408194184303,0.052750296890735626
1783002705698076000,3.140075927734375,-0.08032120764255524,-0.04284653440117836,0.09381384402513504
1783002705708127000,3.150126953125,-0.04386572539806366,-0.04180577024817467,0.12246359884738922
1783002705718179000,3.160178955078125,0.021207284182310104,-0.0350104495882988,0.14671221375465393
1783002705728230000,3.17022998046875,0.10795709490776062,0.0026075011119246483,0.15717151761054993
1783002705738282000,3.180281982421875,0.18340551853179932,0.029585855081677437,0.13499616086483002
1783002705748333000,3.1903330078125,0.23408040404319763,0.012661999091506004,0.08394496887922287
1783002705758385000,3.200385009765625,0.27292606234550476,-0.008292817510664463,0.00549197057262063
1783002705768436000,3.21043603515625,0.29498398303985596,-0.007714378647506237,-0.07191520184278488
1783002705778487800,3.22048779296875,0.2948473393917084,0.011840414255857468,-0.1494440883398056
1783002705788539000,3.230538818359375,0.2754310369491577,0.034325215965509415,-0.2508503198623657
1783002705798591000,3.240591064453125,0.2386826127767563,0.03320535644888878,-0.3679031729698181
1783002705808641800,3.250641845703125,0.20095200836658478,0.019450929015874863,-0.48821040987968445
1783002705818694100,3.260694091796875,0.16373486816883087,0.036542829126119614,-0.5746625065803528
1783002705828745000,3.270744873046875,0.11617320775985718,0.06943020969629288,-0.6286730170249939
1783002705838797000,3.280797119140625,0.05209409445524216,0.03127776086330414,-0.6604804396629333
1783002705848848100,3.29084814453125,-0.029891852289438248,-0.06268441677093506,-0.6830065250396729
1783002705858900000,3.30089990234375,-0.13151754438877106,-0.14603815972805023,-0.7026723623275757
1783002705868951000,3.310950927734375,-0.25606825947761536,-0.20533770322799683,-0.7560749053955078
1783002705879003100,3.321003173828125,-0.40481433272361755,-0.2336990386247635,-0.8525500297546387
1783002705889054000,3.331053955078125,-0.549468457698822,-0.22487732768058777,-0.9887930750846863
1783002705899106000,3.34110595703125,-0.6499340534210205,-0.13467152416706085,-1.0914713144302368
1783002705909157000,3.3511572265625,-0.6617912650108337,-0.016094546765089035,-1.1124284267425537
1783002705919209000,3.361208984375,-0.6014397740364075,0.05837675556540489,-1.0749090909957886
1783002705929260000,3.371260009765625,-0.4974135160446167,0.08025169372558594,-0.9910405278205872
1783002705939311900,3.381311767578125,-0.37329208850860596,0.0445948988199234,-0.8828104734420776
1783002705949363000,3.391363037109375,-0.24884337186813354,-0.019050655886530876,-0.7937218546867371
1783002705959415000,3.4014150390625,-0.12127982079982758,0.023184947669506073,-0.7141128182411194
1783002705969465900,3.4114658203125,-0.0016415724530816078,0.24890196323394775,-0.6544427871704102
1783002705979518000,3.42151806640625,0.10184860229492188,0.5610904693603516,-0.6292341351509094
1783002705989569800,3.43156982421875,0.21196071803569794,0.7970452308654785,-0.6047207713127136
1783002705999620900,3.441620849609375,0.3042062222957611,0.9023979902267456,-0.5506889820098877
1783002706009673200,3.451673095703125,0.370710164308548,0.8502514362335205,-0.4647088348865509
1783002706019723800,3.461723876953125,0.38409918546676636,0.7385938763618469,-0.3408721089363098
1783002706029776100,3.471776123046875,0.36835911870002747,0.6040012240409851,-0.19995732605457306
1783002706039827200,3.4818271484375,0.3241117596626282,0.39088574051856995,-0.0503675676882267
1783002706049879000,3.491879150390625,0.25558730959892273,0.12817128002643585,0.08856741338968277
1783002706059930000,3.50193017578125,0.1637553721666336,-0.13053910434246063,0.20612654089927673
1783002706069982000,3.51198193359375,0.06414409726858139,-0.3490549325942993,0.30955520272254944
1783002706080033000,3.522032958984375,-0.05206692963838577,-0.5014423131942749,0.4038428068161011
1783002706090085000,3.532085205078125,-0.1662728637456894,-0.5685252547264099,0.47962358593940735
1783002706100136000,3.542135986328125,-0.259346604347229,-0.5643904209136963,0.4977725148200989
1783002706110188000,3.55218798828125,-0.3099791705608368,-0.5096943974494934,0.4610576331615448
1783002706120239000,3.562239013671875,-0.3176621198654175,-0.36798280477523804,0.4053086042404175
1783002706130291000,3.572291015625,-0.2964324653148651,-0.18467290699481964,0.33101680874824524
1783002706140342000,3.582342041015625,-0.24526329338550568,-0.037998516112565994,0.24292422831058502
1783002706150393900,3.592393798828125,-0.17035415768623352,0.05281580984592438,0.13881699740886688
1783002706160445000,3.60244482421875,-0.07834993302822113,0.11619238555431366,0.056708019226789474
1783002706170497000,3.6124970703125,0.0030687605030834675,0.1690148562192917,-0.007182811852544546
1783002706180547800,3.6225478515625,0.06588900089263916,0.20919343829154968,-0.059655606746673584
1783002706190600000,3.632599853515625,0.11210229992866516,0.21744629740715027,-0.0913110077381134
1783002706200651000,3.642651123046875,0.12497522681951523,0.1936272531747818,-0.11018935590982437
1783002706210702800,3.652702880859375,0.11129803210496902,0.1440221518278122,-0.1446075141429901
1783002706220750600,3.66275048828125,0.08524592220783234,0.11555908620357513,-0.17445489764213562
1783002706230802400,3.672802490234375,0.040521327406167984,0.1133611798286438,-0.2181781381368637
1783002706240853500,3.682853515625,-0.018264491111040115,0.1414697766304016,-0.263821005821228
1783002706250905600,3.692905517578125,-0.06305832415819168,0.21309442818164825,-0.26448971033096313
1783002706260956400,3.702956298828125,-0.08522861450910568,0.3198464512825012,-0.2396397590637207
1783002706271008800,3.7130087890625,-0.07684391736984253,0.4037511944770813,-0.22000692784786224
1783002706281059800,3.723059814453125,-0.0474759042263031,0.4325828552246094,-0.2181006371974945
1783002706291111700,3.733111572265625,0.0031638352666050196,0.430704265832901,-0.2207166701555252
1783002706301162800,3.743162841796875,0.06388656795024872,0.4162677824497223,-0.23383645713329315
1783002706311214600,3.753214599609375,0.11993732303380966,0.39909759163856506,-0.22822731733322144
1783002706321265700,3.763265625,0.1637260764837265,0.36790239810943604,-0.1959756314754486
1783002706331317800,3.77331787109375,0.18735870718955994,0.3260473608970642,-0.15099990367889404
1783002706341368600,3.78336865234375,0.18278419971466064,0.2967104911804199,-0.12048833072185516
1783002706351420700,3.793420654296875,0.16912510991096497,0.2709910273551941,-0.09714199602603912
1783002706361471700,3.8034716796875,0.1447015255689621,0.24485714733600616,-0.0810684859752655
1783002706371523600,3.813523681640625,0.10552802681922913,0.2443426251411438,-0.08452899754047394
1783002706381574700,3.82357470703125,0.07082197815179825,0.24802498519420624,-0.09003561735153198
1783002706391626500,3.83362646484375,0.05865106359124184,0.25976818799972534,-0.0798247903585434
1783002706401678600,3.8436787109375,0.06443358212709427,0.26494351029396057,-0.05857196822762489
1783002706411729700,3.853729736328125,0.08049564063549042,0.24931102991104126,-0.036913011223077774
1783002706421781500,3.863781494140625,0.11522112786769867,0.2735162377357483,-0.002520149340853095
1783002706431832600,3.87383251953125,0.18048828840255737,0.37100523710250854,0.0876944288611412
1783002706441884400,3.883884521484375,0.23511691391468048,0.4520585536956787,0.20544131100177765
1783002706451935500,3.893935546875,0.2556685209274292,0.4651988446712494,0.27543291449546814
1783002706461987800,3.90398779296875,0.26928526163101196,0.40044966340065,0.29470646381378174
1783002706472038700,3.91403857421875,0.27406322956085205,0.23429346084594727,0.27021390199661255
1783002706482090800,3.9240908203125,0.24095934629440308,-0.012062255293130875,0.22841346263885498
1783002706492141800,3.934141845703125,0.17015495896339417,-0.19994720816612244,0.1969418227672577
1783002706502193700,3.944193603515625,0.09607433527708054,-0.2736304700374603,0.18097031116485596
1783002706512244700,3.95424462890625,0.025058748200535774,-0.312881201505661,0.14907923340797424
1783002706522296600,3.964296630859375,-0.04066646844148636,-0.3384012281894684,0.09884215891361237
1783002706532347600,3.97434765625,-0.10760954767465591,-0.3011918067932129,0.02268107794225216
1783002706542399700,3.984399658203125,-0.13642974197864532,-0.2281532734632492,-0.009820939041674137
1783002706552450600,3.994450439453125,-0.14720569550991058,-0.13503850996494293,0.008704009465873241
1783002706562502700,4.004502685546875,-0.12596938014030457,-0.071532242000103,0.05438068509101868
1783002706572553700,4.0145537109375,-0.08723130822181702,-0.08559080213308334,0.0853780135512352
1783002706582605600,4.02460546875,-0.047558195888996124,-0.13721510767936707,0.10235673189163208
1783002706592656600,4.03465673828125,-0.0008492820779792964,-0.12614941596984863,0.13597887754440308
1783002706602708500,4.04470849609375,0.05265628546476364,-0.06229612976312637,0.19474337995052338
1783002706612759600,4.054759521484375,0.10124433040618896,-0.029224997386336327,0.272007554769516
1783002706622811600,4.064811767578125,0.16102777421474457,-0.05044559761881828,0.35204511880874634
1783002706632862500,4.074862548828125,0.22269806265830994,-0.12226811796426773,0.42608606815338135
1783002706642914600,4.08491455078125,0.2692407965660095,-0.22328661382198334,0.475690633058548
1783002706652965600,4.094965576171875,0.29793021082878113,-0.31725624203681946,0.48845356702804565
1783002706663017700,4.105017822265625,0.3136540651321411,-0.3538355827331543,0.4517166018486023
1783002706673068500,4.115068603515625,0.3233162760734558,-0.34385883808135986,0.360699862241745
1783002706683120600,4.12512060546875,0.3383873701095581,-0.3640088438987732,0.2268770933151245
1783002706693171700,4.135171630859375,0.3363146185874939,-0.3860928416252136,0.061464693397283554
1783002706703223800,4.145223876953125,0.3100188374519348,-0.37668922543525696,-0.11775859445333481
1783002706713274600,4.155274658203125,0.27223870158195496,-0.3364424705505371,-0.27295297384262085
1783002706723326700,4.16532666015625,0.21279296278953552,-0.3045114278793335,-0.37069711089134216
1783002706733377800,4.175377685546875,0.16138675808906555,-0.33214545249938965,-0.4062604308128357
1783002706743429600,4.1854296875,0.11875168234109879,-0.37248995900154114,-0.3731325566768646
1783002706753480700,4.195480712890625,0.0838291198015213,-0.378670871257782,-0.27783000469207764
1783002706763532500,4.205532470703125,0.07478529214859009,-0.3263983428478241,-0.14914527535438538
1783002706773584600,4.215584716796875,0.0839867815375328,-0.2500343322753906,-0.003878627670928836
1783002706783635700,4.2256357421875,0.10375435650348663,-0.1900508999824524,0.10038705915212631
1783002706793687600,4.2356875,0.13374768197536469,-0.14024418592453003,0.13834908604621887
1783002706803738600,4.245738525390625,0.17984113097190857,-0.07391417026519775,0.13259586691856384
1783002706813790500,4.25579052734375,0.23151817917823792,0.01359543763101101,0.10489791631698608
1783002706823841500,4.265841552734375,0.2822226285934448,0.07503935694694519,0.07432616502046585
1783002706833893600,4.2758935546875,0.31890103220939636,0.11698920279741287,0.044204745441675186
1783002706843944400,4.2859443359375,0.3488738238811493,0.14981293678283691,0.02171914465725422
1783002706853996500,4.29599658203125,0.3726915419101715,0.17247642576694489,0.014679609797894955
1783002706864047600,4.306047607421875,0.3926713764667511,0.22505974769592285,0.009950102306902409
1783002706874099700,4.316099609375,0.4008028209209442,0.28059011697769165,-0.003932157531380653
1783002706884150800,4.32615087890625,0.3849585950374603,0.25419899821281433,-0.04682156816124916
1783002706894202600,4.33620263671875,0.34399306774139404,0.14959454536437988,-0.10492561757564545
1783002706904253700,4.346253662109375,0.27296122908592224,0.010990865528583527,-0.1749715507030487
1783002706914305800,4.356305908203125,0.17085030674934387,-0.09912685304880142,-0.2623346745967865
1783002706924356600,4.366356689453125,0.0601608082652092,-0.1717083752155304,-0.3475624918937683
1783002706934408700,4.37640869140625,-0.041260089725255966,-0.2031664401292801,-0.3915954530239105
1783002706944459800,4.386459716796875,-0.11103411018848419,-0.22934477031230927,-0.4030872583389282
1783002706954511600,4.39651171875,-0.1537293791770935,-0.22305890917778015,-0.3956184387207031
1783002706964562700,4.406562744140625,-0.15777525305747986,-0.1316879838705063,-0.3703514337539673
1783002706974614500,4.416614501953125,-0.12216398864984512,-0.014700116589665413,-0.3431203365325928
1783002706984665600,4.42666552734375,-0.06921875476837158,0.032585375010967255,-0.33489570021629333
1783002706994717700,4.4367177734375,-0.03175979480147362,-0.018079668283462524,-0.36083462834358215
1783002707004768500,4.4467685546875,-0.01858806610107422,-0.07363080978393555,-0.40430086851119995
1783002707014820600,4.456820556640625,-0.012681440450251102,-0.057316020131111145,-0.4115254878997803
1783002707024871700,4.46687158203125,-0.014071344397962093,-0.03780463710427284,-0.38616129755973816
1783002707034923500,4.476923583984375,-0.018639463931322098,-0.035529766231775284,-0.3436676263809204
1783002707044974600,4.486974609375,-0.03267991542816162,-0.04310192912817001,-0.3107757270336151
1783002707055026400,4.4970263671875,-0.05762201547622681,-0.06628581136465073,-0.30907610058784485
1783002707065077500,4.507077392578125,-0.1031721904873848,-0.05347680673003197,-0.29476451873779297
1783002707075129900,4.5171298828125,-0.13811659812927246,0.035784363746643066,-0.22614924609661102
1783002707085180400,4.527180419921875,-0.15841573476791382,0.12613129615783691,-0.12732386589050293
1783002707095232800,4.537232666015625,-0.16925427317619324,0.13270185887813568,-0.02953472174704075
1783002707105283800,4.547283935546875,-0.17131848633289337,0.06302983313798904,0.02322036772966385
1783002707115335700,4.557335693359375,-0.16140539944171906,-0.007056311704218388,0.04136155545711517
1783002707125386800,4.56738671875,-0.14350417256355286,-0.04778936132788658,0.04902133718132973
1783002707135438600,4.5774384765625,-0.11961960792541504,-0.0797390341758728,0.053756438195705414
1783002707145489700,4.58748974609375,-0.10278363525867462,-0.11628533154726028,0.05230661481618881
1783002707155541800,4.597541748046875,-0.09756304323673248,-0.14811649918556213,0.03303731232881546
1783002707165593600,4.607593505859375,-0.1109965592622757,-0.19593675434589386,0.01901070959866047
1783002707175644700,4.617644775390625,-0.12696248292922974,-0.16285789012908936,0.02953951619565487
1783002707185696500,4.627696533203125,-0.1411065310239792,-0.0783853530883789,0.05251380801200867
1783002707195747600,4.63774755859375,-0.16187705099582672,-0.07279111444950104,0.05542357638478279
1783002707205799700,4.647799560546875,-0.17481975257396698,-0.14836975932121277,0.05501318350434303
1783002707215850500,4.6578505859375,-0.18361057341098785,-0.21738319098949432,0.07458848506212234
1783002707225902800,4.66790283203125,-0.19347065687179565,-0.24773629009723663,0.11976262181997299
1783002707235954000,4.677953857421875,-0.1982443779706955,-0.25128069519996643,0.18040359020233154
1783002707246005800,4.688005859375,-0.1823791265487671,-0.27059128880500793,0.23607803881168365
1783002707256056800,4.698056884765625,-0.15174159407615662,-0.30348503589630127,0.27489975094795227
1783002707266109000,4.70810888671875,-0.10991984605789185,-0.27557966113090515,0.33102959394454956
1783002707276159700,4.71815966796875,-0.07721515744924545,-0.18554696440696716,0.3841356933116913
1783002707286211800,4.7282119140625,-0.08359396457672119,-0.21102409064769745,0.37516161799430847
1783002707296263000,4.738262939453125,-0.13074283301830292,-0.31169265508651733,0.2611141502857208
1783002707306315000,4.74831494140625,-0.1675754189491272,-0.3627086877822876,0.09308680146932602
1783002707316366000,4.758365966796875,-0.18974703550338745,-0.3277350068092346,-0.08163973689079285
1783002707326418000,4.76841796875,-0.22141601145267487,-0.2558189928531647,-0.24849529564380646
1783002707336469000,4.778468994140625,-0.2652335464954376,-0.18960082530975342,-0.3686177134513855
1783002707346520800,4.788520751953125,-0.30082374811172485,-0.11827631294727325,-0.4212854504585266
1783002707356572000,4.798572021484375,-0.3145856261253357,-0.05337214469909668,-0.4109284281730652
1783002707366624000,4.8086240234375,-0.3193119466304779,-0.02292848564684391,-0.33942973613739014
1783002707376674800,4.8186748046875,-0.30356335639953613,-0.011344267055392265,-0.22408689558506012
1783002707386727000,4.828726806640625,-0.2599295675754547,-0.005714877508580685,-0.11365572363138199
1783002707396778000,4.838778076171875,-0.20613506436347961,-0.04276743903756142,-0.04956089332699776
1783002707406829800,4.848829833984375,-0.15340766310691833,-0.12841682136058807,-0.03518621623516083
1783002707416881000,4.858880859375,-0.10138734430074692,-0.2281831055879593,-0.03462189435958862
1783002707426932700,4.8689326171875,-0.0465049184858799,-0.27393248677253723,-0.036446958780288696
1783002707436983800,4.87898388671875,-0.005282646510750055,-0.2533893883228302,-0.0341758131980896
1783002707447036000,4.889035888671875,0.030345389619469643,-0.17402319610118866,-0.001499625970609486
1783002707457086700,4.899086669921875,0.038417696952819824,-0.10842873901128769,0.04470861703157425
1783002707467138800,4.909138916015625,0.049194708466529846,-0.06215072423219681,0.11961881071329117
1783002707477190000,4.91918994140625,0.06935936957597733,0.0009195895399898291,0.20882272720336914
1783002707487242000,4.929241943359375,0.08992749452590942,0.052802495658397675,0.28820863366127014
1783002707497293000,4.93929296875,0.0976642444729805,0.0507473349571228,0.3363111615180969
1783002707507345000,4.949344970703125,0.10017719864845276,0.03206845372915268,0.3487822115421295
1783002707517397000,4.95939697265625,0.1014360785484314,-0.00675244489684701,0.32801541686058044
1783002707527448000,4.969447998046875,0.08947901427745819,-0.0844629555940628,0.2652018368244171
1783002707537500000,4.9795,0.05207012593746185,-0.16193723678588867,0.1657828390598297
1783002707547551000,4.989551025390625,-0.004712196998298168,-0.18033355474472046,0.059541624039411545
1783002707557602800,4.999602783203125,-0.05964921414852142,-0.14591512084007263,-0.016389092430472374
1783002707567654000,5.00965380859375,-0.11319313198328018,-0.07576373964548111,-0.0502525195479393
1783002707577706000,5.0197060546875,-0.1587715446949005,0.015253521502017975,-0.043416980654001236
1783002707587756800,5.0297568359375,-0.1990704983472824,0.11647254973649979,-0.012706474401056767
1783002707597809000,5.039808837890625,-0.19865024089813232,0.2008686512708664,0.011687282472848892
1783002707607860000,5.04985986328125,-0.1505221277475357,0.24101927876472473,0.028904885053634644
1783002707617911800,5.059911865234375,-0.08155398070812225,0.2996959090232849,0.025304025039076805
1783002707627963000,5.069962890625,-0.012869193218648434,0.33921241760253906,-0.017042366787791252
1783002707638014700,5.0800146484375,0.023865384981036186,0.32593175768852234,-0.10767213255167007
1783002707648065800,5.090065673828125,0.03851543366909027,0.26329687237739563,-0.21357086300849915
1783002707658118000,5.100117919921875,0.02208399772644043,0.18283772468566895,-0.29119694232940674
1783002707668168700,5.110168701171875,-0.016680177301168442,0.1380297690629959,-0.3236643373966217
1783002707678221000,5.120220947265625,-0.055811867117881775,0.16423527896404266,-0.31521865725517273
1783002707688272000,5.13027197265625,-0.09231608361005783,0.20430625975131989,-0.2989664673805237
1783002707698324000,5.140323974609375,-0.11037204414606094,0.19955198466777802,-0.27303579449653625
1783002707708375000,5.150375,-0.10522522032260895,0.1609145849943161,-0.26056286692619324
1783002707718427000,5.160427001953125,-0.0736854076385498,0.14875511825084686,-0.25002527236938477
1783002707728478000,5.17047802734375,-0.03231639415025711,0.165815070271492,-0.22813889384269714
1783002707738530000,5.180530029296875,0.01110671367496252,0.18586760759353638,-0.22510315477848053
1783002707748580900,5.190580810546875,0.04658108577132225,0.1609840989112854,-0.25180959701538086
1783002707758633000,5.200633056640625,0.04264306649565697,0.056784987449645996,-0.29649797081947327
1783002707768684000,5.21068408203125,-0.035884495824575424,-0.09916892647743225,-0.32648995518684387
1783002707778735900,5.22073583984375,-0.15131868422031403,-0.15975823998451233,-0.2862727642059326
1783002707788787000,5.230786865234375,-0.24600684642791748,-0.05608377605676651,-0.17485196888446808
1783002707798838800,5.2408388671875,-0.29102572798728943,0.10780476033687592,-0.07234237343072891
1783002707808889900,5.250889892578125,-0.28285008668899536,0.21896056830883026,-0.03400883451104164
1783002707818942000,5.26094189453125,-0.23124174773693085,0.2849577069282532,-0.0642373114824295
1783002707828992800,5.27099267578125,-0.14432601630687714,0.34460026025772095,-0.12806715071201324
1783002707839044900,5.281044921875,-0.05504141375422478,0.38835838437080383,-0.22016645967960358
1783002707849096000,5.291095947265625,0.0224392618983984,0.34758487343788147,-0.3251061737537384
1783002707859147800,5.301147705078125,0.06461840867996216,0.19883880019187927,-0.3918133080005646
1783002707869200000,5.311199951171875,0.07870519906282425,0.04534564167261124,-0.3700544834136963
1783002707879250700,5.321250732421875,0.07340790331363678,-0.05453221872448921,-0.2811592221260071
1783002707889303000,5.331302978515625,0.042690739035606384,-0.0850248783826828,-0.1696995496749878
1783002707899353900,5.341353759765625,0.003710316028445959,-0.09983338415622711,-0.09240210056304932
1783002707909406000,5.351406005859375,-0.05044399946928024,-0.11239205300807953,-0.043476901948451996
1783002707919457000,5.36145703125,-0.12580452859401703,-0.11222054809331894,0.010100571438670158
1783002707929508900,5.3715087890625,-0.22428050637245178,-0.07070852071046829,0.10252691060304642
1783002707939560000,5.381559814453125,-0.33322349190711975,0.024818263947963715,0.25176671147346497
1783002707949611800,5.39161181640625,-0.41092202067375183,0.18199217319488525,0.4162105321884155
1783002707959662800,5.401662841796875,-0.44529199600219727,0.3853663206100464,0.5306769013404846
1783002707969715000,5.41171484375,-0.4114764928817749,0.5325390100479126,0.5620337724685669
1783002707979766000,5.42176611328125,-0.30255240201950073,0.6074217557907104,0.5111002922058105
1783002707989817900,5.43181787109375,-0.15171761810779572,0.6644368767738342,0.43323320150375366
1783002707999869000,5.441868896484375,0.0011001517996191978,0.7205861210823059,0.3835069239139557
1783002708009920800,5.451920654296875,0.14185354113578796,0.7681006789207458,0.3936338424682617
1783002708019971800,5.461971923828125,0.2499762773513794,0.787226676940918,0.4350348114967346
1783002708030024000,5.47202392578125,0.30957597494125366,0.7753487229347229,0.4503147006034851
1783002708040074800,5.48207470703125,0.32670488953590393,0.7874743342399597,0.399105042219162
1783002708050126800,5.492126953125,0.31630951166152954,0.7939050793647766,0.2851918041706085
1783002708060178000,5.502177978515625,0.2788955569267273,0.75022953748703,0.16582198441028595
1783002708070229800,5.512229736328125,0.2185717523097992,0.7046471238136292,0.10631951689720154
1783002708080280800,5.52228076171875,0.14508022367954254,0.6427794694900513,0.11609011888504028
1783002708090333000,5.5323330078125,0.06924618035554886,0.5297636985778809,0.16827289760112762
1783002708100384000,5.542384033203125,0.0030131004750728607,0.39388951659202576,0.2810194194316864
1783002708110435800,5.552435791015625,-0.028505410999059677,0.2835233211517334,0.4186558425426483
1783002708120487000,5.56248681640625,-0.01161431148648262,0.22510528564453125,0.542747974395752
1783002708130539000,5.5725390625,0.06278987973928452,0.20570442080497742,0.594671368598938
1783002708140590000,5.582590087890625,0.19762253761291504,0.19051802158355713,0.5444619655609131
1783002708150642000,5.592641845703125,0.3572697043418884,0.223402202129364,0.4174416959285736
1783002708160693000,5.60269287109375,0.4850548505783081,0.28889545798301697,0.2623128294944763
1783002708170744800,5.612744873046875,0.5356775522232056,0.3133384883403778,0.11748242378234863
1783002708180796000,5.6227958984375,0.5133642554283142,0.24758769571781158,0.015934757888317108
1783002708190848000,5.632847900390625,0.45937398076057434,0.2173815816640854,0.01792999729514122
1783002708200898800,5.64289892578125,0.4545257091522217,0.4374854564666748,0.1566133052110672
1783002708210951000,5.652950927734375,0.47772741317749023,0.6983879208564758,0.312241792678833
1783002708221006600,5.663006591796875,0.5069167017936707,0.7890549302101135,0.39922913908958435
1783002708231057700,5.6730576171875,0.5512732863426208,0.5902100205421448,0.44797512888908386
1783002708241109500,5.683109619140625,0.5782060623168945,0.18306995928287506,0.5341022610664368
1783002708251160600,5.69316064453125,0.527794599533081,-0.24379268288612366,0.6517125368118286
1783002708261212700,5.703212646484375,0.3948197662830353,-0.5112302303314209,0.8253112435340881
1783002708271263500,5.713263427734375,0.2250501662492752,-0.4599934220314026,1.0138273239135742
1783002708281315600,5.723315673828125,0.05903269350528717,-0.13192953169345856,1.342290997505188
1783002708291366700,5.73336669921875,0.02786598540842533,-0.15318208932876587,1.265045404434204
1783002708301418500,5.74341845703125,0.10639568418264389,-0.29109281301498413,0.8470572829246521
1783002708311469600,5.753469482421875,0.22327277064323425,-0.3366536498069763,0.4685371220111847
1783002708321521400,5.763521484375,0.3863216042518616,-0.26844078302383423,0.28235313296318054
1783002708331572500,5.773572509765625,0.5825904607772827,-0.1290101855993271,0.17400801181793213
1783002708341624800,5.783624755859375,0.7626824378967285,0.02815786749124527,0.0813065767288208
1783002708351675600,5.793675537109375,0.9234388470649719,0.27369120717048645,0.10559460520744324
1783002708361727700,5.803727783203125,1.0619453191757202,0.5471139550209045,0.25212812423706055
1783002708371778800,5.81377880859375,1.0839544534683228,0.7089443802833557,0.41854265332221985
1783002708381830700,5.82383056640625,1.0543601512908936,0.7350463271141052,0.5111485123634338
