time,seconds_elapsed,z,y,x
1783002702651213300,0.09321337890625,0.20612579584121704,0.0898522362112999,-0.06721998006105423
1783002702661264400,0.103264404296875,0.1610727310180664,-0.04866175353527069,0.0025524720549583435
1783002702671316700,0.113316650390625,0.14066626131534576,-0.08679874986410141,0.06622279435396194
1783002702681367300,0.1233671875,0.11054448038339615,-0.06599912792444229,0.10144315659999847
1783002702691419600,0.133419677734375,0.08603807538747787,-0.08942748606204987,0.057099394500255585
1783002702701470700,0.143470703125,0.0780489519238472,-0.13397572934627533,-0.08413286507129669
1783002702711522600,0.1535224609375,0.08900280296802521,-0.16280151903629303,-0.28978562355041504
1783002702721573600,0.16357373046875,0.11162810772657394,-0.1416892111301422,-0.48998820781707764
1783002702731625500,0.17362548828125,0.12620598077774048,-0.04144943505525589,-0.6334726810455322
1783002702741676500,0.183676513671875,0.13401982188224792,0.059500791132450104,-0.748174250125885
1783002702751728600,0.193728759765625,0.13337533175945282,0.09923062473535538,-0.8456315398216248
1783002702761779500,0.203779541015625,0.11678846925497055,0.08028222620487213,-0.9032040238380432
1783002702771831600,0.21383154296875,0.09463496506214142,0.03965330868959427,-0.8798432946205139
1783002702781882600,0.223882568359375,0.06798716634511948,0.0634094625711441,-0.7648972272872925
1783002702791934500,0.2339345703125,0.05951911583542824,0.16922856867313385,-0.5959646701812744
1783002702801985500,0.243985595703125,0.0752689316868782,0.2651592493057251,-0.42896485328674316
1783002702812037400,0.254037353515625,0.09158505499362946,0.2544376254081726,-0.3245401680469513
1783002702822088400,0.26408837890625,0.09278906881809235,0.1430184245109558,-0.2902575433254242
1783002702832140500,0.274140625,0.08649255335330963,0.0057135578244924545,-0.28792914748191833
1783002702842191400,0.28419140625,0.06873945146799088,-0.08018743991851807,-0.28646960854530334
1783002702852243500,0.294243408203125,0.046953730285167694,-0.08451028168201447,-0.2742187976837158
1783002702862294500,0.30429443359375,0.017476193606853485,-0.06914812326431274,-0.2519524395465851
1783002702872346400,0.314346435546875,-0.013644176535308361,-0.05356384068727493,-0.23298966884613037
1783002702882397400,0.3243974609375,-0.04094700142741203,-0.013550162315368652,-0.2108667641878128
1783002702892449500,0.334449462890625,-0.05692650005221367,0.04534990340471268,-0.196991428732872
1783002702902500400,0.344500244140625,-0.06973213702440262,0.06976903229951859,-0.21120572090148926
1783002702912552700,0.354552734375,-0.08349961787462234,0.047133494168519974,-0.24728915095329285
1783002702922603500,0.364603515625,-0.09663886576890945,0.04272850230336189,-0.269681841135025
1783002702932655600,0.374655517578125,-0.10997144877910614,0.07652002573013306,-0.28143277764320374
1783002702942706700,0.384706787109375,-0.13362878561019897,0.10349765419960022,-0.28483280539512634
1783002702952758500,0.394758544921875,-0.1561463475227356,0.08793840557336807,-0.2721383273601532
1783002702962809600,0.4048095703125,-0.1725032776594162,0.07000315934419632,-0.2475159913301468
1783002702972861400,0.414861328125,-0.17390622198581696,0.079021155834198,-0.1999220997095108
1783002702982912500,0.42491259765625,-0.17673780024051666,0.07068504393100739,-0.15332622826099396
1783002702992964600,0.434964599609375,-0.17129696905612946,0.04625692963600159,-0.11165975034236908
1783002703003015400,0.445015380859375,-0.15362463891506195,0.01720941625535488,-0.08187489956617355
1783002703013067500,0.455067626953125,-0.13020160794258118,-0.0007882260251790285,-0.0545913465321064
1783002703023118600,0.46511865234375,-0.12341523915529251,-0.013383980840444565,-0.045022934675216675
1783002703033170400,0.47517041015625,-0.1343214213848114,0.013706225901842117,-0.0373503640294075
1783002703043221500,0.485221435546875,-0.1380917727947235,0.1150558590888977,-0.03198742866516113
1783002703053273300,0.4952734375,-0.1265416443347931,0.243584543466568,-0.039750806987285614
1783002703063324400,0.505324462890625,-0.11397092044353485,0.31331679224967957,-0.044415704905986786
1783002703073376500,0.51537646484375,-0.10797135531902313,0.29712024331092834,-0.03114756941795349
1783002703083427300,0.52542724609375,-0.09553876519203186,0.2508887052536011,-0.0027906293980777264
1783002703093479400,0.5354794921875,-0.07714484632015228,0.2088208645582199,0.036968767642974854
1783002703103530500,0.545530517578125,-0.08257805556058884,0.16438555717468262,0.07364801317453384
1783002703113582600,0.55558251953125,-0.09180191159248352,0.12468316406011581,0.09645425528287888
1783002703123633700,0.565633544921875,-0.11823244392871857,0.08988985419273376,0.11374020576477051
1783002703133685500,0.575685546875,-0.1560107171535492,0.06007124111056328,0.143053337931633
1783002703143736600,0.585736572265625,-0.19305962324142456,0.05213744938373566,0.19847823679447174
1783002703153788700,0.59578857421875,-0.21174356341362,0.10081017762422562,0.26430651545524597
1783002703163839500,0.605839599609375,-0.20024429261684418,0.15434926748275757,0.30833277106285095
1783002703173891600,0.6158916015625,-0.16167932748794556,0.190778911113739,0.3007885813713074
1783002703183942700,0.625942626953125,-0.09631743282079697,0.22437812387943268,0.2661665678024292
1783002703193994500,0.635994384765625,-0.02406321093440056,0.25093865394592285,0.20812085270881653
1783002703204045600,0.646045654296875,0.016464926302433014,0.21474812924861908,0.08458437770605087
1783002703214097400,0.656097412109375,0.030076608061790466,0.17701326310634613,-0.07054129987955093
1783002703224145000,0.666144775390625,0.023733682930469513,0.1786363124847412,-0.21328440308570862
1783002703234197000,0.676197021484375,-0.0004203882999718189,0.21053645014762878,-0.33942848443984985
1783002703244247800,0.686247802734375,-0.041919782757759094,0.22324347496032715,-0.44770318269729614
1783002703254300200,0.696300048828125,-0.08294524997472763,0.20983339846134186,-0.5249199867248535
1783002703264351000,0.70635107421875,-0.13243302702903748,0.1503482311964035,-0.5613580346107483
1783002703274403000,0.716403076171875,-0.1962820440530777,0.0872851088643074,-0.5169482231140137
1783002703284454100,0.7264541015625,-0.25811031460762024,0.08306455612182617,-0.4229809045791626
1783002703294506000,0.736506103515625,-0.2909920811653137,0.07766179740428925,-0.29700326919555664
1783002703304557000,0.74655712890625,-0.29026108980178833,0.017495833337306976,-0.13324439525604248
1783002703314609200,0.756609130859375,-0.24704089760780334,0.011826494708657265,0.08573083579540253
1783002703324660000,0.766659912109375,-0.1840471774339676,0.08824906498193741,0.2866304814815521
1783002703334712000,0.776712158203125,-0.11891105771064758,0.11795157194137573,0.3418276906013489
1783002703344763100,0.78676318359375,-0.044360965490341187,0.07526593655347824,0.2769339084625244
1783002703354815000,0.79681494140625,0.025744883343577385,0.038995012640953064,0.1719859093427658
1783002703364866000,0.806865966796875,0.08338925242424011,0.04186678305268288,0.10007698833942413
1783002703374918000,0.81691796875,0.11142221838235855,0.07747085392475128,0.09224037081003189
1783002703384969000,0.826968994140625,0.12332872301340103,0.12673357129096985,0.14548571407794952
1783002703395021000,0.83702099609375,0.13064070045948029,0.18966007232666016,0.2559802532196045
1783002703405072000,0.84707177734375,0.1253083348274231,0.26850929856300354,0.36658182740211487
1783002703415124000,0.8571240234375,0.12130135297775269,0.3279467821121216,0.4380655884742737
1783002703425175000,0.867175048828125,0.12245403975248337,0.35180190205574036,0.4565243422985077
1783002703435227000,0.877226806640625,0.12121833860874176,0.2970832586288452,0.4151047468185425
1783002703445278000,0.88727783203125,0.10820882022380829,0.13567565381526947,0.3324435353279114
1783002703455329800,0.897329833984375,0.07654037326574326,-0.054641298949718475,0.25593411922454834
1783002703465380900,0.907380859375,0.022313691675662994,-0.17463372647762299,0.2353607416152954
1783002703475433200,0.91743310546875,-0.03548409417271614,-0.23798047006130219,0.2627963721752167
1783002703485484000,0.927484130859375,-0.08079364150762558,-0.2586994469165802,0.2834504544734955
1783002703495536000,0.9375361328125,-0.09738220274448395,-0.27857860922813416,0.2707439661026001
1783002703505587200,0.947587158203125,-0.0992979034781456,-0.29800114035606384,0.2298865020275116
1783002703515639000,0.95763916015625,-0.08998110145330429,-0.3009175658226013,0.1559813916683197
1783002703525690000,0.967690185546875,-0.07131685316562653,-0.3088151216506958,0.07521619647741318
1783002703535742000,0.977741943359375,-0.053199902176856995,-0.2726145088672638,0.010623891837894917
1783002703545793000,0.98779296875,-0.029920196160674095,-0.19015538692474365,-0.020333461463451385
1783002703555845000,0.99784521484375,-0.018063804134726524,-0.0941668152809143,-0.005742001812905073
1783002703565896000,1.00789599609375,-0.024945992976427078,-0.0024649747647345066,0.036830391734838486
1783002703575948000,1.017947998046875,-0.038531314581632614,0.08501294255256653,0.09154850244522095
1783002703585999000,1.0279990234375,-0.05016530305147171,0.16511079668998718,0.15716128051280975
1783002703596051000,1.038051025390625,-0.053562697023153305,0.2123376876115799,0.20928360521793365
1783002703606102000,1.04810205078125,-0.05697841942310333,0.2134408801794052,0.2194611132144928
1783002703616153900,1.05815380859375,-0.03919915854930878,0.16439823806285858,0.19380022585391998
1783002703626205000,1.068204833984375,-0.023500913754105568,0.08058342337608337,0.14862307906150818
1783002703636257000,1.078257080078125,-0.011624546721577644,0.03651769831776619,0.090575210750103
1783002703646307800,1.088307861328125,-0.010172925889492035,0.06482136994600296,0.028895217925310135
1783002703656360000,1.09835986328125,-0.012905063107609749,0.10427290201187134,-0.003754072356969118
1783002703666411000,1.108410888671875,-0.015329280868172646,0.10470705479383469,-0.01910996064543724
1783002703676462800,1.118462890625,-0.012693548575043678,0.0794064924120903,0.003238220699131489
1783002703686514000,1.128513916015625,0.01650332659482956,0.07906614989042282,0.05662916973233223
1783002703696566000,1.13856591796875,0.053481049835681915,0.09935677796602249,0.11613483726978302
1783002703706617000,1.1486171875,0.09520155936479568,0.07740061730146408,0.14997954666614532
1783002703716669200,1.158669189453125,0.13224773108959198,0.008386394008994102,0.15904627740383148
1783002703726720000,1.168719970703125,0.16492240130901337,-0.08065279573202133,0.1339559704065323
1783002703736772000,1.178772216796875,0.18794941902160645,-0.1404399573802948,0.07759255915880203
1783002703746823200,1.1888232421875,0.20110252499580383,-0.15425360202789307,0.005782397463917732
1783002703756875000,1.198875,0.19988706707954407,-0.1404925137758255,-0.08292003720998764
1783002703766926000,1.208926025390625,0.1848107874393463,-0.13192524015903473,-0.1764708161354065
1783002703776978000,1.21897802734375,0.1653188318014145,-0.1377493143081665,-0.24716496467590332
1783002703787029000,1.229029052734375,0.12991084158420563,-0.12529030442237854,-0.2877098619937897
1783002703797081000,1.2390810546875,0.10488591343164444,-0.1119055226445198,-0.3014184832572937
1783002703807132000,1.2491318359375,0.08326214551925659,-0.12212482839822769,-0.27044764161109924
1783002703817184000,1.25918408203125,0.06428578495979309,-0.13206827640533447,-0.1898380070924759
1783002703827235000,1.269235107421875,0.05565760284662247,-0.12891323864459991,-0.10911662876605988
1783002703837287000,1.279286865234375,0.0656585693359375,-0.13693973422050476,-0.07545480132102966
1783002703847338000,1.289337890625,0.09122750908136368,-0.17170797288417816,-0.10117466747760773
1783002703857389800,1.299389892578125,0.11492405086755753,-0.23242245614528656,-0.1722262054681778
1783002703867441000,1.30944091796875,0.12497196346521378,-0.2718369662761688,-0.24483853578567505
1783002703877493000,1.319492919921875,0.11987307667732239,-0.2660214304924011,-0.2887852191925049
1783002703887543800,1.329543701171875,0.11562265455722809,-0.24203242361545563,-0.2984665334224701
1783002703897596200,1.33959619140625,0.09694191068410873,-0.25226056575775146,-0.29482996463775635
1783002703907647000,1.34964697265625,0.056977976113557816,-0.31553056836128235,-0.28250852227211
1783002703917699000,1.359698974609375,0.009580099955201149,-0.37647247314453125,-0.23956292867660522
1783002703927750100,1.369750244140625,-0.032758962363004684,-0.27470988035202026,-0.15557676553726196
1783002703937802000,1.379802001953125,-0.05200349912047386,-0.06194194033741951,-0.051847442984580994
1783002703947853000,1.38985302734375,-0.053504060953855515,0.06532783061265945,0.028078898787498474
1783002703957905200,1.3999052734375,-0.03878450393676758,0.03169157728552818,0.10258189588785172
1783002703967956000,1.4099560546875,-0.01789047196507454,-0.04211493954062462,0.17677342891693115
1783002703978008000,1.420008056640625,-0.0049056969583034515,-0.08316383510828018,0.24088796973228455
1783002703988059100,1.43005908203125,0.005143589340150356,-0.13639387488365173,0.2938368022441864
1783002703998111000,1.440111083984375,0.027956757694482803,-0.17441636323928833,0.35883843898773193
1783002704008162000,1.450162109375,0.03508248180150986,-0.16957078874111176,0.42887082695961
1783002704018214000,1.4602138671875,-0.007972575724124908,-0.15242882072925568,0.444418340921402
1783002704028265000,1.470264892578125,-0.09760818630456924,-0.16015732288360596,0.37005969882011414
1783002704038317000,1.480317138671875,-0.1875458061695099,-0.15400062501430511,0.2345958799123764
1783002704048367900,1.490367919921875,-0.24920469522476196,-0.16009798645973206,0.10271918028593063
1783002704058420000,1.500419921875,-0.29989662766456604,-0.10296279191970825,0.04306330904364586
1783002704068471000,1.510470947265625,-0.3474956750869751,-0.034897249191999435,0.007455278187990189
1783002704078523000,1.52052294921875,-0.37539228796958923,-0.013770656660199165,-0.035117216408252716
1783002704088574000,1.530573974609375,-0.36276495456695557,-0.001435567857697606,-0.0700981467962265
1783002704098625800,1.540625732421875,-0.3202561140060425,0.06704922020435333,-0.07744287699460983
1783002704108676900,1.5506767578125,-0.24554069340229034,0.18274854123592377,-0.01347194705158472
1783002704118729200,1.560729248046875,-0.16561205685138702,0.30532532930374146,0.10238887369632721
1783002704128779800,1.57077978515625,-0.10457392781972885,0.36928221583366394,0.22321924567222595
1783002704138832100,1.58083203125,-0.05162708833813667,0.43542128801345825,0.3210826814174652
1783002704148883200,1.59088330078125,0.013945134356617928,0.4562179446220398,0.3726651072502136
1783002704158935000,1.60093505859375,0.059124600142240524,0.425723135471344,0.34132182598114014
1783002704168986000,1.610986083984375,0.10064822435379028,0.35374656319618225,0.2375655472278595
1783002704179038000,1.621037841796875,0.13601553440093994,0.25268518924713135,0.1441280096769333
1783002704189089000,1.631089111328125,0.1511273980140686,0.1267160177230835,0.11258884519338608
1783002704199141000,1.64114111328125,0.15327763557434082,0.04266238585114479,0.15857097506523132
1783002704209192000,1.65119189453125,0.1464269608259201,0.058756276965141296,0.27404117584228516
1783002704219244000,1.661244140625,0.13843347132205963,0.10400897264480591,0.4120027720928192
1783002704229294800,1.671294921875,0.14586123824119568,0.13662412762641907,0.5135132670402527
1783002704239346700,1.6813466796875,0.16629700362682343,0.1393490731716156,0.5527719855308533
1783002704249397800,1.691397705078125,0.2048608511686325,0.14515019953250885,0.5420039296150208
1783002704259449600,1.70144970703125,0.2518027722835541,0.18240569531917572,0.4811759889125824
1783002704269500700,1.711500732421875,0.29478350281715393,0.22758182883262634,0.3733852803707123
1783002704279552800,1.721552734375,0.31381258368492126,0.21748605370521545,0.21666039526462555
1783002704289603600,1.731603515625,0.30584025382995605,0.15907643735408783,0.033133845776319504
1783002704299655700,1.74165576171875,0.27824220061302185,0.10404673218727112,-0.1420278549194336
1783002704309706800,1.751706787109375,0.23564304411411285,0.06753122806549072,-0.2839776873588562
1783002704319758600,1.761758544921875,0.17887748777866364,0.021344561129808426,-0.4036844074726105
1783002704329809700,1.7718095703125,0.11316461116075516,-0.054500121623277664,-0.5094000697135925
1783002704339861800,1.78186181640625,0.06761389970779419,-0.11979204416275024,-0.5637024641036987
1783002704349912600,1.79191259765625,0.043780550360679626,-0.1056748777627945,-0.5457300543785095
1783002704359965000,1.80196484375,0.028592010959982872,-0.03945937007665634,-0.46580779552459717
1783002704370015700,1.812015625,0.02145521529018879,0.029368208721280098,-0.3425087332725525
1783002704380067800,1.82206787109375,0.01730707660317421,0.09498237073421478,-0.18982358276844025
1783002704390119000,1.832118896484375,0.011980151757597923,0.14397120475769043,-0.04715920239686966
1783002704400170800,1.842170654296875,0.00696834921836853,0.12510697543621063,0.060021575540304184
1783002704410221800,1.852221923828125,0.009720981121063232,0.03751857206225395,0.1173480674624443
1783002704420273700,1.862273681640625,0.008001111447811127,-0.04402901604771614,0.15789282321929932
1783002704430324700,1.87232470703125,0.0180771816521883,-0.08644917607307434,0.20228105783462524
1783002704440376800,1.882376953125,0.028531687334179878,-0.09614601731300354,0.24427324533462524
1783002704450427600,1.892427734375,0.037025757133960724,-0.09937640279531479,0.2759019732475281
1783002704460479700,1.902479736328125,0.04397714138031006,-0.10014605522155762,0.28056013584136963
1783002704470530800,1.91253076171875,0.044647879898548126,-0.08667008578777313,0.2642843723297119
1783002704480582700,1.922582763671875,0.04567452892661095,-0.05777611583471298,0.21787185966968536
1783002704490633700,1.9326337890625,0.04835166037082672,-0.0198680367320776,0.15157438814640045
1783002704500685600,1.942685546875,0.05034050717949867,-0.016514848917722702,0.08449441194534302
1783002704510736600,1.952736572265625,0.05260949954390526,-0.010803084820508957,0.04518843814730644
1783002704520788700,1.962788818359375,0.05705724284052849,0.023854227736592293,0.03336426988244057
1783002704530839800,1.97283984375,0.057101279497146606,0.03605356812477112,0.04281789809465408
1783002704540891600,1.9828916015625,0.06263399124145508,0.03017011284828186,0.05807061865925789
1783002704550942700,1.992942626953125,0.06974814087152481,0.02432287111878395,0.0757351741194725
1783002704560994800,2.002994873046875,0.08934687077999115,0.03299252316355705,0.10325441509485245
1783002704571046000,2.0130458984375,0.1266379952430725,0.02381988801062107,0.13143472373485565
1783002704581097700,2.02309765625,0.1540515124797821,-0.012997248210012913,0.14894580841064453
1783002704591148800,2.033148681640625,0.17449332773685455,-0.03944990783929825,0.1371724158525467
1783002704601201000,2.043200927734375,0.1813776046037674,-0.017347004264593124,0.10557321459054947
1783002704611251700,2.053251708984375,0.18169793486595154,0.05032138153910637,0.07992107421159744
1783002704621303800,2.0633037109375,0.1716090738773346,0.12975014746189117,0.04843451827764511
1783002704631355000,2.07335498046875,0.14863379299640656,0.17463912069797516,0.006921326741576195
1783002704641406700,2.08340673828125,0.13892151415348053,0.17871110141277313,-0.024314356967806816
1783002704651457800,2.093457763671875,0.1367892175912857,0.1997564733028412,-0.043333426117897034
1783002704661509600,2.103509521484375,0.13531222939491272,0.2325011044740677,-0.04726212099194527
1783002704671560700,2.113560791015625,0.13031741976737976,0.24286510050296783,-0.04752763733267784
1783002704681612800,2.12361279296875,0.12375033646821976,0.22110041975975037,-0.03994881361722946
1783002704691663600,2.13366357421875,0.11087246239185333,0.1716688573360443,-0.015725895762443542
1783002704701715700,2.1437158203125,0.09701443463563919,0.10393401235342026,0.02863438054919243
1783002704711766800,2.153766845703125,0.08528851717710495,0.059653718024492264,0.09931375086307526
1783002704721818600,2.163818603515625,0.07521377503871918,0.05378810688853264,0.17633290588855743
1783002704731869700,2.17386962890625,0.07284410297870636,0.06622529029846191,0.23312820494174957
1783002704741921500,2.183921630859375,0.07920825481414795,0.06943786144256592,0.2715834677219391
1783002704751972600,2.19397265625,0.09499534219503403,0.08756010979413986,0.28919821977615356
1783002704762024700,2.204024658203125,0.11903170496225357,0.10645896941423416,0.31351208686828613
1783002704772075800,2.21407568359375,0.15395620465278625,0.1129608228802681,0.3421587347984314
1783002704782127900,2.2241279296875,0.21318303048610687,0.16533800959587097,0.3827700912952423
1783002704792179000,2.234178955078125,0.25926196575164795,0.22061283886432648,0.421375572681427
1783002704802230800,2.244230712890625,0.284619003534317,0.1940147876739502,0.4268571734428406
1783002704812281900,2.25428173828125,0.2764277756214142,0.07669234275817871,0.3990575075149536
1783002704822333700,2.264333740234375,0.24015818536281586,-0.09296513348817825,0.35990238189697266
1783002704832384800,2.274384765625,0.17140521109104156,-0.20993702113628387,0.3211240768432617
1783002704842436900,2.284436767578125,0.07536017894744873,-0.25098326802253723,0.26581236720085144
1783002704852487700,2.29448779296875,-0.04762065410614014,-0.30135253071784973,0.16845788061618805
1783002704862539800,2.304539794921875,-0.1665710061788559,-0.35298827290534973,0.025630952790379524
1783002704872590800,2.3145908203125,-0.27015751600265503,-0.339082270860672,-0.149394229054451
1783002704882642700,2.324642578125,-0.3639463484287262,-0.264888733625412,-0.3165632486343384
1783002704892693800,2.33469384765625,-0.4634728729724884,-0.11112388223409653,-0.43352991342544556
1783002704902745600,2.34474560546875,-0.5812432169914246,0.0959845557808876,-0.49740397930145264
1783002704912796700,2.354796630859375,-0.6931952238082886,0.34374698996543884,-0.5035754442214966
1783002704922848800,2.364848876953125,-0.787590742111206,0.6594846844673157,-0.4719005823135376
1783002704932899800,2.37489990234375,-0.850324273109436,0.96864253282547,-0.40544432401657104
1783002704942951700,2.38495166015625,-0.8479215502738953,1.2334712743759155,-0.3263806402683258
1783002704953002800,2.395002685546875,-0.7651152610778809,1.4407232999801636,-0.23052142560482025
1783002704963054600,2.4050546875,-0.6137115955352783,1.553515076637268,-0.1389840543270111
1783002704973105700,2.415105712890625,-0.4090529978275299,1.590110182762146,-0.04722147807478905
1783002704983157800,2.42515771484375,-0.17474517226219177,1.5416611433029175,0.025898538529872894
1783002704993208600,2.43520849609375,0.03408550098538399,1.4096300601959229,0.042385831475257874
1783002705003261000,2.445260986328125,0.20106808841228485,1.2077038288116455,0.0037966277450323105
1783002705013311700,2.455311767578125,0.302128404378891,0.9805987477302551,-0.0576806515455246
1783002705023363800,2.46536376953125,0.3427152633666992,0.7295715808868408,-0.06830773502588272
1783002705033415000,2.475414794921875,0.32883185148239136,0.4983152747154236,-0.013960281386971474
1783002705043466800,2.485466796875,0.2917127013206482,0.25933200120925903,0.06623921543359756
1783002705053517800,2.495517822265625,0.23112420737743378,-0.029415452852845192,0.13189104199409485
1783002705063569700,2.505569580078125,0.1755855828523636,-0.3443529009819031,0.1555686742067337
1783002705073620700,2.515620849609375,0.13666494190692902,-0.5439884662628174,0.15994124114513397
1783002705083672800,2.5256728515625,0.12084390968084335,-0.5878409147262573,0.16234128177165985
1783002705093723600,2.5357236328125,0.1009601354598999,-0.5283524990081787,0.1397736370563507
1783002705103775700,2.545775634765625,0.08331110328435898,-0.41576310992240906,0.10761303454637527
1783002705113826800,2.555826904296875,0.05359171703457832,-0.2911219894886017,0.06489899009466171
1783002705123878700,2.565878662109375,0.023290272802114487,-0.1753554493188858,0.03725378215312958
1783002705133929700,2.5759296875,0.011527866125106812,-0.09786802530288696,0.03090628981590271
1783002705143981600,2.585981689453125,0.011149697005748749,-0.07860937714576721,0.03203786537051201
1783002705154032600,2.59603271484375,0.03081381879746914,-0.08088368922472,0.029925359413027763
1783002705164084700,2.606084716796875,0.0679156482219696,-0.09670739620923996,0.022395538166165352
1783002705174136600,2.616136474609375,0.10522782057523727,-0.1330268830060959,0.019609900191426277
1783002705184187600,2.626187744140625,0.13569492101669312,-0.1692298948764801,0.0310662854462862
1783002705194238700,2.63623876953125,0.1492641121149063,-0.1989496350288391,0.04878401756286621
1783002705204290800,2.646290771484375,0.14235825836658478,-0.24225130677223206,0.07383424788713455
1783002705214341600,2.656341552734375,0.12793642282485962,-0.32256758213043213,0.09769558906555176
1783002705224397000,2.66639697265625,0.12705783545970917,-0.4251653552055359,0.10741479694843292
1783002705234449000,2.676448974609375,0.1613938957452774,-0.5518627762794495,0.08112785965204239
1783002705244500000,2.6865,0.2223730832338333,-0.6991187930107117,0.004809382371604443
1783002705254551800,2.6965517578125,0.29848599433898926,-0.7594202160835266,-0.0989512950181961
1783002705264603000,2.706602783203125,0.3480200171470642,-0.6870863437652588,-0.17851215600967407
1783002705274655000,2.716655029296875,0.3479299247264862,-0.48510903120040894,-0.17239069938659668
1783002705284706000,2.7267060546875,0.2919228672981262,-0.24011604487895966,-0.10025178641080856
1783002705294758100,2.736758056640625,0.21732868254184723,-0.06854750216007233,0.012008815072476864
1783002705304809200,2.746809326171875,0.10960220545530319,0.012831240892410278,0.060728948563337326
1783002705314861000,2.756861083984375,0.03722484037280083,0.0375111922621727,0.014482056722044945
1783002705324912000,2.766912109375,0.014650819823145866,0.000355567317456007,-0.10156784951686859
1783002705334964000,2.7769638671875,0.001935876440256834,-0.12434983998537064,-0.21182630956172943
1783002705345015000,2.78701513671875,-0.019408827647566795,-0.2898455858230591,-0.266530841588974
1783002705355067100,2.797067138671875,-0.0728042870759964,-0.4386445879936218,-0.26250946521759033
1783002705365118000,2.807117919921875,-0.17493997514247894,-0.5221991539001465,-0.23494946956634521
1783002705375170000,2.817170166015625,-0.29380711913108826,-0.5662675499916077,-0.20989730954170227
1783002705385221000,2.82722119140625,-0.401684045791626,-0.6012623310089111,-0.12945573031902313
1783002705395273000,2.83727294921875,-0.49760934710502625,-0.6081653237342834,0.011638940311968327
1783002705405324000,2.847323974609375,-0.5744231939315796,-0.6165646910667419,0.19905011355876923
1783002705415376000,2.8573759765625,-0.6462755799293518,-0.6362875699996948,0.39709460735321045
1783002705425427000,2.867427001953125,-0.7050701379776001,-0.6607279181480408,0.5401551127433777
1783002705435479000,2.87747900390625,-0.7377310991287231,-0.7003746032714844,0.6029977202415466
1783002705445529900,2.88752978515625,-0.7371244430541992,-0.758094072341919,0.6038347482681274
1783002705455582000,2.89758203125,-0.7136403322219849,-0.7843751907348633,0.5594509243965149
1783002705465633000,2.907633056640625,-0.6585142612457275,-0.76130211353302,0.45856422185897827
1783002705475685000,2.91768505859375,-0.5628414154052734,-0.6725350022315979,0.3427342176437378
1783002705485736000,2.92773583984375,-0.4444383978843689,-0.5340482592582703,0.2389543056488037
1783002705495788000,2.9377880859375,-0.3160751461982727,-0.3510906398296356,0.15890686213970184
1783002705505839000,2.947839111328125,-0.17980840802192688,-0.15036579966545105,0.11051641404628754
1783002705515891200,2.95789111328125,-0.03776933625340462,0.01991606503725052,0.0955892875790596
1783002705525942000,2.96794189453125,0.08701227605342865,0.1195417195558548,0.10437025874853134
1783002705535994000,2.977994140625,0.19464607536792755,0.15912899374961853,0.14895063638687134
1783002705546045200,2.988045166015625,0.2827546298503876,0.17521235346794128,0.21111680567264557
1783002705556097000,2.998096923828125,0.3487025797367096,0.16918504238128662,0.2813110649585724
1783002705566148000,3.008148193359375,0.3955925703048706,0.13468565046787262,0.33863747119903564
1783002705576200000,3.018199951171875,0.4278718829154968,0.09414151310920715,0.39642786979675293
1783002705586251000,3.0282509765625,0.4524137079715729,0.06776636093854904,0.44315117597579956
1783002705596303000,3.03830322265625,0.4722326695919037,0.08959998935461044,0.48313552141189575
1783002705606354000,3.04835400390625,0.4850746989250183,0.13739973306655884,0.5021997690200806
1783002705616406000,3.058406005859375,0.4623221755027771,0.18245115876197815,0.5072110891342163
1783002705626457000,3.06845703125,0.3950033187866211,0.20760472118854523,0.4574376940727234
1783002705636509000,3.078509033203125,0.3061143755912781,0.13931015133857727,0.3440139889717102
1783002705646560000,3.08856005859375,0.21652857959270477,0.02432045340538025,0.2053826004266739
1783002705656611800,3.09861181640625,0.1297537088394165,-0.0464029423892498,0.08628397434949875
1783002705666663000,3.108662841796875,0.0552390031516552,-0.07888152450323105,0.017593592405319214
1783002705676715000,3.118715087890625,-0.019267447292804718,-0.06932134926319122,0.01272792462259531
1783002705686765800,3.128765869140625,-0.0702936127781868,-0.05003367364406586,0.04224799945950508
1783002705696818200,3.138818115234375,-0.07552116364240646,-0.04933473467826843,0.07924085855484009
1783002705706869200,3.148869140625,-0.043104104697704315,-0.04391760006546974,0.1151658371090889
1783002705716921000,3.158921142578125,0.015830762684345245,-0.041864972561597824,0.13436073064804077
1783002705726972200,3.16897216796875,0.10021887719631195,-0.004795366432517767,0.14811888337135315
1783002705737024000,3.17902392578125,0.179257333278656,0.0252598337829113,0.13369524478912354
1783002705747075000,3.189074951171875,0.2337472140789032,0.015573916956782341,0.0847812220454216
1783002705757127200,3.199127197265625,0.27187997102737427,-0.011816184967756271,0.009507731534540653
1783002705767178000,3.209177978515625,0.29832860827445984,-0.014540066942572594,-0.07129789888858795
1783002705777230000,3.21922998046875,0.30225446820259094,0.0036135497502982616,-0.14723482728004456
1783002705787282000,3.229281982421875,0.2822783589363098,0.03099457547068596,-0.24368120729923248
1783002705797333000,3.2393330078125,0.2486140877008438,0.029915936291217804,-0.3632703423500061
1783002705807385000,3.249385009765625,0.21174821257591248,0.016209978610277176,-0.4822513461112976
1783002705817436000,3.259435791015625,0.17364947497844696,0.02861398458480835,-0.5729883909225464
1783002705827488000,3.269488037109375,0.12725427746772766,0.061693113297224045,-0.6298319697380066
1783002705837539000,3.2795390625,0.06493908911943436,0.037232354283332825,-0.6654737591743469
1783002705847591000,3.2895908203125,-0.015055080875754356,-0.055129796266555786,-0.686457633972168
1783002705857642000,3.29964208984375,-0.11023002117872238,-0.14280763268470764,-0.7083964943885803
1783002705867693800,3.30969384765625,-0.2354332059621811,-0.20333115756511688,-0.7554303407669067
1783002705877745000,3.319744873046875,-0.3811474144458771,-0.2343696504831314,-0.8444682359695435
1783002705887797000,3.329796875,-0.5294529795646667,-0.23342928290367126,-0.9779719710350037
1783002705897847800,3.339847900390625,-0.637600839138031,-0.1556241661310196,-1.0885499715805054
1783002705907900200,3.349900146484375,-0.662705659866333,-0.03353794291615486,-1.1221455335617065
1783002705917951200,3.359951171875,-0.6087895631790161,0.04827738553285599,-1.091110110282898
1783002705928003000,3.370003173828125,-0.507407546043396,0.07377715408802032,-1.0137807130813599
1783002705938054100,3.38005419921875,-0.38530388474464417,0.04756956920027733,-0.9048542380332947
1783002705948106000,3.39010595703125,-0.25897684693336487,-0.016413407400250435,-0.8106129765510559
1783002705958157000,3.400156982421875,-0.13305044174194336,0.005725869908928871,-0.7310566902160645
1783002705968209200,3.410209228515625,-0.009603600949048996,0.21048486232757568,-0.6676913499832153
1783002705978260000,3.420260009765625,0.09532058238983154,0.5196447372436523,-0.6393177509307861
1783002705988312000,3.43031201171875,0.20238631963729858,0.7697272896766663,-0.6181666254997253
1783002705998363100,3.440363037109375,0.29779255390167236,0.8932227492332458,-0.5676743984222412
1783002706008415000,3.4504150390625,0.370521605014801,0.8576838970184326,-0.48406654596328735
1783002706018466000,3.460466064453125,0.39082321524620056,0.7511212229728699,-0.3667484521865845
1783002706028518000,3.470517822265625,0.3755372166633606,0.6206060647964478,-0.22290658950805664
1783002706038569000,3.48056884765625,0.33628222346305847,0.41513293981552124,-0.07430469989776611
1783002706048621000,3.49062109375,0.27196580171585083,0.1580321490764618,0.06489101052284241
1783002706058671900,3.500671875,0.1835775077342987,-0.10370103269815445,0.18368178606033325
1783002706068724000,3.510723876953125,0.07962954044342041,-0.32940420508384705,0.28941404819488525
1783002706078775000,3.520775146484375,-0.033120110630989075,-0.4899941384792328,0.38469910621643066
1783002706088827000,3.530826904296875,-0.14784295856952667,-0.5677397847175598,0.4623478353023529
1783002706098878000,3.5408779296875,-0.24465367197990417,-0.570431113243103,0.48823708295822144
1783002706108930000,3.550929931640625,-0.30310526490211487,-0.5226086974143982,0.4578133821487427
1783002706118981000,3.560981201171875,-0.313703328371048,-0.392347127199173,0.4048719108104706
1783002706129033200,3.571033203125,-0.29808521270751953,-0.21219758689403534,0.3347642123699188
1783002706139084000,3.581083984375,-0.24831140041351318,-0.05514002963900566,0.24599936604499817
1783002706149136100,3.59113623046875,-0.17704042792320251,0.039964113384485245,0.1405419260263443
1783002706159187200,3.601187255859375,-0.0855579674243927,0.10467807203531265,0.058382708579301834
1783002706169239000,3.611239013671875,-0.003230600617825985,0.15944118797779083,-0.010664539411664009
1783002706179290000,3.6212900390625,0.06391680985689163,0.20314288139343262,-0.06307199597358704
1783002706189342000,3.631342041015625,0.10979055613279343,0.21483123302459717,-0.09672849625349045
1783002706199394000,3.64139404296875,0.1292734295129776,0.19378061592578888,-0.11384794116020203
1783002706209445000,3.651445068359375,0.11904608458280563,0.14547593891620636,-0.1495545506477356
1783002706219497000,3.6614970703125,0.09712682664394379,0.11210455000400543,-0.17512866854667664
1783002706229544700,3.671544677734375,0.05264671519398689,0.10864244401454926,-0.2200375646352768
1783002706239596500,3.681596435546875,-0.005039132200181484,0.13249923288822174,-0.2649579644203186
1783002706249647600,3.691647705078125,-0.055437326431274414,0.19696611166000366,-0.27534082531929016
1783002706259699500,3.701699462890625,-0.08003662526607513,0.3039279580116272,-0.24978692829608917
1783002706269750500,3.71175048828125,-0.07611565291881561,0.39318808913230896,-0.22809122502803802
1783002706279802600,3.721802734375,-0.049835652112960815,0.4271397292613983,-0.22657260298728943
1783002706289853700,3.731853759765625,-0.0011996738612651825,0.429630309343338,-0.23100410401821136
1783002706299905500,3.741905517578125,0.05959102511405945,0.4142666161060333,-0.24074843525886536
1783002706309956600,3.75195654296875,0.11791691184043884,0.400473028421402,-0.23809592425823212
1783002706320008400,3.762008544921875,0.16535153985023499,0.3695497214794159,-0.20892685651779175
1783002706330059500,3.7720595703125,0.19075064361095428,0.32617563009262085,-0.16422969102859497
1783002706340111600,3.782111572265625,0.18909019231796265,0.29458269476890564,-0.13102908432483673
1783002706350162700,3.79216259765625,0.17878055572509766,0.269299179315567,-0.1071876659989357
1783002706360214800,3.80221484375,0.1548285186290741,0.2426096647977829,-0.09008651226758957
1783002706370265600,3.812265625,0.11434873193502426,0.23807083070278168,-0.0920386090874672
1783002706380317700,3.822317626953125,0.07939456403255463,0.2427462488412857,-0.09949783980846405
1783002706390368800,3.83236865234375,0.0633639246225357,0.25478026270866394,-0.08900045603513718
1783002706400420600,3.842420654296875,0.07006687670946121,0.26132988929748535,-0.06946992874145508
1783002706410471700,3.8524716796875,0.08317548781633377,0.24915285408496857,-0.04492276906967163
1783002706420523500,3.8625234375,0.11223025619983673,0.26108217239379883,-0.01819225773215294
1783002706430574600,3.87257470703125,0.17311199009418488,0.35317161679267883,0.0673452764749527
1783002706440626700,3.882626708984375,0.23476549983024597,0.4421696066856384,0.18322893977165222
1783002706450677800,3.892677734375,0.26051053404808044,0.4622410535812378,0.2621605098247528
1783002706460729600,3.9027294921875,0.27409976720809937,0.4086911082267761,0.2872893810272217
1783002706470780700,3.91278076171875,0.2784319221973419,0.2563769221305847,0.2650597095489502
1783002706480832500,3.92283251953125,0.2498735934495926,0.01530252955853939,0.22461006045341492
1783002706490883600,3.932883544921875,0.185993954539299,-0.18756535649299622,0.19143719971179962
1783002706500935700,3.942935791015625,0.10706617683172226,-0.2752736210823059,0.17559176683425903
1783002706510986500,3.952986572265625,0.03984639048576355,-0.3127909004688263,0.14777317643165588
1783002706521038600,3.96303857421875,-0.0286716241389513,-0.3426707983016968,0.09935137629508972
1783002706531089700,3.973089599609375,-0.09518087655305862,-0.3108063340187073,0.02333677187561989
1783002706541141800,3.983141845703125,-0.13036245107650757,-0.24352280795574188,-0.0174250490963459
1783002706551192600,3.993192626953125,-0.1438087522983551,-0.1497899293899536,-0.0024857795797288418
1783002706561244700,4.00324462890625,-0.12326037138700485,-0.07954037189483643,0.04205881431698799
1783002706571295700,4.013295654296875,-0.08745016902685165,-0.08497748523950577,0.07469265908002853
1783002706581347600,4.02334765625,-0.04783373326063156,-0.1378217339515686,0.08952689915895462
1783002706591399700,4.033399658203125,-0.003912614658474922,-0.1354091763496399,0.12174741178750992
1783002706601450800,4.04345068359375,0.04762694612145424,-0.07302171736955643,0.17640285193920135
1783002706611502600,4.053502685546875,0.09806454926729202,-0.03429482504725456,0.25331786274909973
1783002706621553700,4.0635537109375,0.15715859830379486,-0.04896038770675659,0.33415406942367554
1783002706631605500,4.07360546875,0.22006432712078094,-0.11434685438871384,0.4075595736503601
1783002706641656600,4.083656494140625,0.27055609226226807,-0.21197663247585297,0.46464183926582336
1783002706651708700,4.093708740234375,0.30017122626304626,-0.31333571672439575,0.48015716671943665
1783002706661759500,4.103759521484375,0.3153661787509918,-0.356884628534317,0.45196980237960815
1783002706671811600,4.1138115234375,0.32716771960258484,-0.3497127592563629,0.36764881014823914
1783002706681862700,4.123862548828125,0.34104713797569275,-0.3637855648994446,0.23752844333648682
1783002706691914500,4.13391455078125,0.34306713938713074,-0.3886392414569855,0.07602477818727493
1783002706701965600,4.143965576171875,0.31828728318214417,-0.383050799369812,-0.10386142879724503
1783002706712017700,4.154017578125,0.27962273359298706,-0.3463740050792694,-0.26124945282936096
1783002706722068500,4.164068359375,0.22497572004795074,-0.30894359946250916,-0.36694347858428955
1783002706732120600,4.17412060546875,0.17399562895298004,-0.3282323479652405,-0.4115794003009796
1783002706742171600,4.184171630859375,0.12615039944648743,-0.3716593384742737,-0.38949862122535706
1783002706752223700,4.1942236328125,0.09282840043306351,-0.386058509349823,-0.29928696155548096
1783002706762274800,4.20427490234375,0.08051368594169617,-0.33804580569267273,-0.17267324030399323
1783002706772326700,4.21432666015625,0.08780249208211899,-0.2629997730255127,-0.029187439009547234
1783002706782377700,4.224377685546875,0.10321199148893356,-0.20040978491306305,0.08355627954006195
1783002706792429600,4.2344296875,0.131897434592247,-0.15130482614040375,0.12749284505844116
1783002706802480600,4.244480712890625,0.17890118062496185,-0.08952148258686066,0.12699301540851593
1783002706812532700,4.25453271484375,0.2290937751531601,-0.0008675116114318371,0.09931238740682602
1783002706822583600,4.26458349609375,0.280327707529068,0.06560615450143814,0.06820717453956604
1783002706832635600,4.2746357421875,0.3210003077983856,0.10738076269626617,0.0390828438103199
1783002706842686700,4.284686767578125,0.34898123145103455,0.14383164048194885,0.015949834138154984
1783002706852738600,4.294738525390625,0.3761284351348877,0.1638394296169281,0.006131557747721672
1783002706862789600,4.30478955078125,0.39339467883110046,0.212060809135437,0.0041184863075613976
1783002706872841500,4.314841552734375,0.4057259261608124,0.27289724349975586,-0.009968836791813374
1783002706882892500,4.324892578125,0.39258357882499695,0.2600111961364746,-0.048062779009342194
1783002706892944600,4.334944580078125,0.35241591930389404,0.16051016747951508,-0.10664033889770508
1783002706902995700,4.34499560546875,0.28926336765289307,0.024523332715034485,-0.17368371784687042
1783002706913047600,4.355047607421875,0.18990536034107208,-0.09055372327566147,-0.25919491052627563
1783002706923098600,4.3650986328125,0.07626528292894363,-0.16757391393184662,-0.3446104824542999
1783002706933150500,4.375150390625,-0.025744708254933357,-0.20452846586704254,-0.39570188522338867
1783002706943201500,4.385201416015625,-0.09928036481142044,-0.23021845519542694,-0.41135093569755554
1783002706953253600,4.395253662109375,-0.14305686950683594,-0.23383954167366028,-0.40562543272972107
1783002706963305700,4.4053056640625,-0.15409278869628906,-0.1513971984386444,-0.38130587339401245
1783002706973356800,4.415356689453125,-0.12682361900806427,-0.030239082872867584,-0.3549501597881317
1783002706983408600,4.42540869140625,-0.07134409248828888,0.02821291796863079,-0.34091177582740784
1783002706993459700,4.435459716796875,-0.030216623097658157,-0.011489488184452057,-0.3634170889854431
1783002707003511600,4.445511474609375,-0.013089846819639206,-0.07367958873510361,-0.40539804100990295
1783002707013562600,4.455562744140625,-0.009602703154087067,-0.06420858204364777,-0.418921560049057
1783002707023614700,4.46561474609375,-0.008713901042938232,-0.042751915752887726,-0.39943408966064453
1783002707033665500,4.47566552734375,-0.013756596483290195,-0.03735901415348053,-0.3576682507991791
1783002707043717600,4.485717529296875,-0.024802472442388535,-0.04517160728573799,-0.32167568802833557
1783002707053768700,4.495768798828125,-0.0488462895154953,-0.06810568273067474,-0.31571099162101746
1783002707063820500,4.505820556640625,-0.09142496436834335,-0.06403163820505142,-0.30395278334617615
1783002707073871600,4.51587158203125,-0.1287534236907959,0.016934316605329514,-0.24615205824375153
1783002707083923500,4.52592333984375,-0.15245720744132996,0.11332713067531586,-0.14549696445465088
1783002707093974500,4.535974609375,-0.16495542228221893,0.1334233433008194,-0.049711309373378754
1783002707104026600,4.546026611328125,-0.1667039394378662,0.06791579723358154,0.010817582719027996
1783002707114077700,4.55607763671875,-0.16003698110580444,-0.0038377505261451006,0.033038198947906494
1783002707124129500,4.566129638671875,-0.14190806448459625,-0.05024462193250656,0.040026672184467316
1783002707134180600,4.5761806640625,-0.1179199069738388,-0.08213544636964798,0.04530292749404907
1783002707144232700,4.586232666015625,-0.09884873777627945,-0.11422817409038544,0.047783855348825455
1783002707154283500,4.596283447265625,-0.09332773834466934,-0.14695629477500916,0.028165414929389954
1783002707164335600,4.606335693359375,-0.10520892590284348,-0.1962081342935562,0.008250782266259193
1783002707174386700,4.61638671875,-0.12106964737176895,-0.1730135977268219,0.01718915067613125
1783002707184438800,4.626438720703125,-0.1327166110277176,-0.09025659412145615,0.04329211264848709
1783002707194489600,4.636489501953125,-0.15545600652694702,-0.07018435001373291,0.04724051430821419
1783002707204541700,4.646541748046875,-0.16831807792186737,-0.14136368036270142,0.04506606236100197
1783002707214592800,4.6565927734375,-0.1772332787513733,-0.21483497321605682,0.06206075847148895
1783002707224644900,4.666644775390625,-0.1870235651731491,-0.2481621354818344,0.10536091029644012
1783002707234696000,4.676696044921875,-0.19404791295528412,-0.25687387585639954,0.1679646372795105
1783002707244747800,4.686747802734375,-0.18240143358707428,-0.26991891860961914,0.22095784544944763
1783002707254798800,4.696798828125,-0.15347737073898315,-0.30318206548690796,0.26544782519340515
1783002707264851000,4.706850830078125,-0.11159303039312363,-0.2882697284221649,0.3124768137931824
1783002707274901800,4.71690185546875,-0.07593224197626114,-0.19426067173480988,0.37250766158103943
1783002707284953900,4.726953857421875,-0.07464983314275742,-0.20325878262519836,0.37432676553726196
1783002707295005000,4.7370048828125,-0.11856961995363235,-0.3049659729003906,0.26954469084739685
1783002707305056800,4.747056884765625,-0.15784600377082825,-0.3652401864528656,0.10806073993444443
1783002707315108900,4.75710888671875,-0.1822056770324707,-0.3368562161922455,-0.06803838908672333
1783002707325159700,4.76715966796875,-0.21009685099124908,-0.26836922764778137,-0.2352534830570221
1783002707335212000,4.7772119140625,-0.253789484500885,-0.20165543258190155,-0.36421969532966614
1783002707345262800,4.787262939453125,-0.29174184799194336,-0.13261692225933075,-0.4280070662498474
1783002707355315000,4.79731494140625,-0.30856984853744507,-0.06589382141828537,-0.4237001836299896
1783002707365366000,4.807365966796875,-0.3151077330112457,-0.026914600282907486,-0.35961025953292847
1783002707375417900,4.81741796875,-0.3004893660545349,-0.014315452426671982,-0.24720701575279236
1783002707385469000,4.827468994140625,-0.26134157180786133,-0.00909537822008133,-0.1345524787902832
1783002707395521000,4.83752099609375,-0.20868049561977386,-0.03901093453168869,-0.062322232872247696
1783002707405571800,4.84757177734375,-0.15566705167293549,-0.12089549750089645,-0.04269248619675636
1783002707415624000,4.8576240234375,-0.10275430977344513,-0.22173768281936646,-0.042589686810970306
1783002707425675000,4.867675048828125,-0.04997903108596802,-0.2765620946884155,-0.04844561219215393
1783002707435726800,4.877726806640625,-0.006496002431958914,-0.262551486492157,-0.04542931169271469
1783002707445778000,4.88777783203125,0.030926335602998734,-0.19082561135292053,-0.015760984271764755
1783002707455829800,4.897829833984375,0.04316888749599457,-0.12114452570676804,0.030437402427196503
1783002707465880800,4.907880859375,0.05040811747312546,-0.07344502210617065,0.1040557250380516
1783002707475933000,4.917932861328125,0.0681341141462326,-0.009141926653683186,0.18784277141094208
1783002707485983700,4.927983642578125,0.09081213176250458,0.045879483222961426,0.2743806540966034
1783002707496035800,4.938035888671875,0.09974703937768936,0.048471540212631226,0.32273969054222107
1783002707506087000,4.9480869140625,0.10333634167909622,0.027774155139923096,0.3427221477031708
1783002707516138800,4.958138671875,0.10478377342224121,-0.003346481127664447,0.3242083787918091
1783002707526189800,4.96818994140625,0.09680130332708359,-0.07521221786737442,0.26737645268440247
1783002707536241700,4.97824169921875,0.06155755743384361,-0.15817394852638245,0.17202171683311462
1783002707546292700,4.988292724609375,0.007344119716435671,-0.1867552548646927,0.06513334810733795
1783002707556345000,4.998344970703125,-0.04859478026628494,-0.15292832255363464,-0.017217982560396194
1783002707566396000,5.00839599609375,-0.10357419401407242,-0.09151589870452881,-0.05679142475128174
1783002707576448000,5.018447998046875,-0.14802289009094238,0.0008366634137928486,-0.05288882926106453
1783002707586499000,5.0284990234375,-0.18918409943580627,0.09990736097097397,-0.023057833313941956
1783002707596551000,5.038551025390625,-0.19512030482292175,0.18918025493621826,0.000024049542844295502
1783002707606602000,5.04860205078125,-0.15642549097537994,0.23254366219043732,0.021782955154776573
1783002707616653800,5.05865380859375,-0.08759050071239471,0.2869928181171417,0.020229266956448555
1783002707626705000,5.068704833984375,-0.01664416305720806,0.3340623378753662,-0.016495157033205032
1783002707636757000,5.078757080078125,0.02320871129631996,0.3272920250892639,-0.10383059084415436
1783002707646807800,5.088807861328125,0.04182012379169464,0.26756834983825684,-0.20914597809314728
1783002707656860000,5.09885986328125,0.02978210151195526,0.18968181312084198,-0.2942795157432556
1783002707666911000,5.108910888671875,-0.006033589132130146,0.13498196005821228,-0.3303132951259613
1783002707676962800,5.118962890625,-0.0455346554517746,0.1531423181295395,-0.32411929965019226
1783002707687015000,5.129014892578125,-0.08434925228357315,0.19715912640094757,-0.3062734007835388
1783002707697065700,5.139065673828125,-0.10680209845304489,0.19817166030406952,-0.284556120634079
1783002707707117800,5.149117919921875,-0.10221310704946518,0.16105638444423676,-0.26929184794425964
1783002707717169000,5.1591689453125,-0.07478388398885727,0.14269761741161346,-0.2606898248195648
1783002707727220700,5.169220703125,-0.032643139362335205,0.16062863171100616,-0.23682592809200287
1783002707737271800,5.179271728515625,0.0095682293176651,0.1797810196876526,-0.23283810913562775
1783002707747324000,5.189323974609375,0.05076628923416138,0.16610588133335114,-0.2542306184768677
1783002707757374700,5.199374755859375,0.05258602648973465,0.07002328336238861,-0.2978670597076416
1783002707767427000,5.209427001953125,-0.016809901222586632,-0.08594655990600586,-0.33237096667289734
1783002707777478000,5.219477783203125,-0.1334739327430725,-0.1658075749874115,-0.3048543930053711
1783002707787530000,5.229530029296875,-0.23258355259895325,-0.07949017733335495,-0.19761750102043152
1783002707797581000,5.2395810546875,-0.2852590084075928,0.08651290833950043,-0.08823748677968979
1783002707807633000,5.2496328125,-0.2813932001590729,0.2038094699382782,-0.04176910221576691
1783002707817684000,5.25968408203125,-0.23348398506641388,0.27333128452301025,-0.06675700843334198
1783002707827735800,5.26973583984375,-0.15113981068134308,0.3314911425113678,-0.12870821356773376
1783002707837787000,5.279786865234375,-0.06237238645553589,0.3799212574958801,-0.21691423654556274
1783002707847839000,5.2898388671875,0.020423682406544685,0.35372430086135864,-0.32040300965309143
1783002707857889800,5.299889892578125,0.06693072617053986,0.2149706929922104,-0.394212543964386
1783002707867942000,5.30994189453125,0.08162708580493927,0.05840091034770012,-0.3857240080833435
1783002707877993000,5.319992919921875,0.07948563992977142,-0.047534309327602386,-0.3027859628200531
1783002707888044800,5.330044921875,0.05170274153351784,-0.09043170511722565,-0.1936938464641571
1783002707898095900,5.340095947265625,0.016018249094486237,-0.10352593660354614,-0.10894940048456192
1783002707908147700,5.350147705078125,-0.03823302686214447,-0.1153699979186058,-0.057395245879888535
1783002707918198800,5.36019873046875,-0.11276131868362427,-0.11666908860206604,-0.007131810300052166
1783002707928251000,5.3702509765625,-0.20631136000156403,-0.08392057567834854,0.07737395167350769
1783002707938301700,5.3803017578125,-0.3144245147705078,0.004256954416632652,0.22301451861858368
1783002707948353800,5.390353759765625,-0.4011240601539612,0.1539892703294754,0.3888658583164215
1783002707958404900,5.40040478515625,-0.4414656162261963,0.35604116320610046,0.5100599527359009
1783002707968457000,5.41045703125,-0.41410908102989197,0.5140346884727478,0.5557622313499451
1783002707978508000,5.420508056640625,-0.31372547149658203,0.5963162183761597,0.5114133954048157
1783002707988560000,5.430559814453125,-0.1690947413444519,0.6558163166046143,0.43581777811050415
1783002707998611000,5.44061083984375,-0.012268105521798134,0.7098348140716553,0.3788567781448364
1783002708008663000,5.4506630859375,0.12957878410816193,0.7572342753410339,0.3812412619590759
1783002708018713900,5.4607138671875,0.24348591268062592,0.7815478444099426,0.4235261380672455
1783002708028766000,5.470765869140625,0.3098587095737457,0.770883321762085,0.4403574764728546
1783002708038817000,5.480817138671875,0.33014240860939026,0.7815969586372375,0.3979317247867584
1783002708048868900,5.490868896484375,0.3221379220485687,0.7930364608764648,0.2967267632484436
1783002708058921000,5.5009208984375,0.2888241708278656,0.7539809346199036,0.1699664145708084
1783002708068971800,5.5109716796875,0.23151233792304993,0.7041451930999756,0.10367286950349808
1783002708079023900,5.52102392578125,0.16508856415748596,0.650081992149353,0.10296765714883804
1783002708089075000,5.531074951171875,0.08231240510940552,0.5438732504844666,0.15247762203216553
1783002708099126800,5.541126708984375,0.014572769403457642,0.4066384434700012,0.25551852583885193
1783002708109177900,5.551177734375,-0.024849876761436462,0.2915251851081848,0.3930722773075104
1783002708119229700,5.561229736328125,-0.01244140975177288,0.22568704187870026,0.522990882396698
1783002708129280800,5.57128076171875,0.056868135929107666,0.20417597889900208,0.5842256546020508
1783002708139332900,5.581332763671875,0.1816105991601944,0.18556341528892517,0.5492380857467651
1783002708149383700,5.5913837890625,0.3417828679084778,0.21135079860687256,0.42790621519088745
1783002708159436000,5.60143603515625,0.47431883215904236,0.2777058482170105,0.274958997964859
1783002708169487000,5.611487060546875,0.5361329317092896,0.311588317155838,0.12692005932331085
1783002708179539000,5.6215390625,0.525560200214386,0.25730350613594055,0.015201779082417488
1783002708189590000,5.631590087890625,0.46957018971443176,0.20385777950286865,0.0007667671889066696
1783002708199641900,5.641641845703125,0.4589633643627167,0.3973774313926697,0.12603147327899933
1783002708209693000,5.65169287109375,0.4787556529045105,0.6675979495048523,0.28588730096817017
1783002708219745000,5.6617451171875,0.5047736763954163,0.7916770577430725,0.3866085708141327
1783002708229799700,5.671799560546875,0.5495394468307495,0.6251076459884644,0.43169984221458435
1783002708239851800,5.681851806640625,0.5843421220779419,0.23713169991970062,0.5127052068710327
1783002708249902800,5.69190283203125,0.5419759750366211,-0.20077912509441376,0.6262509822845459
1783002708259954700,5.70195458984375,0.41981035470962524,-0.4961300790309906,0.7952237725257874
1783002708270005800,5.712005859375,0.2532488703727722,-0.49457934498786926,0.9739595055580139
1783002708280057600,5.7220576171875,0.07908640056848526,-0.15942050516605377,1.3117642402648926
1783002708290108700,5.732108642578125,0.030733291059732437,-0.14116762578487396,1.294218897819519
1783002708300160800,5.742160888671875,0.09729580581188202,-0.28425315022468567,0.8966385722160339
1783002708310211600,5.752211669921875,0.2121431976556778,-0.34090328216552734,0.4991094470024109
1783002708320263700,5.762263671875,0.3680259883403778,-0.2859811782836914,0.2868933081626892
1783002708330314800,5.772314697265625,0.561782956123352,-0.14944475889205933,0.1799544095993042
1783002708340366600,5.78236669921875,0.7462436556816101,-0.0006821709685027599,0.0798640251159668
1783002708350417700,5.792417724609375,0.908001720905304,0.23836299777030945,0.08631151169538498
1783002708360469500,5.802469482421875,1.054460883140564,0.5106184482574463,0.21924054622650146
1783002708370521600,5.812521484375,1.091644525527954,0.6940112113952637,0.3918699026107788
1783002708380572700,5.82257275390625,1.0611900091171265,0.7317066788673401,0.4939632713794708
1783002708390623500,5.83262353515625,1.049386739730835,0.7553765773773193,0.5426331758499146
