time,seconds_elapsed,z,y,x
1783003165032384000,0.089384033203125,1.5553595569640397,1.4849983190149068,-1.4253347084298729
1783003165042436000,0.09943603515625,1.6784966918110846,1.7064873992815612,-1.3994059019252658
1783003165052488200,0.10948828125,1.407256907686591,2.0439201957598327,-1.442480635150522
1783003165062539000,0.1195390625,0.4809095395207405,2.5209122695758936,-1.5920451736740766
1783003165072591000,0.129591064453125,-0.7910229519188403,3.0329999144315716,-1.8258721958577633
1783003165082643000,0.139642822265625,-1.7603075445353984,3.261770968399942,-1.8971523022174834
1783003165092695000,0.149695068359375,-1.9102134438425302,2.9334128742590546,-1.9543311102494596
1783003165102746000,0.15974609375,-1.097540970173478,2.333517474351823,-1.9003072591170667
1783003165112798000,0.1697978515625,-0.17047230199575422,1.9628876339316368,-1.8234598740190266
1783003165122850000,0.17985009765625,0.16684592819213867,1.7576292652368544,-1.9807494538366794
1783003165132900900,0.18990087890625,0.7006862629115581,1.1984539982527493,-2.2468998058676717
1783003165142953000,0.199952880859375,1.7903396947056054,0.13641834896355867,-2.3684921954907474
1783003165153005000,0.210005126953125,0.004709492865204811,-0.11465396866202354,-1.452295196069777
1783003165163057200,0.22005712890625,-6.170927353280782,-0.5659580589920282,0.6106604664843529
1783003165173108200,0.230108154296875,-9.227094792810082,-1.9841653997600077,2.0644076879933477
1783003165183160000,0.24016015625,-8.883851264226436,-3.0577170070588586,2.589722478690743
1783003165193212200,0.250212158203125,-8.603475402966142,-2.976724777241051,3.516054649287462
1783003165203264000,0.260263916015625,-7.972342568752169,-2.042452169033885,3.483962936238944
1783003165213315000,0.270315185546875,-6.405869497099518,-1.1306178948670624,2.9510683579370376
1783003165223367000,0.280366943359375,-6.43609804662466,-0.8421922904029489,1.6878838210985063
1783003165233419000,0.2904189453125,-4.988068399044871,-1.0350836372166872,1.0924634477134794
1783003165243470000,0.300469970703125,-3.3460417814970014,-1.956001381549239,1.1267062013160436
1783003165253522000,0.31052197265625,-5.142386854097246,-3.9565070907354354,0.5055339123632758
1783003165263574000,0.320573974609375,-6.593480565422773,-4.963021051549911,0.9576119096752256
1783003165273626000,0.330626220703125,-6.219689338362216,-5.9095373475193975,1.2468104712732135
1783003165283677200,0.34067724609375,-4.749986788156629,-6.348467109444737,0.862333015025407
1783003165293729000,0.35072900390625,-2.3178245229184626,-6.935356897306442,0.6673537560217082
1783003165303781000,0.360781005859375,-0.9929173971384763,-7.12986298584044,1.0620588840343057
1783003165313833000,0.3708330078125,-0.518469747108221,-7.974813342779874,1.5607788055337966
1783003165323884000,0.380884033203125,-0.08657762873470783,-8.40972334766984,1.3408379776224493
1783003165333935900,0.390935791015625,0.4267641078352928,-7.382013454091548,1.421447930124402
1783003165343988000,0.400988037109375,2.690802680030465,-3.9898122712269424,1.139715978080034
1783003165354039000,0.4110390625,4.6148792295306915,0.46587096034288406,-0.7483329802274703
1783003165364091000,0.4210908203125,5.226441686356067,3.6678181591600176,-1.3007812770441174
1783003165374143200,0.431143310546875,5.129752413451671,4.028339862541854,-0.19090280334502457
1783003165384195000,0.441195068359375,5.22979391939342,4.041115757484734,0.3906102599143982
1783003165394246100,0.45124609375,4.201950170302391,3.9943586824849246,0.7713949991241097
1783003165404298000,0.461298095703125,3.516653199702501,3.725179630282521,0.7139855972066521
1783003165414350000,0.47135009765625,3.6251124053776262,3.453505838654935,-0.0320829452201724
1783003165424402000,0.48140185546875,4.244826019954681,3.7949797272175547,-0.5241790646657347
1783003165434453000,0.491452880859375,4.848236149984598,5.407457009676098,1.3696981614038348
1783003165444505000,0.501505126953125,5.339226938536763,6.436742189747095,3.5562370220720765
1783003165454557000,0.511556884765625,5.44290826228559,5.47118217061162,3.8931986939072605
1783003165464608000,0.52160791015625,5.721664413389563,3.7787943160921333,2.795914328843355
1783003165474659800,0.531659912109375,6.125301328137517,2.612412449404597,2.05642984098196
1783003165484712200,0.541712158203125,5.838149689131975,1.8997467026248573,1.979968824853003
1783003165494764000,0.551763916015625,5.397586773046851,1.3677996343061327,2.2488573696762324
1783003165504815000,0.561815185546875,5.382789601409435,1.2865367708534001,2.2791541621319946
1783003165514867000,0.571866943359375,5.144428589057922,1.8556816431879997,2.0049876769058406
1783003165524919000,0.5819189453125,4.818257191306352,3.1617785622969268,1.861861793127656
1783003165534971000,0.591970947265625,5.021801157298684,3.563004324249923,1.7070507322527466
1783003165545022000,0.60202197265625,5.1806327058613295,3.150524177832901,1.6891270991578697
1783003165555074000,0.612073974609375,5.239813209104538,2.836498268166184,1.727748798497021
1783003165565126000,0.6221259765625,5.299035213401913,2.6152909274503586,1.697867747235298
1783003165575177000,0.632177001953125,5.532486826401948,2.5422578399434683,1.6119538431063294
1783003165585228800,0.642228759765625,5.6459396025806665,2.6798300351172686,1.5497034308984874
1783003165595281200,0.65228125,5.42196425845623,2.8750661914914843,1.4702446942582725
1783003165605333000,0.6623330078125,5.0422278592556715,2.950017679840326,1.219292495881021
1783003165615384000,0.672384033203125,4.419471223720908,2.9638737712353467,0.8669467924311757
1783003165625436200,0.682436279296875,3.461549736639857,2.9018349559515713,0.6669663641393184
1783003165635488000,0.692488037109375,2.629931154960394,2.9118402171373368,0.38836701103225346
1783003165645539000,0.7025390625,1.8964678270846604,3.3960499672472473,-0.1448259656943381
1783003165655591000,0.7125908203125,1.1015800164312124,3.6117601718515155,-0.546114709880948
1783003165665643000,0.72264306640625,0.3793582135379314,3.331304815614223,-0.6126042209632694
1783003165675691000,0.73269091796875,-0.6912006416857243,2.7578146075516936,-0.5334245935253799
1783003165685742000,0.7427421875,-1.9127906008541582,1.8267542393893001,-0.09606339609101414
1783003165695794200,0.752794189453125,-3.2666952730596064,0.5878250228852033,0.7121706567391752
1783003165705846000,0.762845947265625,-5.098910115942359,-1.2747101394593714,1.3212696460604667
1783003165715898400,0.7728984375,-7.3632947250962255,-3.68251070137918,1.7283888499662279
1783003165725949000,0.782948974609375,-9.304703517669438,-5.1572997610688205,1.489457782641798
1783003165736001300,0.793001220703125,-10.954724641102551,-5.247346527218818,0.37979777399897574
1783003165746053000,0.80305322265625,-11.635545343071222,-5.297784336557984,-0.911790142764151
1783003165756104200,0.813104248046875,-11.370440116178989,-5.686473273020982,-1.78551008259207
1783003165766156300,0.82315625,-11.329979510974884,-5.3907402681529515,-2.7377169914186
1783003165776208100,0.8332080078125,-10.891202309262752,-4.64091792615056,-3.3621389298170805
1783003165786260200,0.84326025390625,-9.498132332360743,-4.626950775596499,-2.9346567368403074
1783003165796311000,0.85331103515625,-7.749854248315096,-5.312909424975514,-1.83422413687855
1783003165806363100,0.863363037109375,-5.563766930806636,-5.494296504217386,-0.8486811409655958
1783003165816415000,0.8734150390625,-3.0197435424953696,-4.473938726967573,-0.4755253622643649
1783003165826467300,0.88346728515625,-0.9641612582534551,-3.3854981780946254,-0.027991730383783577
1783003165836518100,0.89351806640625,0.5550368520051241,-3.1508541404396295,0.6025766748804599
1783003165846570200,0.9035703125,1.5236264480948447,-3.2189749059855934,1.9868229285314678
1783003165856622300,0.913622314453125,1.8155390178918838,-3.4213334615856406,3.334684521180391
1783003165866673200,0.923673095703125,2.289303946354985,-3.4441970353007316,2.9884552547842262
1783003165876725200,0.933725341796875,2.7159049725830555,-2.4619728816121813,1.4218354681372642
1783003165886777000,0.943777099609375,3.0126696585863826,-1.0725362927764654,-0.37133908466808496
1783003165896829200,0.9538291015625,2.9353824207663535,0.27365619761645793,-0.857849074544385
1783003165906880300,0.96388037109375,2.260598076352477,1.0286825380027294,-0.8399879122264683
1783003165916932000,0.97393212890625,1.744257742488384,1.4006070944085716,-0.9740035839624702
1783003165926984200,0.983984130859375,1.3740946427971124,1.4073454627528785,-0.7346589674010873
1783003165937036300,0.994036376953125,0.7007055521339177,-0.24397300701439378,-0.05132054699044674
1783003165947087000,1.004087158203125,3.313042598214745,-0.6974845442607999,-1.103009172451496
1783003165957139200,1.01413916015625,2.830689874148369,1.2842939603626726,-2.3618261617302894
1783003165967191300,1.02419140625,3.371843162229657,2.253851378571242,-1.910315296781808
1783003165977242000,1.0342421875,3.6544466364115475,1.5664635731719434,-1.6465743439801037
1783003165987294200,1.044294189453125,3.926419410985708,0.5768031320028006,-1.4456773853652178
1783003165997346000,1.054345947265625,4.214408085337281,0.003705868780612945,-1.2822890502810478
1783003166007398100,1.064398193359375,4.096408313378691,-0.43288872819542884,-1.3918825206831096
1783003166017449200,1.07444921875,4.229636634129285,-0.9006184681475162,-1.4381233167238532
1783003166027501000,1.0845009765625,4.319785691609979,-1.2259613061204553,-1.1560049226451665
1783003166037553200,1.09455322265625,4.230913229936361,-1.2269880188196898,-1.0267213939975945
1783003166047604000,1.10460400390625,4.383402715995907,-1.0753919744685292,-0.9178983965113758
1783003166057656000,1.114656005859375,4.480212984931469,-0.9427949373587965,-0.8502120768599212
1783003166067708200,1.124708251953125,4.426208423021436,-0.7940159962549805,-0.678385729906708
1783003166077760300,1.13476025390625,4.5856145566016435,-0.7303440268114209,-0.5448545172194018
1783003166087811300,1.144811279296875,4.763976735064387,-0.7042536000043154,-0.6126563895419239
1783003166097863200,1.15486328125,4.793290507832169,-0.6080686233602464,-0.5460772274147719
1783003166107915300,1.164915283203125,4.712500814849138,-0.6827420984853059,-0.14356476838579402
1783003166117967000,1.174967041015625,4.663206914848089,-0.7731971531752496,-0.0459752587060444
1783003166128018200,1.18501806640625,4.480924932593107,-0.6345848743639886,-0.16832381872497498
1783003166138070000,1.195070068359375,4.332424808430671,-0.7763439998336136,-0.17951030731825157
1783003166148122000,1.2051220703125,4.2384114767372605,-0.9450937158204614,0.131175881732814
1783003166158173200,1.215173095703125,4.074714952486754,-0.7446786955036222,0.24729802325125783
1783003166168225000,1.22522509765625,3.7484319110542534,-0.5193785325162112,-0.014404939183127134
1783003166178277400,1.23527734375,3.0721734024345873,-0.35955461191534993,-0.06446975049143656
1783003166188329200,1.2453291015625,2.0240449902057644,-0.1523755042910576,0.06908977497490122
1783003166198380300,1.25538037109375,1.016489995905757,0.4295252431116998,0.07839678823081776
1783003166208432000,1.26543212890625,0.11324293282032012,1.0625110117159784,-0.33274635569509114
1783003166218484200,1.275484130859375,-1.2511562453925609,2.106148980657756,-0.94108681826666
1783003166228535300,1.285535400390625,-2.880401122778654,3.7114582711830733,-1.3047064876638352
1783003166238587100,1.295587158203125,-2.7473709549486633,4.923837626674771,-1.8610308952614665
1783003166248639200,1.30563916015625,-2.4491882188409564,4.951413031342625,-1.7018392812147736
1783003166258691000,1.315691162109375,-3.695884562215209,2.95041135533303,-0.3909521321546286
1783003166268742100,1.3257421875,-7.649840799424052,-1.2701742495954036,1.8989497070282697
1783003166278794000,1.3357939453125,-12.447564321267604,-5.72109275098145,3.3416862166360017
1783003166288846300,1.345846435546875,-15.729434951627253,-6.813931827074289,2.709721315512061
1783003166298898200,1.355898193359375,-16.723386367988585,-4.582231928426027,0.2861289448942989
1783003166308949200,1.36594921875,-16.022596060180664,-1.1386053864896297,-2.483160631069541
1783003166319001000,1.3760009765625,-13.703437658309936,1.2958590182110667,-4.282354371099173
1783003166329053200,1.38605322265625,-12.221279531157016,1.3433084593892097,-4.2196889483496545
1783003166339104300,1.396104248046875,-12.76374507088065,0.014060966317355632,-3.031662528347969
1783003166349156000,1.406156005859375,-12.238354584598541,-2.2428554989129306,-1.5611846098557114
1783003166359208200,1.416208251953125,-10.11885015554428,-4.029446362479031,-0.16948798539983106
1783003166369260000,1.426260009765625,-7.909442752724885,-4.860723875635862,1.0201008798792959
1783003166379311000,1.43631103515625,-5.894190725305676,-5.671573810052871,1.4796857456900179
1783003166389363000,1.446363037109375,-3.771017252349853,-6.0890533721923825,1.1310742603324353
1783003166399415300,1.456415283203125,-1.8490069877296684,-5.850301899218559,0.40552148638553914
1783003166409466400,1.46646630859375,-0.6024047523796559,-5.856688385385275,-0.36517953912504014
1783003166419518200,1.476518310546875,0.08776771530210971,-5.710730346921086,-1.036084850148484
1783003166429570300,1.4865703125,-0.2961146976619959,-4.6096951048910615,-1.4374506781592964
1783003166439622100,1.4966220703125,-0.3759732472747564,-2.87962487770915,-1.5471575458079576
1783003166449673200,1.506673095703125,-0.03777472712099552,-1.5086056968346238,-1.6306680420570074
1783003166459725000,1.51672509765625,0.5284399369806051,-0.3244295225203037,-1.5663091132625937
1783003166469777200,1.526777099609375,1.065668160572648,0.9707513041682541,-1.273064418078959
1783003166479829000,1.5368291015625,2.2200141370296476,1.4138586440391838,-0.6017886663079262
1783003166489880000,1.546880126953125,3.5976918990105387,1.1673571414604782,0.11875526650100945
1783003166499932200,1.55693212890625,4.431443401065469,0.6404637032695114,0.5367705429524183
1783003166509984300,1.566984375,5.210377855783701,0.2053869635105133,1.0621893785461782
1783003166520035300,1.577035400390625,5.687500277981162,-0.21481135606840251,1.2065947807408868
1783003166530087200,1.587087158203125,5.976863747817277,-0.6363852017842233,0.7219387481682003
1783003166540139300,1.59713916015625,6.2319227969914675,-0.5826308152429759,0.5016964530922472
1783003166550191000,1.607191162109375,6.4683876203328365,-0.6943022609628736,0.7366423963032662
1783003166560242200,1.6172421875,6.547044392940402,-1.2708115245856344,0.5846525303289294
1783003166570294000,1.6272939453125,6.298158479443192,-1.3393565068930386,0.6799753371857107
1783003166580346000,1.63734619140625,6.249899183186888,-0.7123587266571819,0.8196591176860034
1783003166590398000,1.64739794921875,6.419003119438886,-0.28464696270823475,0.7829638563647866
1783003166600449000,1.657448974609375,6.334239846649766,-0.05665449189692735,0.6252464065238833
1783003166610501000,1.667501220703125,6.251596634754538,0.2538831372626126,0.5886123738706112
1783003166620553200,1.67755322265625,6.237880828613043,0.7052825046606361,0.7965554516047239
1783003166630604300,1.687604248046875,6.173340259641408,1.0512149800673127,0.7818864363916218
1783003166640656100,1.69765625,6.379357922270894,1.1906469777636228,0.6198243814751505
1783003166650708200,1.707708251953125,6.606217881920934,1.2691368693716822,0.7517039179652929
1783003166660760000,1.717760009765625,6.489352666950225,1.1126648895472286,1.0112943269588053
1783003166670811400,1.727811279296875,6.365629256647825,0.8893956478655338,1.235629882697761
1783003166680863500,1.737863525390625,6.408316890251636,0.8436538873881101,1.3052714280702173
1783003166690915300,1.747915283203125,6.400243473911285,0.7767699701607227,1.2264435366794466
1783003166700966400,1.75796630859375,6.17762655865848,0.9350903543308376,1.0519805576123296
1783003166711018200,1.768018310546875,5.582616592705249,1.3306675890028477,0.9347260510630905
1783003166721070600,1.778070556640625,5.126357510316372,1.6235422818303107,0.8843754816159606
1783003166731122400,1.788122314453125,4.437193342894315,2.0343135785028337,1.0291099696345627
1783003166741173500,1.798173583984375,3.408313236492872,2.4333660880699752,0.9096246352933347
1783003166751225300,1.808225341796875,2.20080090251565,2.5611153928875923,0.7748271655298768
1783003166761277400,1.81827734375,1.0562176106601953,2.61963392509073,0.6344057184047996
1783003166771329300,1.828329345703125,0.41766836270987984,2.6575691034704447,0.27652210844159125
1783003166781380400,1.83838037109375,-0.26777707644999027,2.62453864826709,0.20045264891348777
1783003166791432400,1.848432373046875,-0.4355301826149225,2.2956305190280077,0.6490726877912879
1783003166801484300,1.858484375,-0.6898550722956657,1.284412910567224,0.8053269332118332
1783003166811535400,1.868535400390625,-2.1494635139882563,-0.5494745417028665,1.2215352333065121
1783003166821587200,1.878587158203125,-4.61242131498456,-3.0283728391528126,2.3656796222880483
1783003166831639600,1.8886396484375,-7.821997693505883,-5.283116344258189,3.558518703268468
1783003166841691400,1.89869140625,-11.303403638738393,-6.297515505364537,4.049627857503295
1783003166851742500,1.908742431640625,-14.107414764797687,-7.054505839300155,3.267824569350481
1783003166861794600,1.918794677734375,-15.210134014391897,-7.741597292101383,2.035370686340332
1783003166871846400,1.928846435546875,-16.039586942470073,-6.743852328675985,0.9591137656055391
1783003166881898500,1.9388984375,-16.144002425712348,-5.371399607867002,-0.4200273469261825
1783003166891949300,1.94894921875,-15.200858821046351,-5.133045025256276,-2.1104477007649836
1783003166902001400,1.95900146484375,-13.818629387110471,-5.069495220887661,-2.7019845837801695
1783003166912053200,1.96905322265625,-12.117622757327556,-5.329080807575584,-2.1404420031428337
1783003166922104300,1.979104248046875,-9.50897638245821,-5.807880223074555,-1.307134883854538
1783003166932156400,1.989156494140625,-6.89867464159727,-5.736294996288418,-0.38625531610790637
1783003166942208500,1.99920849609375,-4.112611260160803,-5.586968358173966,0.5146319955762475
1783003166952260600,2.009260498046875,-1.2792799315929413,-5.166177479529381,1.0231571987099946
1783003166962311400,2.0193115234375,1.2225287013232706,-4.280766809646785,1.062918131212145
1783003166972363500,2.029363525390625,3.1883319304406643,-3.441443644939363,0.5379348374914378
1783003166982415400,2.039415283203125,4.11694490545094,-2.7310391210898755,-0.26919680705480276
1783003166992466400,2.049466552734375,3.7340444892615077,-2.155027285595238,-0.8553660255569964
1783003167002518500,2.0595185546875,2.9787808329880234,-2.0089070423066615,-1.2379334834650157
1783003167012570400,2.0695703125,2.3182021240592,-0.9401742334663867,-1.939761025366187
1783003167022622500,2.07962255859375,1.2230313901484011,1.3783639906793832,-1.97089178442806
1783003167032673300,2.08967333984375,-1.388670280638337,1.8844313523322342,-1.1519110043950378
1783003167042725400,2.099725341796875,-0.7919307144135236,2.918566018261015,-2.030700648702681
1783003167052777200,2.109777099609375,-0.37624095830023285,3.5532536223471163,-2.248258380869776
1783003167062829600,2.11982958984375,0.17289105357527731,4.004299938523769,-1.8854960589542984
1783003167072880400,2.12988037109375,1.5252455737292765,3.8777459809705612,-1.5287673181146382
1783003167082932500,2.139932373046875,2.494714290741086,3.267615895035863,-1.1061598915673791
1783003167092984300,2.149984375,3.5117508146136998,2.5220205230787394,-1.0440552445057778
1783003167103035400,2.160035400390625,4.367486769461632,1.7692744025841354,-1.020673857461661
1783003167113087500,2.17008740234375,5.191771939513087,1.0704802370294928,-1.2777511145904659
1783003167123139300,2.180139404296875,5.662687908285856,0.5684820245116948,-1.4222002097964286
1783003167133191400,2.19019140625,5.878638935908675,0.25965835966318845,-1.5122507753387093
1783003167143242200,2.2002421875,6.169506380566954,0.2207669034719467,-1.6160222615890203
1783003167153294300,2.21029443359375,6.214636731147766,0.6894841931566595,-1.4248780507035552
1783003167163346200,2.22034619140625,6.184417533972859,1.2793307849973439,-1.1784994438521563
1783003167173397200,2.230397216796875,6.241449919271469,1.4319208088219164,-0.9028983957782387
1783003167183449600,2.24044970703125,6.156378603446483,1.4954337883114814,-1.1022682909563184
1783003167193501400,2.25050146484375,6.115040046364069,1.9307336693018673,-1.051166903141886
1783003167203553500,2.260553466796875,5.877033838799595,2.4853394364133474,-0.8021085556872188
1783003167213604400,2.270604248046875,5.798781555339693,2.578350313065946,-0.6366119962774217
1783003167223656400,2.280656494140625,5.931262857115269,2.4935081298217177,-0.5405734788993373
1783003167233708300,2.290708251953125,5.970780628511309,2.460780749218166,-0.6243902280859649
1783003167243760400,2.300760498046875,6.090066348627209,2.4975831241756676,-0.7972294053435325
1783003167253811500,2.3108115234375,5.977428395962715,2.7332915761917826,-0.7378497262664139
1783003167263863300,2.32086328125,5.839433299201726,2.8634526183262468,-0.6451261421225964
1783003167273915400,2.330915283203125,5.619065039658546,2.802455421049893,-0.5760670362805947
1783003167283966200,2.34096630859375,5.2319940597862,2.7084520262286067,-0.595934314256534
1783003167294018600,2.3510185546875,4.652978366300464,2.7468223811551926,-0.49669345717318353
1783003167304070400,2.3610703125,3.7170658819317817,2.8122587299227715,-0.6278474558677524
1783003167314122500,2.37112255859375,2.7882857336610556,2.6333704817593095,-0.6092611941456795
1783003167324173600,2.381173583984375,1.8746318428516386,2.789056133511662,-0.43207324709407985
1783003167334225400,2.391225341796875,1.0985738203525544,3.265829303880036,-0.446711428777501
1783003167344277500,2.401277587890625,-0.07003799734413624,3.537292667627334,-0.6727215666651726
1783003167354328300,2.411328369140625,-0.9343442121386527,3.658382222294807,-0.6323837110579014
1783003167364380400,2.42138037109375,-1.553732832545042,3.3830215588480232,-0.07719588800845667
1783003167374432300,2.431432373046875,-2.552747377514839,2.116023016679287,0.9077341453716158
1783003167384484400,2.441484375,-4.145238687521219,-0.5885907465606928,1.9502531932860612
1783003167394535400,2.451535400390625,-6.583883885037898,-3.3164959535390137,3.3110224905639885
1783003167404587500,2.46158740234375,-9.267823109039664,-4.933262457624077,4.408263308747112
1783003167414639400,2.471639404296875,-11.032429812073707,-5.719781668382883,3.6493235943093896
1783003167424691500,2.48169140625,-12.033731006675957,-4.813008769258857,2.023252232392877
1783003167434742500,2.491742431640625,-12.129469846987723,-2.38241477625072,0.47131307833157476
1783003167444794400,2.50179443359375,-11.052893923431634,-0.8831377565145492,-0.9415648841071873
1783003167454846500,2.511846435546875,-10.15191538980007,-1.1951169627845286,-1.2586198592714966
1783003167464897300,2.521897216796875,-9.79810487449467,-3.1842730104386803,-0.21619228903278706
1783003167474949400,2.531949462890625,-8.830062390893698,-5.597130855748057,1.173434927004203
1783003167485001200,2.542001220703125,-7.257042089554667,-7.2023045371949665,2.20460497097373
1783003167495053300,2.55205322265625,-5.793969186621904,-7.990185099434852,2.507144148725271
1783003167505104400,2.5621044921875,-4.605422249877453,-8.697803791958092,1.7742359705142676
1783003167515156500,2.572156494140625,-3.592883621945977,-8.92492854002416,0.7514307270471006
1783003167525208600,2.58220849609375,-2.4396307014226912,-8.120766120547056,-0.28236553724016994
1783003167535259400,2.59225927734375,-0.7918693396151065,-6.560861321368813,-1.4539474933214485
1783003167545311500,2.6023115234375,0.5682423705369234,-4.665925233896076,-2.311482168154418
1783003167555363300,2.61236328125,1.4814233831375836,-3.0444053978040815,-2.5563927482798694
1783003167565415400,2.62241552734375,2.134048502713442,-1.8864491218954325,-2.3026757613644
1783003167575466500,2.632466552734375,2.5725901421040294,-0.8512623165652156,-2.0182994322910903
1783003167585518300,2.642518310546875,2.4996558387964964,0.042753684577345845,-1.9578660063773392
1783003167595570400,2.6525703125,2.6452035428941247,0.6197314424946904,-1.9513263754755257
1783003167605622300,2.662622314453125,2.70369898648262,0.9812959329277277,-1.8233749722145496
1783003167615673300,2.67267333984375,2.839097052487731,1.2288126038983465,-1.8038779523231088
1783003167625725400,2.682725341796875,3.4685821194946764,1.2564616583243011,-1.930644821974635
1783003167635777500,2.692777587890625,3.9188369930326936,1.1921315172329545,-1.8436223720818756
1783003167645828600,2.70282861328125,4.228708997890353,1.0397431534603236,-1.5084953683279454
1783003167655880400,2.71288037109375,4.595814463576674,0.8142822469532489,-1.0704110442508012
1783003167665932500,2.7229326171875,4.986134800633788,0.6776251207977533,-0.7722679825663566
1783003167675984400,2.732984375,5.296499557444453,0.8526727678850292,-0.38511604641228914
1783003167686035500,2.743035400390625,5.669164995345473,0.9287354323461652,0.12923713222257793
1783003167696087300,2.75308740234375,5.809226961508393,0.8917673454329371,0.18440496575832366
1783003167706139400,2.763139404296875,5.810815692004561,1.1964093406826257,0.14508658939190208
1783003167716191200,2.773191162109375,5.883670500335097,1.3075029865145682,0.40184228641614317
1783003167726242300,2.7832421875,5.841090418758988,1.0898147598356007,0.5793248325001448
1783003167736294400,2.79329443359375,5.66631778922081,1.0937718268983065,0.6574624035391956
1783003167746346500,2.803346435546875,5.6773588231950995,1.1698223625302313,0.6451246808178722
1783003167756397600,2.8133974609375,5.75067131216526,1.1196212845563889,0.4067001017108559
1783003167766449400,2.823449462890625,5.746274538511037,1.27219494176805,0.43021833994239567
1783003167776501500,2.83350146484375,5.938661150673031,1.2024836921602486,0.700265114890039
1783003167786553300,2.84355322265625,5.9961494630455965,0.9064446900829672,0.9892278219055384
1783003167796604400,2.8536044921875,5.987287526676059,0.7976049606576562,1.1724736076913773
1783003167806656300,2.86365625,6.06983078532815,0.794602563971281,1.179067014607042
1783003167816708400,2.873708251953125,6.0232695251613855,0.7795660306200385,1.1814931457754223
1783003167826760200,2.88376025390625,5.456142422389984,0.8164575451657176,1.09511980744116
1783003167836811300,2.893811279296875,4.864151511996984,0.9993208344399929,0.8786273664180189
1783003167846863600,2.903863525390625,4.440910317590832,1.2694430127114056,0.5596992177929729
1783003167856915500,2.91391552734375,3.8229976149559017,1.3326806823909283,0.31580585188604887
1783003167866966500,2.923966552734375,2.8263837013870474,1.2354147786423564,0.06391710331104695
1783003167877018400,2.934018310546875,1.8423387620121239,1.1998390228703617,-0.04912548463158309
1783003167887070500,2.944070556640625,0.7085141800582409,1.18183545640707,-0.22964001882262527
1783003167897122300,2.954122314453125,-0.3552051845341921,1.246849780370295,-0.2541857734709978
1783003167907173400,2.96417333984375,-1.2878688962399958,1.5819494577258824,0.12584748978428542
1783003167917225500,2.9742255859375,-1.522331732109189,1.6590423420175908,0.706114571570605
1783003167927277300,2.98427734375,-1.9672166030466556,0.7895245300546287,1.696822768227011
1783003167937328400,2.994328369140625,-3.7283646900594234,-0.7344774733543395,2.7215523308202623
1783003167947380200,3.004380126953125,-5.8908028364330525,-2.1656787357300518,3.790363465593755
1783003167957432600,3.0144326171875,-8.514000883746146,-2.9498472917094825,4.181915682533383
1783003167967484400,3.024484375,-10.919642806327342,-3.2462200557857748,3.776819508887827
1783003167977535500,3.034535400390625,-12.253103240919112,-3.17155439864099,2.8398694981649517
1783003167987587300,3.04458740234375,-13.315380590009688,-2.559463534027338,1.2682790834985673
1783003167997639400,3.054639404296875,-14.311525132501124,-1.6054837703093885,-0.1599623061582446
1783003168007691300,3.064691162109375,-14.284344864630699,-1.2043825115188955,-1.5803271172210573
1783003168017742300,3.074742431640625,-14.05151576744318,-1.6055506980657577,-1.86564920271188
1783003168027794400,3.08479443359375,-13.78664434930682,-2.8116423515900966,-0.8848567623268813
1783003168037846300,3.09484619140625,-13.027892850917578,-4.0652530043974515,0.6293553031474352
1783003168047897300,3.1048974609375,-11.281856992840765,-4.450446207699179,1.582545085531473
1783003168057949200,3.11494921875,-9.276354790541529,-4.459133956545591,1.9237461485020815
1783003168068001500,3.12500146484375,-7.443707401460409,-4.760680616128444,2.020031078389287
1783003168078053400,3.135053466796875,-5.825674238440394,-4.927057757765055,1.749647911094129
1783003168088104400,3.1451044921875,-4.051379085084796,-4.441331173351407,1.001688001962751
1783003168098156500,3.155156494140625,-1.9441256503164768,-3.441872099484503,-0.14469707861766218
1783003168108208400,3.16520849609375,0.13455810804963111,-2.3759128470107913,-1.1596176332496106
1783003168118260500,3.175260498046875,1.6732324876725673,-1.4209011098966002,-1.652249613137543
1783003168128311300,3.185311279296875,2.7732430628299714,-0.7708484711572527,-1.8676463678784667
1783003168138363400,3.19536328125,3.382104444003105,-0.2707283274710178,-2.401477350247651
1783003168148415200,3.205415283203125,3.830692261111736,-0.08034399504214525,-2.5409815363973376
1783003168158466300,3.21546630859375,3.861093829116225,0.1706166789025068,-1.8009180796042084
1783003168168518400,3.225518310546875,3.464852869838476,0.5774398224711418,-1.212423486894369
1783003168178570500,3.235570556640625,3.2189918571203946,0.9462047458022832,-0.9844269244298338
1783003168188622600,3.24562255859375,3.3006869745105503,1.3423881296738982,-0.7750076366633176
1783003168198673400,3.25567333984375,3.6948160562008616,1.7526719350904225,-0.5439243602298199
1783003168208725500,3.2657255859375,3.949828343623876,1.7979381870105862,-0.12156360192000865
1783003168218777300,3.27577734375,4.496805223292112,1.5118620682820676,0.44305444063991306
1783003168228829400,3.285829345703125,5.048926480111479,1.3025742979407309,0.8022313052840531
1783003168238880500,3.295880615234375,5.533518507537245,1.0006292866900564,0.9789964238137007
1783003168248932400,3.305932373046875,5.70580048930347,0.6166618257910013,1.1459678780816496
1783003168258984400,3.315984375,5.652130273914337,0.5398860446244478,1.1805325571149587
1783003168269035300,3.32603515625,5.929186635363101,0.5620642664238811,0.9582989420913159
1783003168279087400,3.33608740234375,6.095110188013315,0.4420432177707553,0.8249836737096309
1783003168289139500,3.346139404296875,5.95074847882986,0.33927579399645325,0.8549147015929222
1783003168299191600,3.356191650390625,5.972062485015392,0.268087165312469,0.9306669849306345
1783003168309242400,3.366242431640625,6.079879301133752,0.3887070566415787,0.8895536149062215
1783003168319294500,3.37629443359375,6.115761346375942,0.5338412115022539,1.0145609275393188
1783003168329346300,3.38634619140625,5.947237840360403,0.5778872739776969,1.2431858510352671
1783003168339398400,3.3963984375,5.7465708911091085,0.6147206285953521,1.32856959381029
1783003168349449500,3.406449462890625,5.919042842489481,0.7870879505574703,1.3259323771744966
1783003168359501300,3.416501220703125,5.817534771126509,0.9699845575794577,1.4735203549280762
1783003168369553400,3.426553466796875,5.654860575661063,0.8907485237792134,1.713514083047956
1783003168379604200,3.436604248046875,5.553527860864997,0.8933476003617048,1.8135101424127815
1783003168389656300,3.44665625,5.627046101540326,1.003744203840196,1.4543845695644617
1783003168399708400,3.45670849609375,5.669762376716733,1.2204457575693726,1.1133932038217782
1783003168409760500,3.466760498046875,5.34868859436512,1.2706944740772246,0.9715836633391678
1783003168419811600,3.4768115234375,4.608966206094622,1.0240192223668099,0.7757419422872364
1783003168429863400,3.486863525390625,3.468467553204298,0.9100926911965012,0.3445011274293065
1783003168439915500,3.49691552734375,2.6051778219759463,1.025885600760579,-0.08101129984445869
1783003168449966300,3.50696630859375,1.5826643279969692,1.1818611753702164,-0.48091823428384955
1783003168460018400,3.517018310546875,0.6153969204217196,1.4441680037155746,-0.6898109408929943
1783003168470070300,3.5270703125,0.016000117686390876,1.8271335940957067,-0.7622031732130795
1783003168480122400,3.537122314453125,-0.45879123121500015,2.0494059336945414,-0.5304528842382132
1783003168490173400,3.54717333984375,-0.6640513534754514,1.492758139361441,0.20281985296886412
1783003168500225300,3.557225341796875,-1.54474697753489,0.13550678707659244,1.1021868232179433
1783003168510277600,3.567277587890625,-3.795097216117382,-1.4264137358382343,2.0227968898408113
1783003168520329500,3.57732958984375,-6.776728177839517,-3.0501416033685205,3.03904620885849
1783003168530380500,3.587380615234375,-9.895941563868522,-4.597178737667202,3.6649168847605584
1783003168540432400,3.597432373046875,-12.201057411861418,-5.062132583165169,3.099063455186784
1783003168550484500,3.607484375,-13.259785544037818,-3.9461704056382176,1.6162375117748975
1783003168560535600,3.61753564453125,-13.061670032835005,-1.7867691427424548,0.42324378822203723
1783003168570587400,3.62758740234375,-12.558662058752775,0.4818184710592031,-0.0863161647869274
1783003168580639500,3.637639404296875,-12.125062551939486,1.0669295588105916,0.04957732918546535
1783003168590691300,3.64769140625,-11.58051260715723,0.05619067377746105,0.26381416416838765
1783003168600742400,3.657742431640625,-10.381247877043485,-1.4175094216316937,1.0623118358820676
1783003168610794200,3.667794189453125,-8.69359581887424,-2.424705811752379,1.5726527832008896
1783003168620846600,3.6778466796875,-7.649446831670403,-2.7520781097263094,1.550898193641007
1783003168630897400,3.6878974609375,-6.656065324151515,-3.2784269196465607,0.9894428528957069
1783003168640949500,3.697949462890625,-5.931119064730406,-4.036702324956655,0.11978460954874753
1783003168651001300,3.70800146484375,-4.563254256233573,-4.256028966492414,-0.9831038591325283
1783003168661053400,3.718053466796875,-2.883638789525628,-3.7292312437608834,-2.3564123199880123
1783003168671105000,3.72810498046875,-1.2046996146440505,-2.683509308151901,-3.2639661403566596
1783003168681156900,3.738156982421875,0.39608781454265113,-1.4931246345862745,-3.286209536346793
1783003168691209000,3.748208984375,1.3318576755702496,-0.4395622146099806,-2.984422053745389
1783003168701260800,3.7582607421875,2.08668060233891,-0.1519254224359989,-2.3616765241265294
1783003168711312000,3.768311767578125,2.518759767717123,-0.0730742963001132,-1.948442636732757
1783003168721364000,3.778364013671875,2.2946423847734927,0.3446908047825098,-1.345344349130988
1783003168731416000,3.788416015625,2.103597834870219,0.32035745077580213,-1.068928404477611
1783003168741467000,3.798466796875,2.07084707339108,0.08099836729764938,-1.087770102265477
1783003168751519000,3.80851904296875,2.2073323501110074,0.05470540365576744,-1.543024829917401
1783003168761570800,3.81857080078125,3.0241099210113287,0.0549792521610856,-2.1311805460616946
1783003168771623000,3.828622802734375,3.8000621450483796,0.1770440816015005,-2.742597749197483
1783003168781674000,3.838674072265625,4.1395401836186645,0.17611264597028492,-2.7661539813518523
1783003168791725800,3.848725830078125,4.563358885651827,-0.02169248410910368,-2.239841265658289
1783003168801778000,3.85877783203125,5.05610674700439,-0.0765051475316286,-1.7100738794662058
1783003168811829800,3.868829833984375,5.2299868116170165,-0.09325228419303894,-1.1569053055509924
1783003168821880800,3.878880859375,5.1421740881294005,-0.02030775175243616,-0.3579834170758724
1783003168831933000,3.888932861328125,4.949906718432903,0.29936171675920487,0.2196706326678395
1783003168841985000,3.898985107421875,4.492349412927031,0.7662757564142346,0.17033932326585052
1783003168852036000,3.9090361328125,4.419715553870797,1.1516665281146765,-0.009823767139017581
1783003168862088000,3.919087890625,4.25991486801505,1.5482020864248276,0.1312988139927387
1783003168872140000,3.92914013671875,4.0492607777565714,1.9704612840563058,0.07096051901653408
1783003168882192000,3.93919189453125,4.042974829354882,2.2765078854069114,-0.1702311136510223
1783003168892243000,3.949242919921875,4.016095005735755,2.3749007473587986,0.018647271194308996
1783003168902294800,3.959294677734375,4.078804267627,2.3407485946491358,0.34385523074120283
1783003168912347000,3.969346923828125,4.340559599569439,2.4267434550598264,0.4100401328537613
1783003168922398000,3.97939794921875,4.568590941086411,2.450914311981201,0.3303418518366292
1783003168932449800,3.98944970703125,4.537191009694338,2.460019117195904,0.30326522700376807
1783003168942502100,3.999502197265625,4.4760593723833555,2.4508722264051435,0.2206859837228432
1783003168952554000,4.009553955078125,4.124645981347561,2.400208791616559,0.23759349857773632
1783003168962605000,4.01960498046875,3.6239983066558836,2.3722359120637178,0.18600860156267882
1783003168972657000,4.029656982421875,3.275823166888952,2.4823966609597203,-0.12540935409534723
1783003168982709000,4.039708984375,2.844854008579254,2.667221313434839,-0.5615013718441129
1783003168992760800,4.0497607421875,2.7452339429199695,2.6764932919099924,-0.7542416197493672
1783003169002812000,4.05981201171875,2.5732518208831547,2.630283037137985,-0.8812292925447225
1783003169012864000,4.069864013671875,1.944652889060974,2.6453736387640236,-1.0803552228990942
1783003169022915800,4.079915771484375,1.5768851600736378,2.725137495830655,-0.4770261222161352
1783003169032967000,4.089966796875,0.8987310469657183,2.2957298877492547,0.13235184844331815
1783003169043018800,4.100018798828125,-0.1480921278834343,1.494774447619915,0.2571987098176963
1783003169053071000,4.110071044921875,-0.9736293438225984,0.9633066872507333,0.24240422332771122
1783003169063123000,4.120123046875,-1.430675777196884,0.8010419493690133,0.4230618557838723
1783003169073174000,4.130174072265625,-2.0683131709992884,0.5473617873325943,0.8553434483990072
1783003169083225900,4.140225830078125,-2.9690444518715142,-0.9679600660145282,1.7833324462920426
1783003169093278000,4.15027783203125,-3.7898756820768114,-3.081185560929775,3.0982962702065704
1783003169103329000,4.1603291015625,-4.832783144786954,-4.771861350834369,3.940866161750257
1783003169113380900,4.170380859375,-7.033809088230132,-6.4358069547235965,4.103428713534772
1783003169123433000,4.180432861328125,-8.993855361256003,-7.729412933310866,3.4801968617036936
1783003169133484800,4.19048486328125,-10.011237337565422,-7.509291926527023,1.9906635296076536
1783003169143535900,4.200535888671875,-10.798910979056357,-5.84560000513792,0.1459913196792826
1783003169153587700,4.210587646484375,-10.874579675763846,-5.194257326588034,-0.6534097671475261
1783003169163640000,4.22064013671875,-10.363536863785981,-5.121925080826879,-0.4894145156787708
1783003169173692000,4.23069189453125,-9.775043732380867,-5.459910835012793,0.3897691694477573
1783003169183743000,4.240742919921875,-9.108698130488396,-6.656718819624185,2.086152486811578
1783003169193795000,4.250795166015625,-8.19541541107893,-7.788345599272847,3.8827959578365085
1783003169203847000,4.260846923828125,-6.902229703730344,-8.34424111393392,4.611504492400586
1783003169213898000,4.27089794921875,-5.195300698161125,-8.081379282054305,3.914104996074736
1783003169223949800,4.28094970703125,-4.030752476641536,-7.837653527799248,2.1822911400958893
1783003169234002000,4.291001953125,-3.3305268169790505,-7.575067005729675,0.3541261571258306
1783003169244053800,4.3010537109375,-2.1710265264987942,-6.725718121570348,-1.8889476607128977
1783003169254104800,4.311104736328125,-1.1867507009774445,-5.39051990340054,-3.542324816575646
1783003169264157000,4.321156982421875,-0.4397159438669681,-3.8789831215500827,-3.8852465658590196
1783003169274209000,4.331208984375,-0.6475684207081794,-2.167041840776801,-3.069825378003716
1783003169284260900,4.3412607421875,-1.569521937829256,-0.15613339551985264,-1.4750572091065346
1783003169294312000,4.35131201171875,-2.2085557544261216,1.7283429649978874,-0.4175896714504808
1783003169304364000,4.361364013671875,-2.402413023662567,3.3656630122900006,0.2959429943569004
1783003169314415900,4.371415771484375,-1.826416970258951,4.512915231093764,0.7520195597857237
1783003169324467000,4.381467041015625,-0.6598088936001062,5.147787836357951,1.2780693867594002
1783003169334518800,4.391518798828125,0.9267495192259549,4.378540662917494,0.8079938143335282
1783003169344571000,4.40157080078125,2.1398142266333102,3.5387861210554834,0.7715365995518862
1783003169354622700,4.411622802734375,3.801342832508683,3.081802816045284,0.7414788034837693
1783003169364673800,4.421673828125,4.620354446071386,3.0472137332230806,0.6845794699802994
1783003169374726000,4.431725830078125,5.741503086325526,2.8296681298851967,0.9934490197971463
1783003169384778000,4.441778076171875,6.670346947482228,3.051043520644307,1.358343531435728
1783003169394828800,4.451828857421875,7.176335398679972,3.6464480388730762,1.6607677045054732
1783003169404881000,4.461880859375,7.676599042490124,3.764107619091868,2.063422184087336
1783003169414933000,4.47193310546875,7.68488697836399,3.7746746058136225,1.9678841270446776
1783003169424984800,4.48198486328125,7.950079883539676,4.301626350063085,1.7983961599111555
1783003169435036000,4.492035888671875,7.769495352852344,4.678707266318797,1.5892337695151566
1783003169445088000,4.502087890625,7.617296374171972,4.511332930338383,1.232364158900082
1783003169455139800,4.512139892578125,7.107863920000195,4.2491450521975755,1.2765521140642464
1783003169465192000,4.52219189453125,6.9741323259025805,4.316504770243168,0.8865955688182264
1783003169475242800,4.53224267578125,7.4486664851725095,4.721598898062109,0.2549322261904366
1783003169485294800,4.542294921875,6.97657621192336,4.73446714746356,0.2113102526122704
1783003169495347000,4.552346923828125,7.012759285938739,4.211757863089442,0.048348855969589204
1783003169505397800,4.562397705078125,7.069582412400841,4.22654977402985,-0.25540119540905576
1783003169515450000,4.5724501953125,6.954093161958456,4.244046852275729,-0.5444496262129396
1783003169525502000,4.582501953125,6.809056329992413,4.091327649113536,-0.7649627741195261
1783003169535554000,4.592553955078125,6.7533928949594495,4.125026505097747,-1.1003228559769689
1783003169545604900,4.60260498046875,6.379985698780417,4.337483260864019,-1.2083163438364863
1783003169555657000,4.612656982421875,5.928699144107103,4.371727475771308,-1.192355973638594
1783003169565708800,4.622708740234375,5.3849792204082005,4.13538949368,-1.0226827130660414
1783003169575760000,4.632759765625,4.772051904970407,3.842610077920556,-1.2511486466079949
1783003169585812000,4.64281201171875,4.029918363904953,3.9639778650075197,-1.662747918537259
1783003169595863800,4.65286376953125,2.943245993748307,3.9340819084376095,-1.8723126061238347
1783003169605916000,4.662916015625,2.1972335654228923,3.383859178715944,-1.9691746052466332
1783003169615966700,4.672966796875,1.150872747388482,3.421895771643519,-1.7477568366505205
1783003169626019000,4.68301904296875,0.8062035699158906,3.2362071958154437,-1.2236150352552533
1783003169636071000,4.69307080078125,0.6350245809555053,2.0831360615998507,-0.20711345850955692
1783003169646122000,4.7031220703125,0.8480705347865819,0.09662439097464084,1.3075401036545633
1783003169656173800,4.713173828125,0.5206301400125026,-2.606463185611367,2.8673037407964466
1783003169666226000,4.723225830078125,-1.0464204392671586,-5.046593068727851,3.904929463711381
1783003169676278300,4.7332783203125,-2.5678081685245036,-5.989364917472004,3.289605316264927
1783003169686329300,4.743329345703125,-3.856289643704891,-5.564276633894443,1.1493763713508844
1783003169696381400,4.75338134765625,-4.238018678027391,-4.763620176711679,-0.8340096415344626
1783003169706433300,4.763433349609375,-5.524515116870403,-5.008408591762185,-2.0547792972959575
1783003169716485400,4.7734853515625,-7.075248183077574,-6.035152270656824,-1.8244731427147984
1783003169726536200,4.7835361328125,-7.637391652217507,-6.3274991402179,-1.154615294917673
1783003169736588300,4.79358837890625,-8.635777251634002,-6.583050941345095,-0.3183672998718917
1783003169746640100,4.80364013671875,-9.429047690218686,-7.613183678156137,1.6503765127420424
1783003169756691200,4.813691162109375,-9.96970588825941,-8.611482768332957,2.499615799047053
1783003169766743300,4.823743408203125,-10.529392611896991,-8.885251778674125,2.040703425670415
1783003169776795400,4.83379541015625,-11.365184095346928,-8.77491041251421,0.5517803709598258
1783003169786847200,4.84384716796875,-11.433775401014088,-8.271349480724334,-1.0593656263623386
1783003169796898300,4.853898193359375,-11.332224075031279,-7.465933846315741,-1.865934449394047
1783003169806950400,4.863950439453125,-10.947328101110458,-6.5932292210102075,-1.5784516787379979
1783003169817002200,4.874002197265625,-9.897746567463875,-5.397113310316205,-0.08472966278046369
1783003169827053300,4.88405322265625,-8.41692231926322,-4.46072940904349,1.7122249200202524
1783003169837105200,4.894105224609375,-6.703218120470643,-3.486729478342831,2.5209055475741624
1783003169847157200,4.9041572265625,-4.688989590880275,-2.254050262144208,2.5069886659026146
1783003169857209000,4.914208984375,-2.8769425067573784,-1.4328005142658948,1.3102630988776682
1783003169867260200,4.92426025390625,-1.0454846197217702,-0.8259329372584819,-0.3644784416509792
1783003169877312300,4.934312255859375,0.4341840287029743,-0.22812486501932142,-1.949852211269736
1783003169887364400,4.9443642578125,1.5621259823590516,-0.0647059886664152,-2.7854157311826944
1783003169897416400,4.95441650390625,2.1369290265858174,0.04176204319149256,-2.673429812686145
1783003169907467300,4.96446728515625,2.0080051250308752,1.0013859502762557,-1.86198454272449
1783003169917519400,4.974519287109375,1.9516104531139133,1.954399499310553,-1.306743546449393
1783003169927571200,4.9845712890625,2.159824749004841,2.707459215798974,-0.7422533680528401
1783003169937622300,4.994622314453125,2.7064006466567516,3.2295734568893906,-0.2680044737313874
1783003169947674400,5.00467431640625,3.5784067683041094,3.6084111536845564,-0.3161315401764586
1783003169957726200,5.014726318359375,4.2427398613303895,3.9526214814737437,0.017108910045353695
1783003169967777300,5.02477734375,5.240254523131251,3.502829549272358,0.05890671866997145
1783003169977829000,5.0348291015625,5.9876797408640385,2.9430247522130606,-0.017689943070011212
1783003169987881200,5.044881103515625,6.58690352512002,2.549605280096829,-0.26329832360073924
1783003169997933300,5.054933349609375,7.283913145345449,2.7267458078101274,-0.49932530351411547
1783003170007984400,5.064984375,7.855076956287026,2.854637443707883,-0.47718357780016957
1783003170018036500,5.075036376953125,7.910412474539876,2.602358965162933,0.2204789351097308
1783003170028088300,5.08508837890625,7.848883946865796,2.479254855802655,0.6880571560282259
1783003170038139400,5.095139404296875,7.6392779043555255,3.0062928170308467,0.880021304994449
1783003170048191200,5.105191162109375,7.177980827799439,3.417884490175545,1.118594060400501
1783003170058243300,5.115243408203125,7.192667524799704,3.450945632778108,0.969222194904834
1783003170068295200,5.125295166015625,7.092888469186425,3.432604504923522,0.737774907464534
1783003170078346200,5.13534619140625,7.178290624400973,3.4605291614204643,0.5359533082854002
1783003170088398300,5.1453984375,7.345410693359375,3.464129523999989,0.3309394158709794
1783003170098450200,5.1554501953125,7.469920870125294,3.3891122769385573,0.2969961384053342
1783003170108502300,5.165502197265625,7.589450335869192,3.192707953567803,0.22932830425864084
1783003170118553300,5.17555322265625,7.775577887636422,3.0515646219089625,-0.035080647465121
1783003170128605400,5.18560546875,7.736540008711814,2.974921527211368,-0.17924405759749934
1783003170138657300,5.1956572265625,8.038131091958284,2.9091935020208357,-0.3495342992909252
1783003170148708400,5.205708251953125,7.84805626387,3.0495319470375772,-0.11950957373334094
1783003170158760200,5.21576025390625,7.62177673445642,2.9480569011613724,0.30189775630915533
1783003170168812300,5.225812255859375,7.095011452689766,3.0720664349287747,0.30267639426514503
1783003170178864000,5.235864013671875,6.131407828319072,3.562834520640969,0.42026480894386764
1783003170188915200,5.245915283203125,5.257011596664786,3.555117078131437,0.4428704623751342
1783003170198967300,5.25596728515625,3.720821435073018,2.7556781800448893,0.6271914031118154
1783003170209019100,5.26601904296875,2.782331209170818,1.8768962806522844,0.18339421781320123
1783003170219070200,5.2760703125,1.5336568437218665,2.100682531945407,0.13074169156663118
1783003170229122300,5.286122314453125,0.8997364246159791,1.0923249890908597,-0.284130647216551
1783003170239174400,5.29617431640625,-0.07859598233103751,-0.7976730574578046,-0.33650844817496833
1783003170249226200,5.306226318359375,-1.6691490177512167,-2.3050606106743214,-0.10811875820700079
1783003170259277300,5.31627734375,-3.635243338769674,-3.3067645408585666,-0.2370371798692271
1783003170269329400,5.326329345703125,-5.619683463817834,-3.30447350731194,-1.1464659637968986
1783003170279381200,5.33638134765625,-7.811275223961472,-2.600896491394937,-1.9930185683012007
1783003170289432300,5.346432373046875,-10.11278866354823,-2.5996874078661203,-1.4053478591948747
1783003170299484200,5.356484130859375,-11.756809085261821,-3.2604081556141375,-0.23289562308508902
1783003170309536300,5.366536376953125,-12.318819867932795,-3.5795696746036407,0.5960306507704779
1783003170319588000,5.376588134765625,-12.258597746682167,-3.9585973410129545,1.24948407439664
1783003170329639200,5.38663916015625,-12.259020940530299,-5.0874587476015085,1.3751049888834357
1783003170339691500,5.39669140625,-12.3449982652843,-5.5616351794749495,0.45200938905514776
1783003170349743400,5.406743408203125,-12.697152830076217,-5.574642545086145,-0.7903783704049885
1783003170359794400,5.41679443359375,-12.915747650206088,-5.979831365451217,-1.804070990677178
1783003170369846300,5.42684619140625,-12.54785424901247,-6.3686389598578215,-2.7345126424193382
1783003170379898400,5.4368984375,-11.34589370394349,-6.076633451080322,-3.1913653067871928
1783003170389950200,5.4469501953125,-9.86485552073121,-5.504142190927267,-3.2000492562413214
1783003170400001300,5.457001220703125,-8.451149583035708,-4.963009945634007,-2.8091742079108952
1783003170410053400,5.467053466796875,-6.567803103330731,-4.208514643384516,-1.7898733923681078
1783003170420105200,5.477105224609375,-4.714943531826139,-3.3034237059980627,-0.9024502866845577
1783003170430156300,5.48715625,-3.036632717975974,-2.4837577201798555,-0.48726877235434946
1783003170440208100,5.4972080078125,-2.0201678565114736,-1.483507788196206,-0.4442820096734911
1783003170450260500,5.507260498046875,-1.5333581530362366,-0.5360217704117298,-0.8305635927338153
1783003170460312300,5.517312255859375,-1.7458686848163603,0.19816534169390795,-1.415472362846136
1783003170470363400,5.52736328125,-1.8568471798360346,1.0446918619088827,-1.7130303911842404
1783003170480415200,5.537415283203125,-1.715044507485628,1.9612673392534254,-1.638970006456226
1783003170490467300,5.54746728515625,-1.376049868518114,2.623220843666792,-0.9283750746011733
1783003170500518400,5.557518310546875,-0.8822662343770266,2.854984941971302,0.35867370089497413
1783003170510570200,5.5675703125,-0.06987900739014148,2.798217052827775,1.5285298560969531
1783003170520622300,5.577622314453125,1.0319266344904898,2.257395480918884,2.04347771268934
1783003170530674200,5.587674072265625,1.7443781539976595,1.3990987356722353,2.0519249307781458
1783003170540725200,5.597725341796875,2.8382968420207497,0.7866457597479224,1.532068990008533
1783003170550777000,5.607777099609375,3.9153555806577205,0.1199004910133779,0.698843484589085
1783003170560829400,5.617829345703125,4.864461308598518,-0.5298989036172628,0.26731281993910666
1783003170570880300,5.62788037109375,5.7783975234806535,-0.8495056821562349,-0.018363997273519634
1783003170580932400,5.637932373046875,6.455850210320949,-0.7912789725065231,-0.35532530378252264
1783003170590984400,5.647984375,7.094023610696196,-0.7522836175493895,-0.053837827041000125
1783003170601036300,5.658036376953125,7.465555076131224,-0.781522279254347,0.5595709883034229
1783003170611087400,5.66808740234375,7.530285030195117,-0.5107413448132574,1.2961115316674112
1783003170621139200,5.67813916015625,7.397692084738612,-0.1086149807587266,1.7384549014285207
1783003170631191300,5.68819140625,7.272892569637298,0.5103888781137764,1.8149653096571563
1783003170641242400,5.698242431640625,7.093534365874529,1.113430613222718,1.5974898489460347
1783003170651294200,5.708294189453125,7.207593875774741,1.3658021768786013,0.8889328526593744
1783003170661346300,5.71834619140625,7.4765855887115,1.6629799737274646,0.125604401743412
1783003170671398400,5.7283984375,7.524850145664811,2.0206445341125128,-0.05254972345922142
1783003170681449000,5.738448974609375,7.8684128232002255,1.9755866642460227,0.0933823403134942
1783003170691500800,5.748500732421875,7.871337770736217,1.7955137363426386,0.03193341721426696
1783003170701553000,5.758552978515625,7.592261886158585,1.9590952559113501,-0.05524151982646435
1783003170711604700,5.768604736328125,7.151897122994065,2.2347765296146274,0.10966353996358812
1783003170721655800,5.77865576171875,6.882870338743925,2.062534295336902,0.40723808104507625
1783003170731708000,5.7887080078125,6.236831611821055,2.098893018180132,0.4318819623056799
1783003170741759700,5.798759765625,5.402212094759941,2.5560695076748727,0.18739053917406126
1783003170751810800,5.808810791015625,4.863939330551028,2.8523762207776304,0.028931184924673288
1783003170761862700,5.818862548828125,4.202831044790148,2.687873056319356,-0.32049802829027174
1783003170771914800,5.828914794921875,3.2277567628562447,2.609307176865637,-0.7160266015149652
1783003170781966800,5.838966796875,2.58728502241075,2.5588345884740353,-0.7786414631210267
1783003170792018000,5.849017822265625,2.5415397548019882,1.8748007696777582,-0.2957691721599549
1783003170802070000,5.859070068359375,2.601494749549031,1.025820426569879,0.39261513346340504
1783003170812121900,5.869121826171875,2.060922476226091,0.3027507746756077,0.8732377823341637
1783003170822173000,5.8791728515625,0.4567191011160612,-0.4867997666031122,1.5753469907209277
1783003170832224800,5.889224853515625,-1.9647195255339145,-0.9616516135200858,1.9196859133258461
1783003170842276900,5.89927685546875,-4.628002330476045,-1.2833224849820137,1.0995841664388775
1783003170852328700,5.90932861328125,-6.911943873015046,-1.5688646429643034,-1.1234120551414788
1783003170862379800,5.9193798828125,-8.180634606054424,-1.7450275578171013,-2.7023516635268927
1783003170872431900,5.929431884765625,-8.274860119193791,-1.5676690034389495,-3.0197715995460745
1783003170882483700,5.939483642578125,-8.74197494211793,-1.2507368509367107,-2.0871888441219926
1783003170892534800,5.94953466796875,-9.530282789859175,-1.407279704040289,-0.804028637029603
1783003170902587000,5.9595869140625,-10.0349630810678,-1.9379253343716263,0.4221714462827891
1783003170912639000,5.969638916015625,-10.8357592389822,-2.804926487338543,0.68391632989645
1783003170922689800,5.979689697265625,-12.14643033413887,-3.8992040718019005,0.08270570093849673
1783003170932742000,5.989741943359375,-13.225064943790436,-4.464098885476589,-0.20484989749174565
1783003170942793700,5.999793701171875,-13.430327988660334,-3.7873113845467565,-0.3182502858961001
1783003170952845800,6.009845703125,-12.910305751413107,-2.6354966801330444,-0.4801517068907618
1783003170962897000,6.01989697265625,-12.143695940738915,-1.8805366829812526,-0.418943095353432
1783003170972948700,6.02994873046875,-10.905357091343403,-1.6397741624459623,-0.5908388177484274
1783003170983000800,6.040000732421875,-9.383976376348734,-1.980410723401606,-0.6021682767426595
1783003170993051600,6.0500517578125,-7.8970573184043165,-2.5541972840622065,-0.11575305247772484
1783003171003103700,6.060103759765625,-6.025690030306578,-3.1513696887463327,0.749920833940804
1783003171013155800,6.07015576171875,-4.4241684416264295,-3.5072412282347676,1.1493027215927838
1783003171023208000,6.0802080078125,-3.192878341698646,-3.350117068111896,0.8656004193235188
1783003171033259000,6.090259033203125,-1.7676362799882888,-2.837992013855278,0.09676920627281069
1783003171043310800,6.100310791015625,-0.9894143574535846,-2.0797962496526536,-0.8700797566946595
1783003171053363000,6.110363037109375,-0.45881285852491854,-0.9260388867385685,-1.1459979078937321
1783003171063414800,6.120414794921875,0.25049627130329605,0.631199031317979,-0.9051272508088499
1783003171073465900,6.1304658203125,1.3270698567718267,1.676255927146971,-0.47487281663976605
1783003171083517700,6.140517578125,2.1597902622133494,2.056080735283345,0.2397813274782151
1783003171093569800,6.15056982421875,2.470398180130124,2.021644651065767,0.839558727028966
1783003171103620900,6.160620849609375,2.9649346784651276,1.627060372953862,0.6664459935270249
1783003171113672700,6.170672607421875,3.542833935141563,1.153957853922248,0.17012831086367367
1783003171123725000,6.18072509765625,4.02623119982481,0.46124008567184205,-0.2113439722187817
1783003171133777000,6.19077685546875,4.302157680460811,-0.07186842764168977,-0.36545945204496383
1783003171143828000,6.200827880859375,4.818855741721391,-0.16874752402976154,-0.7595701943609863
1783003171153879800,6.2108798828125,5.431384997752309,0.09416589190661907,-1.0744856732785701
1783003171163932000,6.220931884765625,5.635773597875237,0.6018463878445327,-0.7103946600425988
1783003171173983000,6.23098291015625,6.631325435170531,1.26476786050722,1.0930309454031288
1783003171184034800,6.241034912109375,5.685991042461991,1.7894143965542315,3.2092566450476645
1783003171194087000,6.2510869140625,4.089257857102155,0.9328354150108993,2.296230823008716
1783003171204138800,6.261138671875,4.741723986724018,0.584633679497987,0.744218384515494
1783003171214189800,6.27118994140625,5.4149008959412575,1.0956567638620733,0.7899264619190245
1783003171224241700,6.28124169921875,5.112248320943117,1.1315176201857626,0.09426350706219673
1783003171234294000,6.2912939453125,4.806559154728054,0.5294073207080364,-0.6225820096202195
1783003171244344800,6.3013447265625,4.645342756855488,0.4453555571891367,-0.7601311161793768
1783003171254397000,6.31139697265625,5.03609271750152,0.6894682649351656,-0.5456614862207323
