time,seconds_elapsed,z,y,x
1783003165018564900,0.07556494140625,-0.08787685632705688,-0.3078784644603729,0.4598639905452728
1783003165028616000,0.085615966796875,-0.12593954801559448,-0.5232744216918945,0.6208499670028687
1783003165038668000,0.09566796875,-0.25918176770210266,-0.8171659111976624,0.7043405771255493
1783003165048720100,0.10572021484375,-0.44440382719039917,-1.1895629167556763,0.6620016694068909
1783003165058771200,0.115771240234375,-0.6076846122741699,-1.6491787433624268,0.4864990711212158
1783003165068823000,0.125822998046875,-0.6874979734420776,-2.0747008323669434,0.3070821762084961
1783003165078875100,0.135875244140625,-0.6569690704345703,-2.2336959838867188,0.2807579040527344
1783003165088927000,0.145927001953125,-0.5397010445594788,-1.9751675128936768,0.4412756562232971
1783003165098978000,0.15597802734375,-0.406798392534256,-1.3730051517486572,0.7300339937210083
1783003165109030000,0.16602978515625,-0.23590973019599915,-0.649588406085968,1.02991783618927
1783003165119082000,0.17608203125,0.0474572628736496,0.029515014961361885,1.329135775566101
1783003165129133000,0.186133056640625,0.4875587522983551,0.6222835183143616,1.7048749923706055
1783003165139185000,0.196184814453125,0.8291751742362976,1.2660465240478516,1.8190891742706299
1783003165149237000,0.206237060546875,0.813972532749176,1.7123936414718628,1.0005488395690918
1783003165159289000,0.2162890625,0.4135604202747345,1.4824168682098389,-0.12666499614715576
1783003165169340200,0.226340087890625,-0.11716657131910324,1.0935211181640625,-0.8078230619430542
1783003165179392000,0.23639208984375,-0.6725203394889832,0.6211019158363342,-0.8793105483055115
1783003165189444000,0.246444091796875,-1.0678964853286743,0.12489692866802216,-0.36312466859817505
1783003165199496000,0.256495849609375,-1.2170031070709229,-0.26574698090553284,0.6224414706230164
1783003165209547000,0.266547119140625,-1.0540107488632202,-0.6679631471633911,1.6020830869674683
1783003165219599000,0.27659912109375,-0.6646179556846619,-0.7762259840965271,2.371025562286377
1783003165229651000,0.28665087890625,-0.2112315446138382,-0.44385841488838196,2.9098989963531494
1783003165239702000,0.296701904296875,0.31413742899894714,-0.22023916244506836,2.8899965286254883
1783003165249753900,0.30675390625,0.815910816192627,-0.4770869314670563,2.2549514770507812
1783003165259806000,0.316805908203125,1.1663864850997925,-1.056113839149475,1.3118706941604614
1783003165269858000,0.326858154296875,1.396907091140747,-1.5775290727615356,0.22737909853458405
1783003165279909000,0.3369091796875,1.531274437904358,-1.9058581590652466,-0.6848204135894775
1783003165289961200,0.346961181640625,1.5553851127624512,-2.1892166137695312,-1.3838813304901123
1783003165300013000,0.357012939453125,1.4806541204452515,-2.3096306324005127,-2.0032150745391846
1783003165310065200,0.367065185546875,1.4207812547683716,-2.477588653564453,-2.3830602169036865
1783003165320116000,0.377115966796875,1.3557319641113281,-2.71132755279541,-2.158144950866699
1783003165330168000,0.38716796875,1.291194200515747,-2.326169967651367,-1.5947892665863037
1783003165340220000,0.397219970703125,1.3320167064666748,-1.6269725561141968,-0.6266782879829407
1783003165350271000,0.40727099609375,1.3759466409683228,-0.9384401440620422,0.41862043738365173
1783003165360323000,0.417322998046875,1.3703426122665405,-0.6789183020591736,1.1259344816207886
1783003165370375000,0.427375,1.3914231061935425,-0.020559869706630707,1.459884762763977
1783003165380427000,0.437427001953125,1.3914910554885864,0.6051791310310364,1.3213356733322144
1783003165390478000,0.44747802734375,1.3687124252319336,1.1435434818267822,0.7802332043647766
1783003165400530200,0.4575302734375,1.3607679605484009,1.6079304218292236,0.05884493887424469
1783003165410582000,0.46758203125,1.3598518371582031,1.9926426410675049,-0.6377437114715576
1783003165420634000,0.477634033203125,1.049916386604309,2.115064859390259,-1.1084166765213013
1783003165430685000,0.487684814453125,0.4148275554180145,2.076449155807495,-1.2490904331207275
1783003165440737000,0.497737060546875,-0.21103288233280182,1.9662134647369385,-1.1308817863464355
1783003165450788900,0.507788818359375,-0.5215393304824829,1.8121978044509888,-0.8515867590904236
1783003165460840000,0.51783984375,-0.551558256149292,1.5620797872543335,-0.5237902402877808
1783003165470892000,0.52789208984375,-0.3965899646282196,1.0688087940216064,-0.23735663294792175
1783003165480943900,0.53794384765625,-0.12698377668857574,0.4529232680797577,0.007547931279987097
1783003165490996200,0.547996337890625,0.15437358617782593,-0.061883341521024704,0.24588753283023834
1783003165501047000,0.558047119140625,0.39104577898979187,-0.49417349696159363,0.5675143003463745
1783003165511099100,0.56809912109375,0.4142232835292816,-0.8934599161148071,0.885471761226654
1783003165521151000,0.57815087890625,0.28988322615623474,-1.1122697591781616,1.161324381828308
1783003165531203000,0.588203125,0.15181748569011688,-1.1583986282348633,1.4017406702041626
1783003165541254100,0.598254150390625,0.028257204219698906,-1.0574216842651367,1.5685895681381226
1783003165551306000,0.608305908203125,-0.07109548151493073,-0.878834068775177,1.6304471492767334
1783003165561358000,0.618358154296875,-0.1459931582212448,-0.6116284728050232,1.6072137355804443
1783003165571409000,0.628408935546875,-0.17889465391635895,-0.3218209147453308,1.497110366821289
1783003165581461000,0.6384609375,-0.2101455181837082,-0.07036683708429337,1.2610275745391846
1783003165591512800,0.648512939453125,-0.27713972330093384,0.1412077248096466,0.9055852890014648
1783003165601565200,0.658565185546875,-0.3711485266685486,0.2446337193250656,0.5399165153503418
1783003165611616300,0.6686162109375,-0.48696672916412354,0.28478485345840454,0.3128868043422699
1783003165621668000,0.678668212890625,-0.5883761644363403,0.3351859748363495,0.24089330434799194
1783003165631720200,0.68872021484375,-0.6612951159477234,0.3861575424671173,0.2455088347196579
1783003165641771000,0.69877099609375,-0.7076416015625,0.46610963344573975,0.3608687222003937
1783003165651823000,0.708822998046875,-0.7624896168708801,0.6994001865386963,0.5204280018806458
1783003165661875000,0.718875,-0.8170517086982727,0.9126264452934265,0.6528283953666687
1783003165671923200,0.728923095703125,-0.8962802290916443,1.0569138526916504,0.7957019209861755
1783003165681974300,0.738974365234375,-1.0227587223052979,1.0401915311813354,0.8491164445877075
1783003165692026000,0.749026123046875,-1.2064231634140015,0.6703738570213318,0.779224157333374
1783003165702078200,0.759078125,-1.3528586626052856,-0.021500231698155403,0.6903744339942932
1783003165712130000,0.769130126953125,-1.4167274236679077,-0.8854347467422485,0.6131060123443604
1783003165722181000,0.77918115234375,-1.3576542139053345,-1.793070912361145,0.4839229881763458
1783003165732233000,0.78923291015625,-1.2123854160308838,-2.396766185760498,0.36710450053215027
1783003165742285300,0.799285400390625,-1.0236085653305054,-2.255532741546631,0.3491681218147278
1783003165752336400,0.80933642578125,-0.886380136013031,-1.2766523361206055,0.3751981258392334
1783003165762388200,0.81938818359375,-0.7680947780609131,0.1321156919002533,0.38210076093673706
1783003165772440300,0.8294404296875,-0.6031681895256042,1.7194472551345825,0.33824995160102844
1783003165782492200,0.8394921875,-0.3514501750469208,3.010758399963379,0.2174396514892578
1783003165792543200,0.849543212890625,0.06037013232707977,3.7041842937469482,0.0683891773223877
1783003165802595000,0.859594970703125,0.5508711338043213,3.75860333442688,-0.05248531326651573
1783003165812647200,0.869647216796875,0.9183415770530701,3.385587692260742,-0.23041562736034393
1783003165822699000,0.879698974609375,1.0391465425491333,2.676211357116699,-0.4385131597518921
1783003165832750000,0.88975,0.7952803373336792,1.7929742336273193,-0.6404433846473694
1783003165842802000,0.899802001953125,0.2106459140777588,0.8306982517242432,-0.8789118528366089
1783003165852854300,0.909854248046875,-0.47132331132888794,-0.061589594930410385,-1.1858941316604614
1783003165862905300,0.9199052734375,-1.0686421394348145,-0.7168318629264832,-1.6382254362106323
1783003165872957200,0.929957275390625,-1.5130281448364258,-1.0691102743148804,-2.2758026123046875
1783003165883009300,0.94000927734375,-1.8704642057418823,-1.0443133115768433,-3.0941224098205566
1783003165893061000,0.95006103515625,-2.1852223873138428,-0.7228607535362244,-4.057349681854248
1783003165903112200,0.9601123046875,-2.344722270965576,-0.23136797547340393,-5.014001369476318
1783003165913164000,0.9701640625,-2.254077672958374,0.3118244707584381,-5.720869541168213
1783003165923216100,0.980216064453125,-1.5785391330718994,0.6790456175804138,-5.266517162322998
1783003165933268000,0.99026806640625,-0.8195760846138,1.2919065952301025,-4.606630325317383
1783003165943319000,1.000319091796875,-0.16296042501926422,1.2023221254348755,-3.722872018814087
1783003165953371100,1.01037109375,0.19215266406536102,0.9826851487159729,-2.9271059036254883
1783003165963423200,1.02042333984375,0.32469046115875244,0.6753060221672058,-2.2603702545166016
1783003165973474300,1.030474365234375,0.273425430059433,0.28814151883125305,-1.694459080696106
1783003165983526100,1.040526123046875,0.10529366880655289,-0.1568167805671692,-1.2002462148666382
1783003165993578200,1.050578125,-0.06484877318143845,-0.7326574325561523,-0.8496218919754028
1783003166003630000,1.060630126953125,-0.14628344774246216,-1.2520902156829834,-0.6683362722396851
1783003166013681200,1.07068115234375,-0.12516404688358307,-1.4713141918182373,-0.6662054657936096
1783003166023733200,1.080733154296875,-0.03991412743926048,-1.4151819944381714,-0.8113823533058167
1783003166033785000,1.09078515625,0.061821822077035904,-1.1322429180145264,-1.0004925727844238
1783003166043836200,1.100836181640625,0.1702902466058731,-0.6915813684463501,-1.1757014989852905
1783003166053888000,1.110887939453125,0.28820064663887024,-0.20596541464328766,-1.2950009107589722
1783003166063940000,1.120940185546875,0.39866188168525696,0.30690082907676697,-1.21699857711792
1783003166073992200,1.1309921875,0.5189571380615234,0.7200079560279846,-0.9496038556098938
1783003166084043300,1.141043212890625,0.6023998260498047,0.8897849917411804,-0.5708932876586914
1783003166094095000,1.15109521484375,0.5705828070640564,0.8326128125190735,-0.07914914935827255
1783003166104147200,1.161147216796875,0.43058067560195923,0.6092369556427002,0.46139371395111084
1783003166114199000,1.171198974609375,0.2967909276485443,0.22529490292072296,0.9550116658210754
1783003166124250000,1.18125,0.22114835679531097,-0.17031021416187286,1.3530136346817017
1783003166134302200,1.19130224609375,0.1597992479801178,-0.3978392481803894,1.5989779233932495
1783003166144354000,1.20135400390625,0.1061842292547226,-0.4091062843799591,1.6840331554412842
1783003166154405000,1.211405029296875,0.08386719971895218,-0.2625301480293274,1.6302745342254639
1783003166164457000,1.22145703125,0.08910111337900162,-0.08863852173089981,1.4583011865615845
1783003166174509000,1.231509033203125,0.11545921862125397,0.019956130534410477,1.2160272598266602
1783003166184561200,1.24156103515625,0.10827294737100601,0.04525456205010414,1.041393756866455
1783003166194612200,1.2516123046875,0.01920112408697605,0.032765403389930725,1.1524707078933716
1783003166204664300,1.261664306640625,-0.06998734176158905,-0.05457296222448349,1.532990574836731
1783003166214716200,1.271716064453125,-0.10566224902868271,-0.3703535497188568,2.146637201309204
1783003166224767200,1.281767333984375,-0.03943023085594177,-0.4868689775466919,3.0353386402130127
1783003166234819000,1.291819091796875,0.14540167152881622,-0.08288316428661346,3.897331714630127
1783003166244871200,1.30187109375,0.42145615816116333,0.5237913131713867,4.304488182067871
1783003166254923000,1.311923095703125,0.7758752107620239,0.490519642829895,3.817666530609131
1783003166264974000,1.32197412109375,0.8931645750999451,-0.6141664981842041,2.535013198852539
1783003166275026200,1.332026123046875,0.4840463101863861,-2.496955633163452,0.9970012307167053
1783003166285078000,1.342078125,-0.41072362661361694,-4.03757381439209,-0.1935281902551651
1783003166295130400,1.35213037109375,-1.4237943887710571,-4.281524181365967,-0.8424723744392395
1783003166305181200,1.36218115234375,-2.230725049972534,-3.0262651443481445,-0.9509559869766235
1783003166315233300,1.3722333984375,-2.5562314987182617,-0.8003965616226196,-0.7235491871833801
1783003166325285000,1.38228515625,-2.3322393894195557,1.3144649267196655,-0.6551916599273682
1783003166335336200,1.392336181640625,-1.5888395309448242,2.8001961708068848,-0.8055076599121094
1783003166345388300,1.40238818359375,-0.49908092617988586,3.613945484161377,-1.0738211870193481
1783003166355440000,1.412440185546875,0.6501734852790833,3.5894296169281006,-1.364876389503479
1783003166365492200,1.4224921875,1.6283315420150757,2.7263200283050537,-1.5874874591827393
1783003166375543000,1.43254296875,2.284294366836548,1.303360104560852,-1.649064540863037
1783003166385595100,1.44259521484375,2.5024302005767822,-0.2551848888397217,-1.6071116924285889
1783003166395647000,1.45264697265625,2.3420028686523438,-1.6038562059402466,-1.5896632671356201
1783003166405698000,1.462697998046875,1.9189108610153198,-2.409024238586426,-1.7432234287261963
1783003166415750100,1.472750244140625,1.3533300161361694,-2.7638375759124756,-2.154231548309326
1783003166425802200,1.48280224609375,0.6292892694473267,-2.7431423664093018,-2.539421796798706
1783003166435854000,1.49285400390625,-0.07413974404335022,-2.3694140911102295,-2.522622585296631
1783003166445905200,1.5029052734375,-0.4693770706653595,-1.7674294710159302,-2.088775634765625
1783003166455957200,1.512957275390625,-0.6043058633804321,-1.125677227973938,-1.489643931388855
1783003166466009000,1.523009033203125,-0.4611785411834717,-0.4623900055885315,-0.8904276490211487
1783003166476061200,1.533061279296875,-0.13502945005893707,0.06908399611711502,-0.36341574788093567
1783003166486112000,1.543112060546875,0.296328604221344,0.3084246814250946,-0.020427776500582695
1783003166496164000,1.5531640625,0.677007257938385,0.3997873365879059,0.14124900102615356
1783003166506216000,1.5632158203125,0.9442930221557617,0.4217267334461212,0.136751189827919
1783003166516267000,1.57326708984375,1.1180371046066284,0.3697735369205475,0.03753459081053734
1783003166526319400,1.5833193359375,1.182336688041687,0.26735687255859375,-0.11779507249593735
1783003166536371200,1.59337109375,1.0934923887252808,0.1745172142982483,-0.31879955530166626
1783003166546423300,1.60342333984375,0.8978743553161621,0.17257337272167206,-0.5288305282592773
1783003166556474000,1.61347412109375,0.6301355957984924,0.19529199600219727,-0.6971356868743896
1783003166566526200,1.623526123046875,0.29824182391166687,0.17675693333148956,-0.7009788751602173
1783003166576578000,1.633578125,-0.009309878572821617,0.14650501310825348,-0.48128512501716614
1783003166586630100,1.643630126953125,-0.21660500764846802,0.11270284652709961,-0.1176411435008049
1783003166596681200,1.65368115234375,-0.31263434886932373,0.10025816410779953,0.2863638401031494
1783003166606733000,1.663733154296875,-0.34766554832458496,0.13853125274181366,0.6498280763626099
1783003166616785200,1.67378515625,-0.3621840476989746,0.19881190359592438,0.9652576446533203
1783003166626836000,1.6838359375,-0.3056880235671997,0.3466666042804718,1.2132962942123413
1783003166636888300,1.693888427734375,-0.18620289862155914,0.5270392894744873,1.3503539562225342
1783003166646940200,1.703940185546875,-0.07405105978250504,0.5897839069366455,1.3633999824523926
1783003166656992300,1.7139921875,-0.031013576313853264,0.5028964281082153,1.306145191192627
1783003166667043300,1.724043212890625,-0.06951676309108734,0.329241544008255,1.2428195476531982
1783003166677095400,1.734095458984375,-0.13994166254997253,0.11472312361001968,1.207816243171692
1783003166687147300,1.744147216796875,-0.18807430565357208,-0.0924186110496521,1.1789568662643433
1783003166697198300,1.7541982421875,-0.2162521481513977,-0.267823725938797,1.141526460647583
1783003166707250400,1.76425048828125,-0.2493123561143875,-0.3282417953014374,1.1563948392868042
1783003166717302300,1.77430224609375,-0.3335990011692047,-0.19039124250411987,1.2725467681884766
1783003166727354600,1.784354736328125,-0.4414951205253601,-0.08631331473588943,1.4105515480041504
1783003166737405200,1.7944052734375,-0.5383420586585999,-0.10258549451828003,1.5280544757843018
1783003166747457500,1.80445751953125,-0.6374606490135193,-0.23945467174053192,1.6055641174316406
1783003166757509400,1.81450927734375,-0.7306193113327026,-0.32834458351135254,1.6528033018112183
1783003166767561500,1.8245615234375,-0.7980854511260986,-0.27324140071868896,1.6410473585128784
1783003166777612500,1.834612548828125,-0.8411112427711487,0.06961076706647873,1.5875979661941528
1783003166787664400,1.844664306640625,-0.8082267642021179,0.6861780881881714,1.5446059703826904
1783003166797716500,1.854716552734375,-0.6524390578269958,1.2407954931259155,1.4650847911834717
1783003166807767300,1.864767333984375,-0.3495880961418152,1.4358971118927002,1.2774899005889893
1783003166817819400,1.8748193359375,0.006020075641572475,1.127349853515625,1.002257227897644
1783003166827871200,1.884871337890625,0.2351648509502411,0.21685241162776947,0.6977348923683167
1783003166837923600,1.894923583984375,0.258222758769989,-1.0669987201690674,0.528544008731842
1783003166847974400,1.904974365234375,-0.0076086511835455894,-2.081763744354248,0.6701005697250366
1783003166858026500,1.915026611328125,-0.5405178070068359,-2.5482420921325684,0.8772079944610596
1783003166868078600,1.92507861328125,-1.0932241678237915,-2.313568115234375,0.8935562968254089
1783003166878130400,1.93513037109375,-1.382421612739563,-1.3503364324569702,0.7613218426704407
1783003166888181500,1.945181396484375,-1.354705572128296,0.049370478838682175,0.5430899262428284
1783003166898233300,1.9552333984375,-1.1548246145248413,1.4491000175476074,0.3424023389816284
1783003166908285400,1.965285400390625,-0.8958154916763306,2.6740915775299072,0.26126915216445923
1783003166918336500,1.97533642578125,-0.6843975186347961,3.4798052310943604,0.17195525765419006
1783003166928388400,1.985388427734375,-0.5850783586502075,3.7755892276763916,0.030531011521816254
1783003166938440400,1.9954404296875,-0.6155049800872803,3.5886449813842773,-0.09709858894348145
1783003166948492500,2.005492431640625,-0.770409882068634,3.0301380157470703,-0.20394301414489746
1783003166958543400,2.01554345703125,-0.9657918810844421,2.2638051509857178,-0.31235364079475403
1783003166968595500,2.025595458984375,-1.18442702293396,1.3989508152008057,-0.46700260043144226
1783003166978647600,2.0356474609375,-1.4086936712265015,0.45745569467544556,-0.8809680938720703
1783003166988698400,2.045698486328125,-1.6362757682800293,-0.38917437195777893,-1.6265463829040527
1783003166998750500,2.05575048828125,-1.8477275371551514,-0.9560761451721191,-2.596391201019287
1783003167008802300,2.06580224609375,-2.0671215057373047,-1.1090755462646484,-3.6798672676086426
1783003167018854400,2.0758544921875,-1.899179220199585,-0.7703360915184021,-3.9825921058654785
1783003167028905500,2.085905517578125,-1.5127888917922974,-0.2631615996360779,-3.9727585315704346
1783003167038957300,2.095957275390625,-0.8686741590499878,0.23915399610996246,-3.350503444671631
1783003167049009400,2.106009521484375,-0.18258152902126312,0.48010560870170593,-2.3136966228485107
1783003167059061500,2.1160615234375,0.4014073610305786,0.47854873538017273,-1.1563591957092285
1783003167069112300,2.1261123046875,0.8247790932655334,0.24851766228675842,-0.14711275696754456
1783003167079164400,2.136164306640625,1.1246966123580933,-0.14024418592453003,0.5935445427894592
1783003167089216500,2.146216552734375,1.2559731006622314,-0.6088185906410217,1.0818979740142822
1783003167099267600,2.156267578125,1.2250410318374634,-0.9958115816116333,1.333782434463501
1783003167109319400,2.1663193359375,1.0874607563018799,-1.2005032300949097,1.337665319442749
1783003167119371500,2.17637158203125,0.9001985192298889,-1.221248984336853,1.1182349920272827
1783003167129423400,2.18642333984375,0.7540919184684753,-1.0203297138214111,0.7467373013496399
1783003167139474400,2.196474365234375,0.6469635963439941,-0.5828090906143188,0.28408366441726685
1783003167149526300,2.2065263671875,0.5482969284057617,-0.13497112691402435,-0.1307082176208496
1783003167159578400,2.216578369140625,0.4761660099029541,0.2718810439109802,-0.3708023130893707
1783003167169629400,2.22662939453125,0.4488542377948761,0.563740611076355,-0.359089732170105
1783003167179681300,2.236681396484375,0.4589252471923828,0.70899897813797,-0.15684287250041962
1783003167189733600,2.246733642578125,0.4820276200771332,0.6290426254272461,0.17314781248569489
1783003167199785500,2.256785400390625,0.5068717002868652,0.33666297793388367,0.5900616645812988
1783003167209836500,2.26683642578125,0.5332218408584595,-0.09391504526138306,1.0324095487594604
1783003167219888400,2.276888427734375,0.5165853500366211,-0.5590153336524963,1.4420878887176514
1783003167229940500,2.2869404296875,0.4826659858226776,-0.915438711643219,1.7591625452041626
1783003167239992300,2.296992431640625,0.4465519189834595,-1.0240347385406494,1.901332974433899
1783003167250043400,2.30704345703125,0.4197956919670105,-0.9251419305801392,1.876841425895691
1783003167260095200,2.31709521484375,0.3950338661670685,-0.7359285950660706,1.7312997579574585
1783003167270147300,2.327147216796875,0.3688185214996338,-0.47992613911628723,1.4834145307540894
1783003167280198400,2.337198486328125,0.3494860827922821,-0.21510832011699677,1.1774791479110718
1783003167290250200,2.347250244140625,0.34157970547676086,-0.09318746626377106,0.8513004779815674
1783003167300302600,2.357302490234375,0.29626309871673584,-0.13525715470314026,0.6303808689117432
1783003167310354400,2.3673544921875,0.18707215785980225,-0.25316062569618225,0.5779275298118591
1783003167320405500,2.377405517578125,0.029695311561226845,-0.33588239550590515,0.6962190270423889
1783003167330457300,2.387457275390625,-0.13120169937610626,-0.3370038568973541,0.946290910243988
1783003167340509400,2.397509521484375,-0.305295467376709,-0.06943553686141968,1.333703875541687
1783003167350560500,2.407560546875,-0.4389914870262146,0.4798928499221802,1.7187186479568481
1783003167360612400,2.4176123046875,-0.44789841771125793,1.0073492527008057,1.8663057088851929
1783003167370664400,2.42766455078125,-0.31553611159324646,1.2341601848602295,1.6565173864364624
1783003167380716300,2.43771630859375,-0.2107899934053421,0.9090068936347961,1.0567539930343628
1783003167390767400,2.447767333984375,-0.3459494113922119,0.1300317645072937,0.16225655376911163
1783003167400819200,2.457819091796875,-0.672010064125061,-0.721840500831604,-0.7136523127555847
1783003167410871600,2.46787158203125,-1.0668481588363647,-1.2516188621520996,-1.2676066160202026
1783003167420923400,2.47792333984375,-1.3815041780471802,-0.9359229207038879,-1.4201987981796265
1783003167430974500,2.487974365234375,-1.3643685579299927,0.1277310699224472,-1.0703356266021729
1783003167441026600,2.498026611328125,-0.9515197277069092,1.3286646604537964,-0.42572546005249023
1783003167451078400,2.508078369140625,-0.23762640357017517,1.9267562627792358,0.1025138571858406
1783003167461129500,2.51812939453125,0.5526373386383057,1.7387813329696655,0.4186910092830658
1783003167471181300,2.528181396484375,1.1565613746643066,1.0682977437973022,0.6075873970985413
1783003167481233400,2.5382333984375,1.4300458431243896,0.0643792524933815,0.6915856599807739
1783003167491285200,2.54828515625,1.4327611923217773,-1.1187710762023926,0.5872216820716858
1783003167501336300,2.55833642578125,1.2059539556503296,-1.9811766147613525,0.18229123950004578
1783003167511388400,2.568388427734375,0.7522892355918884,-2.2809321880340576,-0.4735023081302643
1783003167521440500,2.5784404296875,0.21396048367023468,-1.9247684478759766,-1.216036319732666
1783003167531491600,2.58849169921875,-0.2440057396888733,-1.2505927085876465,-1.9332245588302612
1783003167541543400,2.59854345703125,-0.5395961403846741,-0.71340012550354,-2.4698355197906494
1783003167551595500,2.608595458984375,-0.6796027421951294,-0.49963831901550293,-2.706207036972046
1783003167561647400,2.6186474609375,-0.7214902639389038,-0.5059201717376709,-2.6166374683380127
1783003167571698400,2.628698486328125,-0.6800999641418457,-0.6879445910453796,-2.3846547603607178
1783003167581750300,2.638750244140625,-0.5759477019309998,-0.852669894695282,-2.1829068660736084
1783003167591802400,2.64880224609375,-0.4842180907726288,-0.9405277967453003,-2.009678602218628
1783003167601854200,2.658854248046875,-0.4862769544124603,-0.9051812887191772,-1.8354750871658325
1783003167611905300,2.6689052734375,-0.5569953322410583,-0.699658989906311,-1.6435376405715942
1783003167621957400,2.678957275390625,-0.6394220590591431,-0.4562340974807739,-1.486889123916626
1783003167632009500,2.689009521484375,-0.708918035030365,-0.28579607605934143,-1.4010286331176758
1783003167642060500,2.699060546875,-0.7671680450439453,-0.17154085636138916,-1.3427397012710571
1783003167652112400,2.7091123046875,-0.7746856212615967,-0.09823735058307648,-1.2745249271392822
1783003167662164500,2.71916455078125,-0.7404106855392456,-0.13419508934020996,-1.1802477836608887
1783003167672216300,2.72921630859375,-0.683366060256958,-0.26907727122306824,-1.0271698236465454
1783003167682267400,2.739267333984375,-0.6277264952659607,-0.37973374128341675,-0.7689938545227051
1783003167692319500,2.749319580078125,-0.5613416433334351,-0.5045204162597656,-0.47683605551719666
1783003167702371300,2.759371337890625,-0.475730836391449,-0.6153146028518677,-0.22923772037029266
1783003167712423400,2.76942333984375,-0.36700624227523804,-0.7183235287666321,-0.07319431751966476
1783003167722474200,2.77947412109375,-0.27474260330200195,-0.7927860617637634,-0.00038003307417966425
1783003167732526300,2.7895263671875,-0.2434787005186081,-0.7231898903846741,0.07766310125589371
1783003167742578400,2.799578369140625,-0.22273267805576324,-0.4839632213115692,0.17782539129257202
1783003167752629500,2.80962939453125,-0.21701247990131378,-0.19787552952766418,0.25560858845710754
1783003167762681600,2.819681640625,-0.22347676753997803,0.0473795011639595,0.30092814564704895
1783003167772733400,2.8297333984375,-0.23583462834358215,0.1769135296344757,0.2906070649623871
1783003167782785500,2.83978564453125,-0.24791792035102844,0.14777854084968567,0.22971601784229279
1783003167792836400,2.84983642578125,-0.24890968203544617,0.03808320313692093,0.16333912312984467
1783003167802888400,2.859888427734375,-0.23601572215557098,-0.03287272900342941,0.10774004459381104
1783003167812940300,2.869940185546875,-0.268160343170166,-0.09363114833831787,0.032574187964200974
1783003167822992400,2.879992431640625,-0.3581900894641876,-0.14283651113510132,0.03724271059036255
1783003167833043500,2.89004345703125,-0.4127897024154663,-0.12683197855949402,0.1629473716020584
1783003167843095300,2.90009521484375,-0.3787965774536133,-0.05056650564074516,0.3813004791736603
1783003167853147400,2.9101474609375,-0.25961026549339294,0.017780860885977745,0.5594763159751892
1783003167863198500,2.920198486328125,-0.1566215604543686,0.07525720447301865,0.6853954195976257
1783003167873250600,2.93025048828125,-0.15465615689754486,0.11312761902809143,0.7889074087142944
1783003167883302400,2.940302490234375,-0.25597530603408813,0.23209156095981598,0.8759336471557617
1783003167893354500,2.9503544921875,-0.44654446840286255,0.4476217031478882,0.9390028715133667
1783003167903405300,2.9604052734375,-0.612379252910614,0.761219322681427,1.0503214597702026
1783003167913457400,2.97045751953125,-0.6042126417160034,1.0642026662826538,1.1840547323226929
1783003167923509200,2.98050927734375,-0.3777025640010834,0.9946469664573669,1.213478446006775
1783003167933560300,2.990560302734375,-0.08424323797225952,0.49267229437828064,1.0827646255493164
1783003167943612400,3.0006123046875,0.12285161763429642,-0.42111074924468994,0.8773933053016663
1783003167953664300,3.010664306640625,0.14428500831127167,-1.4797446727752686,0.7134613990783691
1783003167963716600,3.020716552734375,-0.011570369824767113,-2.098095178604126,0.7350388765335083
1783003167973767400,3.030767333984375,-0.2184300720691681,-2.0792996883392334,0.8532674908638
1783003167983819500,3.040819580078125,-0.36204102635383606,-1.5369843244552612,0.8791044354438782
1783003167993871400,3.050871337890625,-0.36115366220474243,-0.4901398718357086,0.791475772857666
1783003168003923500,3.06092333984375,-0.1964174509048462,0.7206279635429382,0.6461278796195984
1783003168013974500,3.070974609375,0.0829731822013855,1.5278080701828003,0.5280579924583435
1783003168024026400,3.0810263671875,0.3524693548679352,1.7912386655807495,0.4487413167953491
1783003168034078500,3.091078369140625,0.5448441505432129,1.7086119651794434,0.3912854790687561
1783003168044129300,3.10112939453125,0.6532180309295654,1.2913721799850464,0.33642008900642395
1783003168054181400,3.111181396484375,0.687101423740387,0.5432390570640564,0.29790839552879333
1783003168064233200,3.121233154296875,0.6498925089836121,-0.35633280873298645,0.27008262276649475
1783003168074285600,3.13128564453125,0.5589357018470764,-1.183675765991211,0.22505894303321838
1783003168084336600,3.141336669921875,0.45217224955558777,-1.7060580253601074,0.16642972826957703
1783003168094388500,3.151388427734375,0.3542984127998352,-1.7903294563293457,0.05348080024123192
1783003168104440600,3.161440673828125,0.2806748151779175,-1.6559828519821167,-0.15750201046466827
1783003168114492400,3.171492431640625,0.21313677728176117,-1.3710565567016602,-0.4522761106491089
1783003168124543500,3.18154345703125,0.15636616945266724,-0.971106767654419,-0.8346440196037292
1783003168134595300,3.19159521484375,0.08356466889381409,-0.49687954783439636,-1.2916312217712402
1783003168144647400,3.2016474609375,-0.07933024317026138,-0.07191893458366394,-1.7594919204711914
1783003168154698500,3.211698486328125,-0.3088316023349762,0.2248656004667282,-2.1566033363342285
1783003168164750300,3.221750244140625,-0.4986793100833893,0.38090208172798157,-2.355800151824951
1783003168174802200,3.23180224609375,-0.5630868077278137,0.4932217001914978,-2.319450855255127
1783003168184854500,3.2418544921875,-0.4563547670841217,0.6182754635810852,-2.0933666229248047
1783003168194905600,3.251905517578125,-0.21898747980594635,0.624630331993103,-1.7648561000823975
1783003168204957400,3.26195751953125,0.033828005194664,0.5374370813369751,-1.367646336555481
1783003168215009500,3.272009521484375,0.2372213453054428,0.3329406678676605,-0.967898964881897
1783003168225061400,3.282061279296875,0.37330034375190735,0.03249136358499527,-0.6115390062332153
1783003168235112400,3.292112548828125,0.4531927704811096,-0.275179386138916,-0.3384462296962738
1783003168245164300,3.302164306640625,0.4181261360645294,-0.5605030059814453,-0.11674898862838745
1783003168255216400,3.31221630859375,0.30125170946121216,-0.7329256534576416,0.07948444038629532
1783003168265267500,3.322267333984375,0.17532122135162354,-0.7194441556930542,0.2277604639530182
1783003168275319300,3.3323193359375,0.07401963323354721,-0.5813180208206177,0.2507326304912567
1783003168285371400,3.342371337890625,0.007555920630693436,-0.3361220955848694,0.1909065693616867
1783003168295423500,3.352423583984375,0.007191333919763565,0.014544853940606117,0.07834966480731964
1783003168305474600,3.362474609375,0.06839770078659058,0.3617291748523712,-0.022351378574967384
1783003168315526400,3.3725263671875,0.1763252317905426,0.5825275778770447,-0.09321916103363037
1783003168325578500,3.38257861328125,0.28151077032089233,0.6848968267440796,-0.06022818759083748
1783003168335630300,3.39263037109375,0.3836246132850647,0.7379006743431091,0.11690131574869156
1783003168345681400,3.402681396484375,0.4419102966785431,0.6233096718788147,0.3809041976928711
1783003168355733500,3.4127333984375,0.4241882860660553,0.36089879274368286,0.6582663059234619
1783003168365785300,3.422785400390625,0.26582980155944824,0.03997111693024635,0.9539512395858765
1783003168375836400,3.43283642578125,0.06078851595520973,-0.2064588963985443,1.2397938966751099
1783003168385888300,3.44288818359375,-0.07019906491041183,-0.28226205706596375,1.4373202323913574
1783003168395940400,3.4529404296875,-0.1285334676504135,-0.2245878279209137,1.4804701805114746
1783003168405992400,3.462992431640625,-0.10283663123846054,-0.04182787239551544,1.3499441146850586
1783003168416043500,3.47304345703125,-0.004462126176804304,0.1858646720647812,1.0718735456466675
1783003168426095400,3.483095458984375,0.0925230085849762,0.505241870880127,0.7683411240577698
1783003168436147500,3.4931474609375,0.14675003290176392,0.8736609220504761,0.5027331709861755
1783003168446198500,3.503198486328125,0.1211802214384079,1.196517825126648,0.348442405462265
1783003168456250400,3.51325048828125,0.039074696600437164,1.437938928604126,0.331635445356369
1783003168466302500,3.523302490234375,-0.08848725259304047,1.5648177862167358,0.474307656288147
1783003168476354300,3.533354248046875,-0.2557992935180664,1.6364760398864746,0.8014324903488159
1783003168486405400,3.5434052734375,-0.37831881642341614,1.6770479679107666,1.1875903606414795
1783003168496457200,3.553457275390625,-0.3802626430988312,1.3807464838027954,1.3291032314300537
1783003168506509300,3.56350927734375,-0.3438415229320526,0.7053134441375732,1.087500810623169
1783003168516561400,3.5735615234375,-0.3996965289115906,-0.16977837681770325,0.46088799834251404
1783003168526612500,3.583612548828125,-0.5908476114273071,-0.9148504137992859,-0.3365231454372406
1783003168536664600,3.59366455078125,-0.8415221571922302,-1.141528606414795,-0.9142938256263733
1783003168546716400,3.60371630859375,-1.062253713607788,-0.5695350766181946,-0.9840151071548462
1783003168556767500,3.613767578125,-1.0923261642456055,0.38253405690193176,-0.6185031533241272
1783003168566819300,3.6238193359375,-0.7653884887695312,1.0856701135635376,-0.07575574517250061
1783003168576871400,3.633871337890625,0.02779887430369854,1.21468186378479,0.4721289277076721
1783003168586923300,3.64392333984375,1.0523052215576172,0.8466218113899231,0.9924112558364868
1783003168596974300,3.653974365234375,1.8962903022766113,0.07929162681102753,1.5873374938964844
1783003168607026400,3.6640263671875,2.2831106185913086,-1.0374541282653809,2.1009743213653564
1783003168617078300,3.674078369140625,2.243232488632202,-2.1968090534210205,2.4126672744750977
1783003168627129300,3.68412939453125,1.9449083805084229,-3.0151453018188477,2.3707869052886963
1783003168637181400,3.694181396484375,1.5199626684188843,-3.0774905681610107,1.8502247333526611
1783003168647233500,3.704233642578125,1.1104995012283325,-2.3576860427856445,0.8161331415176392
1783003168657285400,3.714285400390625,0.7634981870651245,-1.2202883958816528,-0.4814164340496063
1783003168667337000,3.7243369140625,0.47899535298347473,0.04345053806900978,-1.741364598274231
1783003168677388800,3.734388916015625,0.24679434299468994,1.0535342693328857,-2.7469191551208496
1783003168687441000,3.74444091796875,0.16599616408348083,1.679813027381897,-3.3328535556793213
1783003168697492700,3.75449267578125,0.23785969614982605,1.8046798706054688,-3.512127637863159
1783003168707543800,3.764543701171875,0.3474021852016449,1.4056329727172852,-3.362501859664917
1783003168717596000,3.774595947265625,0.516002357006073,0.619772732257843,-2.9144787788391113
1783003168727648000,3.78464794921875,0.6809478998184204,-0.26823145151138306,-2.226773977279663
1783003168737698800,3.79469873046875,0.718864381313324,-1.0461727380752563,-1.417000651359558
1783003168747751000,3.8047509765625,0.6146820783615112,-1.2764581441879272,-0.6015801429748535
1783003168757803000,3.814802978515625,0.39080557227134705,-0.9132565259933472,0.022416358813643456
1783003168767854800,3.824854736328125,0.1218811646103859,-0.31854283809661865,0.3009907305240631
1783003168777906000,3.834906005859375,-0.14692606031894684,0.25575828552246094,0.2890554964542389
1783003168787958000,3.8449580078125,-0.3431363105773926,0.6116796135902405,0.15542075037956238
1783003168798009900,3.855009765625,-0.4413992464542389,0.7305381298065186,-0.006552175153046846
1783003168808062000,3.86506201171875,-0.514654278755188,0.6589502096176147,-0.15921682119369507
1783003168818112800,3.87511279296875,-0.6089075207710266,0.508524477481842,-0.23331208527088165
1783003168828164900,3.885164794921875,-0.6740697622299194,0.34563490748405457,-0.22135235369205475
1783003168838217000,3.895217041015625,-0.6704188585281372,0.3095669150352478,-0.13343103229999542
1783003168848267800,3.905267822265625,-0.6168328523635864,0.4402247965335846,0.005877862684428692
1783003168858320000,3.91531982421875,-0.5327222347259521,0.6242529153823853,0.16959622502326965
1783003168868372000,3.9253720703125,-0.3921792209148407,0.7924163937568665,0.3541354537010193
1783003168878423800,3.935423828125,-0.257888525724411,0.8894268274307251,0.5529076457023621
1783003168888475000,3.945474853515625,-0.16768886148929596,0.8989505767822266,0.7625942826271057
1783003168898527000,3.95552685546875,-0.10931823402643204,0.8365082144737244,0.9525240063667297
1783003168908578800,3.965578857421875,-0.05835625156760216,0.7245364189147949,1.1156562566757202
1783003168918630000,3.9756298828125,-0.003171025775372982,0.5634244680404663,1.225130558013916
1783003168928681700,3.985681640625,0.030243122950196266,0.4233406186103821,1.2733228206634521
1783003168938733800,3.99573388671875,0.03777933493256569,0.2877393662929535,1.2460707426071167
1783003168948786000,4.005785888671875,0.018157165497541428,0.19104719161987305,1.1203607320785522
1783003168958836700,4.015836669921875,0.03346448391675949,0.20995482802391052,0.9168928265571594
1783003168968889000,4.02588916015625,0.10164273530244827,0.31084710359573364,0.6927486658096313
1783003168978941000,4.03594091796875,0.16412955522537231,0.6108178496360779,0.5487701892852783
1783003168988993000,4.045992919921875,0.16296468675136566,1.0776699781417847,0.5373579859733582
1783003168999043800,4.0560439453125,0.10946870595216751,1.3567231893539429,0.5881521701812744
1783003169009096000,4.066095947265625,-0.026455841958522797,1.3603895902633667,0.729162335395813
1783003169019147800,4.076147705078125,-0.2044583261013031,1.1226624250411987,1.0067635774612427
1783003169029198800,4.08619873046875,-0.279965877532959,0.6026791930198669,1.3600564002990723
1783003169039251000,4.0962509765625,-0.2204788476228714,0.14373506605625153,1.679585337638855
1783003169049302800,4.106302734375,-0.10378018766641617,0.09399627149105072,1.983444333076477
1783003169059355100,4.116355224609375,0.07334984838962555,0.38822975754737854,2.1962831020355225
1783003169069405700,4.12640576171875,0.32729530334472656,0.6637268662452698,2.338608741760254
1783003169079458000,4.1364580078125,0.5950438976287842,0.6568678617477417,2.3836276531219482
1783003169089510000,4.146510009765625,0.7937657833099365,0.18913130462169647,2.2318179607391357
1783003169099561000,4.15656103515625,0.8098630309104919,-0.7702426314353943,1.8014609813690186
1783003169109613000,4.166613037109375,0.4932959973812103,-1.5384399890899658,1.145127296447754
1783003169119665000,4.176664794921875,-0.11123864352703094,-1.4565094709396362,0.4990593492984772
1783003169129717000,4.186717041015625,-0.7154571413993835,-0.8136348724365234,0.08193188160657883
1783003169139767800,4.196767822265625,-0.9670782089233398,0.11367862671613693,-0.0040978058241307735
1783003169149820000,4.20681982421875,-0.7810854315757751,0.9092042446136475,0.23066064715385437
1783003169159871700,4.216871826171875,-0.3010117709636688,1.2826787233352661,0.5489275455474854
1783003169169924000,4.226924072265625,0.21247445046901703,1.1882697343826294,0.8089386224746704
1783003169179975000,4.236974853515625,0.5416030883789062,0.46255460381507874,1.0250738859176636
1783003169190027000,4.247027099609375,0.6501604318618774,-0.7243720889091492,1.1908854246139526
1783003169200078800,4.257078857421875,0.5581727027893066,-1.9880907535552979,1.2823765277862549
1783003169210130000,4.2671298828125,0.33855247497558594,-3.0490245819091797,1.1777997016906738
1783003169220182000,4.27718212890625,0.07097191363573074,-3.3787779808044434,0.7195480465888977
1783003169230233900,4.28723388671875,-0.10915125161409378,-2.8419504165649414,-0.0046725161373615265
1783003169240286000,4.297285888671875,-0.159296452999115,-1.826845645904541,-0.7558626532554626
1783003169250336800,4.307336669921875,-0.1083911880850792,-0.6777523756027222,-1.4124319553375244
1783003169260388900,4.317388916015625,-0.010629208758473396,0.27529630064964294,-1.959757924079895
1783003169270440700,4.327440673828125,0.07390804588794708,0.8377846479415894,-2.323761224746704
1783003169280493000,4.3374931640625,0.18847456574440002,0.888314962387085,-2.458941698074341
1783003169290543900,4.3475439453125,0.28345194458961487,0.4914272427558899,-2.1282105445861816
1783003169300596000,4.357595947265625,0.35070502758026123,-0.23696275055408478,-1.220794916152954
1783003169310648000,4.36764794921875,0.36803901195526123,-0.7262328267097473,-0.18552644550800323
1783003169320699000,4.377698974609375,0.4520750641822815,-0.8867652416229248,0.6906394362449646
1783003169330751000,4.3877509765625,0.44952401518821716,-0.6396135091781616,1.2289985418319702
1783003169340802800,4.397802734375,0.36963531374931335,0.002951048780232668,1.4925966262817383
1783003169350855000,4.40785498046875,0.3248332142829895,0.6515697836875916,1.3620140552520752
1783003169360906000,4.417906005859375,0.3233319818973541,1.2612861394882202,0.9867842793464661
1783003169370957800,4.427957763671875,0.23178476095199585,1.610390305519104,0.5931144952774048
1783003169381010000,4.438010009765625,-0.027877703309059143,1.546493649482727,0.2718048691749573
1783003169391060700,4.448060791015625,-0.3436031639575958,1.123905062675476,0.056761547923088074
1783003169401112800,4.45811279296875,-0.5459413528442383,0.5955946445465088,-0.1555376648902893
1783003169411165000,4.4681650390625,-0.6135547757148743,0.47181227803230286,-0.35642656683921814
1783003169421217000,4.478217041015625,-0.5519518256187439,0.5393167734146118,-0.47002556920051575
1783003169431268000,4.48826806640625,-0.3527282178401947,0.5853508114814758,-0.4460424482822418
1783003169441320000,4.49831982421875,-0.04369368404150009,0.6768029928207397,-0.22738495469093323
1783003169451372000,4.5083720703125,0.2146396040916443,0.7475908398628235,0.09599363803863525
1783003169461423900,4.518423828125,0.4319934844970703,0.9309545755386353,0.3826208710670471
1783003169471475000,4.528474853515625,0.5285536050796509,0.9309990406036377,0.5955416560173035
1783003169481526800,4.53852685546875,0.5427719354629517,0.8435919284820557,0.6952562928199768
1783003169491579000,4.548578857421875,0.4855470061302185,0.7579984664916992,0.6846108436584473
1783003169501630000,4.5586298828125,0.34145107865333557,0.6430045366287231,0.6114902496337891
1783003169511681800,4.568681884765625,0.1603183001279831,0.5205188393592834,0.4679424464702606
1783003169521734000,4.57873388671875,0.03515905141830444,0.4402919113636017,0.2876690626144409
1783003169531786000,4.588785888671875,-0.011187407188117504,0.5081143379211426,0.057624414563179016
1783003169541837000,4.598837158203125,0.04237675294280052,0.6406079530715942,-0.1679527908563614
1783003169551889000,4.608888916015625,0.17258988320827484,0.7907503247261047,-0.33656764030456543
1783003169561941000,4.61894091796875,0.3935185372829437,0.9253891110420227,-0.41997891664505005
1783003169571991800,4.62899169921875,0.6127344965934753,1.0308235883712769,-0.2802335321903229
1783003169582044000,4.6390439453125,0.6640728116035461,0.8480128049850464,0.023680828511714935
1783003169592095700,4.649095703125,0.5626636147499084,0.7024785280227661,0.29713794589042664
1783003169602147800,4.65914794921875,0.2971389889717102,0.5840557217597961,0.43310028314590454
1783003169612199000,4.669198974609375,0.015974706038832664,0.757344126701355,0.5011019706726074
1783003169622250800,4.679250732421875,-0.11544590443372726,1.1238411664962769,0.5860522985458374
1783003169632303000,4.68930322265625,-0.023443007841706276,1.3352866172790527,0.8449155688285828
1783003169642354000,4.69935400390625,0.2332657426595688,0.8078225255012512,1.2156254053115845
1783003169652406000,4.709406005859375,0.43042540550231934,-0.3805800974369049,1.2367826700210571
1783003169662457900,4.719457763671875,0.49203819036483765,-1.574745535850525,0.68007493019104
1783003169672510500,4.729510498046875,0.46134153008461,-2.181051254272461,-0.4080772399902344
1783003169682561300,4.739561279296875,0.3182011544704437,-1.6137123107910156,-1.738234281539917
1783003169692613400,4.74961328125,0.13940396904945374,-0.2517922818660736,-2.7203519344329834
1783003169702665200,4.759665283203125,0.03967390954494476,1.1618090867996216,-3.01151442527771
1783003169712717300,4.76971728515625,0.03758998587727547,2.1144766807556152,-2.494119644165039
1783003169722768400,4.779768310546875,0.20227214694023132,2.050881862640381,-1.6594958305358887
1783003169732820200,4.7898203125,0.32840079069137573,1.1672629117965698,-1.021304726600647
1783003169742872300,4.799872314453125,0.20532305538654327,-0.31947600841522217,-0.6611025929450989
1783003169752923100,4.809923095703125,-0.1573169231414795,-1.628700613975525,-0.7248690128326416
1783003169762975200,4.819975341796875,-0.554174542427063,-2.2035932540893555,-1.1070760488510132
1783003169773027000,4.830027099609375,-0.8429701328277588,-1.6079999208450317,-1.4682211875915527
1783003169783079400,4.840079345703125,-0.9089834690093994,-0.37780243158340454,-1.7213927507400513
1783003169793130500,4.850130615234375,-0.6617203950881958,0.7700767517089844,-1.8922523260116577
1783003169803182300,4.860182373046875,-0.2854040563106537,1.3928545713424683,-1.850614070892334
1783003169813234400,4.870234375,-0.0008881642133928835,1.3416017293930054,-1.5439302921295166
1783003169823285200,4.88028515625,0.09433715790510178,0.6772375702857971,-1.05539870262146
1783003169833337300,4.89033740234375,-0.04494883120059967,-0.20196640491485596,-0.534085214138031
1783003169843389200,4.90038916015625,-0.2430877536535263,-0.9388446807861328,-0.10988442599773407
1783003169853441300,4.910441162109375,-0.34246814250946045,-1.0993353128433228,0.09596354514360428
1783003169863492400,4.920492431640625,-0.37927567958831787,-0.7856988310813904,-0.05066131427884102
1783003169873544200,4.930544189453125,-0.3921062648296356,-0.35424676537513733,-0.5258100032806396
1783003169883596300,4.94059619140625,-0.33473536372184753,0.04763862490653992,-1.175282597541809
1783003169893648400,4.9506484375,-0.31628313660621643,0.12701813876628876,-1.714767336845398
1783003169903699500,4.960699462890625,-0.3442263603210449,-0.09087157994508743,-1.8950979709625244
1783003169913751300,4.970751220703125,-0.29228779673576355,-0.35850995779037476,-1.586454153060913
1783003169923803400,4.980803466796875,-0.0784391462802887,-0.46904605627059937,-0.8225252628326416
1783003169933854500,4.9908544921875,0.2439013421535492,-0.4635751247406006,0.09290383756160736
1783003169943906300,5.00090625,0.43562203645706177,-0.5842397212982178,0.8451679944992065
1783003169953958400,5.01095849609375,0.48062947392463684,-0.6569794416427612,1.2705062627792358
1783003169964009200,5.02100927734375,0.42035815119743347,-0.6218603849411011,1.3509273529052734
1783003169974061300,5.031061279296875,0.30137261748313904,-0.44325944781303406,1.1327265501022339
1783003169984113200,5.041113037109375,0.1786501705646515,-0.09761683642864227,0.7145602107048035
1783003169994165200,5.051165283203125,0.12013066560029984,0.27513834834098816,0.25034645199775696
1783003170004216300,5.06121630859375,0.1356973797082901,0.5657196044921875,-0.1985543668270111
1783003170014268400,5.071268310546875,0.24546168744564056,0.660128116607666,-0.5347198843955994
1783003170024320300,5.0813203125,0.3831963837146759,0.5057726502418518,-0.6869096755981445
1783003170034371300,5.091371337890625,0.479009211063385,0.23065851628780365,-0.6749432682991028
1783003170044423400,5.10142333984375,0.5564507246017456,0.0384690947830677,-0.4108125567436218
1783003170054475300,5.111475341796875,0.5982503890991211,-0.09596247971057892,0.019898073747754097
1783003170064527400,5.12152734375,0.5765317678451538,-0.1422242522239685,0.49916505813598633
1783003170074578200,5.131578125,0.4987267255783081,-0.17299441993236542,0.9252455234527588
1783003170084630300,5.14163037109375,0.4176667332649231,-0.22387170791625977,1.2271534204483032
1783003170094682000,5.15168212890625,0.34879207611083984,-0.27026131749153137,1.3760262727737427
1783003170104734200,5.161734130859375,0.34764373302459717,-0.28568342328071594,1.39794921875
1783003170114785300,5.171785400390625,0.38760870695114136,-0.1546175330877304,1.247276782989502
1783003170124837400,5.18183740234375,0.4527975618839264,0.1310802549123764,1.0350021123886108
1783003170134889500,5.191889404296875,0.5096283555030823,0.33564671874046326,0.7911596298217773
1783003170144940300,5.201940185546875,0.5061079263687134,0.41806623339653015,0.5563540458679199
1783003170154992400,5.211992431640625,0.4319103956222534,0.27649179100990295,0.32680103182792664
1783003170165044200,5.222044189453125,0.28362318873405457,-0.03236672654747963,0.07363294064998627
1783003170175096300,5.232096435546875,0.18187552690505981,-0.32819944620132446,-0.07203345000743866
1783003170185147400,5.2421474609375,0.2859574556350708,-0.44755539298057556,0.14529940485954285
1783003170195199200,5.25219921875,0.5393362045288086,-0.39463919401168823,0.47242212295532227
1783003170205251300,5.262251220703125,0.7558216452598572,-0.20884455740451813,0.7276269793510437
1783003170215302100,5.27230224609375,0.8866755366325378,0.030826888978481293,0.9099222421646118
1783003170225354200,5.282354248046875,0.9293888807296753,0.09288253635168076,0.9012914896011353
1783003170235406300,5.29240625,0.7739923596382141,-0.07995928078889847,0.5203443765640259
1783003170245458400,5.30245849609375,0.3731381595134735,-0.30188608169555664,-0.20869755744934082
1783003170255509500,5.312509521484375,-0.13126029074192047,-0.23788100481033325,-0.9936197996139526
1783003170265561300,5.322561279296875,-0.5402499437332153,0.1253131777048111,-1.5591093301773071
1783003170275613200,5.33261328125,-0.6916487812995911,0.7618252038955688,-1.791813611984253
1783003170285664300,5.342664306640625,-0.5071236491203308,1.2764544486999512,-1.574459433555603
1783003170295716400,5.35271630859375,-0.05368160456418991,1.2757925987243652,-1.0584670305252075
1783003170305768200,5.362768310546875,0.38734638690948486,0.697486937046051,-0.516370415687561
1783003170315820300,5.3728203125,0.5455306768417358,-0.17881768941879272,-0.15404921770095825
1783003170325871000,5.38287109375,0.28696519136428833,-0.9607595801353455,-0.13386406004428864
1783003170335923200,5.392923095703125,-0.25575560331344604,-1.4014322757720947,-0.4840393662452698
1783003170345975300,5.402975341796875,-0.7242991328239441,-1.3662655353546143,-1.0194990634918213
1783003170356026000,5.413026123046875,-0.8063790798187256,-0.9749619364738464,-1.47664475440979
1783003170366078500,5.423078369140625,-0.5693385601043701,-0.3896598815917969,-1.7178821563720703
1783003170376130300,5.43313037109375,-0.23202258348464966,0.1230526864528656,-1.7585738897323608
1783003170386182400,5.443182373046875,0.01631345972418785,0.34206441044807434,-1.700783371925354
1783003170396233200,5.453233154296875,0.038189198821783066,0.26511794328689575,-1.5181994438171387
1783003170406285300,5.463285400390625,-0.1609657108783722,-0.17454570531845093,-1.2759950160980225
1783003170416337200,5.473337158203125,-0.42874282598495483,-0.6787049770355225,-1.0747895240783691
1783003170426388200,5.48338818359375,-0.5486050844192505,-1.0205278396606445,-1.0154550075531006
1783003170436440300,5.4934404296875,-0.5615956783294678,-1.1545013189315796,-1.2634121179580688
1783003170446492200,5.5034921875,-0.5776939392089844,-0.9533365368843079,-1.9334869384765625
1783003170456544500,5.51354443359375,-0.5685835480690002,-0.3082353174686432,-2.7905385494232178
1783003170466595000,5.523594970703125,-0.4378540515899658,0.39758944511413574,-3.3597731590270996
1783003170476647400,5.5336474609375,-0.15784528851509094,0.8710310459136963,-3.3603484630584717
1783003170486699300,5.54369921875,0.1627497673034668,0.9825943112373352,-2.8479158878326416
1783003170496750300,5.553750244140625,0.42137306928634644,0.7388929724693298,-2.0404505729675293
1783003170506802400,5.563802490234375,0.5848184823989868,0.1743859201669693,-1.0512572526931763
1783003170516854300,5.573854248046875,0.6346395611763,-0.44805315136909485,-0.08924891799688339
1783003170526906400,5.58390625,0.6022826433181763,-0.9743715524673462,0.7132110595703125
1783003170536957200,5.593957275390625,0.4717443585395813,-1.2156823873519897,1.2373701333999634
1783003170547009300,5.60400927734375,0.2145083099603653,-1.0630319118499756,1.47761070728302
1783003170557061000,5.61406103515625,-0.10126403719186783,-0.5093676447868347,1.4542723894119263
1783003170567112200,5.6241123046875,-0.32593896985054016,0.1916770190000534,1.2331002950668335
1783003170577164300,5.634164306640625,-0.42441466450691223,0.8868504762649536,0.9368201494216919
1783003170587216400,5.64421630859375,-0.4098309278488159,1.296580195426941,0.6672195792198181
1783003170597268200,5.654268310546875,-0.35566914081573486,1.1687631607055664,0.44290873408317566
1783003170607319300,5.6643193359375,-0.31022417545318604,0.7458528876304626,0.23240235447883606
1783003170617371400,5.674371337890625,-0.26985251903533936,0.34556007385253906,0.1153087466955185
1783003170627423200,5.68442333984375,-0.20665916800498962,0.006137254647910595,0.24175004661083221
1783003170637474300,5.694474365234375,-0.11571142077445984,-0.19485098123550415,0.59759122133255
1783003170647526100,5.704526123046875,-0.07621913403272629,-0.22551488876342773,0.9945124983787537
1783003170657578200,5.714578125,-0.18940775096416473,-0.18503643572330475,1.2629231214523315
1783003170667630000,5.724630126953125,-0.4273425340652466,-0.04139244556427002,1.408584475517273
1783003170677680600,5.7346806640625,-0.6513258218765259,0.1643119752407074,1.4002286195755005
1783003170687733000,5.74473291015625,-0.7888128757476807,0.38433781266212463,1.297692060470581
1783003170697784800,5.754784912109375,-0.8034565448760986,0.40560662746429443,1.162085771560669
1783003170707837000,5.7648369140625,-0.7521302103996277,0.4207698702812195,1.0419607162475586
1783003170717888000,5.774887939453125,-0.6648626923561096,0.3419567942619324,0.9422418475151062
1783003170727939800,5.78493994140625,-0.5257242321968079,0.13394901156425476,0.7876890301704407
1783003170737992000,5.794991943359375,-0.3323340117931366,-0.08777352422475815,0.6788509488105774
1783003170748042800,5.805042724609375,-0.11067591607570648,-0.19786913692951202,0.6696702241897583
1783003170758094800,5.8150947265625,0.05644596368074417,-0.1965111941099167,0.7454075813293457
1783003170768146700,5.825146728515625,0.11383788287639618,-0.04386093094944954,0.8338328003883362
1783003170778198800,5.83519873046875,0.07651475071907043,0.31266629695892334,1.0157005786895752
1783003170788249900,5.845249755859375,-0.03520086407661438,0.6655340790748596,1.3108179569244385
1783003170798302000,5.855302001953125,-0.1992550492286682,0.7785301208496094,1.607262134552002
1783003170808353800,5.865353759765625,-0.49189144372940063,0.5534578561782837,1.6359138488769531
1783003170818404900,5.87540478515625,-0.9180920124053955,-0.025587651878595352,1.1911187171936035
1783003170828457000,5.88545703125,-1.3448399305343628,-0.7217621803283691,0.3572191298007965
1783003170838508800,5.8955087890625,-1.4654017686843872,-1.1132452487945557,-0.47688028216362
1783003170848561000,5.905560791015625,-1.1551485061645508,-1.033803939819336,-0.966541051864624
1783003170858611700,5.91561181640625,-0.5491858720779419,-0.4142262041568756,-1.0461229085922241
1783003170868663800,5.925663818359375,0.015485482290387154,0.3670179545879364,-0.8182922005653381
1783003170878715600,5.935715576171875,0.3688022792339325,0.7488648891448975,-0.4746117889881134
1783003170888766700,5.9457666015625,0.4455854594707489,0.6633942127227783,-0.23998862504959106
1783003170898818800,5.95581884765625,0.2149096429347992,0.20211555063724518,-0.3379136025905609
1783003170908871000,5.965870849609375,-0.23316773772239685,-0.3078062832355499,-0.8472298383712769
1783003170918921700,5.975921630859375,-0.7232319712638855,-0.5500580668449402,-1.4846271276474
1783003170928973800,5.985973876953125,-1.1100531816482544,-0.5328905582427979,-1.8564589023590088
1783003170939026000,5.99602587890625,-1.2370753288269043,-0.41268742084503174,-1.808369755744934
1783003170949077800,6.006077880859375,-1.0696122646331787,-0.37785249948501587,-1.4253240823745728
1783003170959128800,6.01612890625,-0.6639798283576965,-0.4597249925136566,-0.9137398600578308
1783003170969181000,6.026180908203125,-0.19048339128494263,-0.5705785155296326,-0.4773242175579071
1783003170979232800,6.036232666015625,0.08843159675598145,-0.7545238733291626,-0.24725346267223358
1783003170989283800,6.046283935546875,-0.07099641114473343,-0.9678524136543274,-0.20998971164226532
1783003170999335700,6.056335693359375,-0.5882222652435303,-1.072780966758728,-0.4010973572731018
1783003171009387800,6.0663876953125,-1.1922218799591064,-1.1449568271636963,-0.7648414969444275
1783003171019439900,6.07643994140625,-1.651558756828308,-1.0641506910324097,-1.1929028034210205
1783003171029490700,6.08649072265625,-1.8398709297180176,-0.8742635846138,-1.6788386106491089
1783003171039543000,6.09654296875,-1.7583587169647217,-0.5556224584579468,-2.147764205932617
1783003171049595000,6.106594970703125,-1.4536340236663818,-0.323749303817749,-2.366964101791382
1783003171059646700,6.116646728515625,-0.9832137823104858,-0.2801496386528015,-2.1821448802948
1783003171069697800,6.12669775390625,-0.49607500433921814,-0.41565394401550293,-1.6325353384017944
1783003171079750000,6.13675,-0.16085146367549896,-0.8041276335716248,-0.8660005927085876
1783003171089801700,6.1468017578125,-0.07657946646213531,-1.1327779293060303,-0.08472101390361786
1783003171099852800,6.156852783203125,-0.22267915308475494,-1.1972078084945679,0.4750988781452179
1783003171109904600,6.166904541015625,-0.4667099118232727,-1.0189690589904785,0.7604294419288635
1783003171119956700,6.176956787109375,-0.6675252914428711,-0.6731746792793274,0.7791982889175415
1783003171130008800,6.1870087890625,-0.7104384303092957,-0.17914073169231415,0.603790819644928
1783003171140059600,6.1970595703125,-0.5706629753112793,0.5186900496482849,0.35272717475891113
1783003171150112000,6.207112060546875,-0.3734912872314453,1.2817914485931396,0.17344582080841064
1783003171160163800,6.217163818359375,-0.2640678584575653,1.812774896621704,0.21214741468429565
1783003171170215000,6.22721484375,-0.35536742210388184,1.5047153234481812,0.5646148920059204
1783003171180266800,6.237266845703125,-0.19640547037124634,0.48844078183174133,0.8054941296577454
1783003171190318800,6.24731884765625,0.18415997922420502,-0.3392867147922516,0.9992044568061829
1783003171200370700,6.25737060546875,0.27493250370025635,-0.6269030570983887,1.249882459640503
1783003171210421800,6.267421875,0.2415255457162857,-0.6832624673843384,1.331381916999817
1783003171220473900,6.277473876953125,0.27146053314208984,-0.6081333756446838,1.251897931098938
1783003171230525700,6.287525634765625,0.34810763597488403,-0.5170719027519226,1.054633378982544
1783003171240576800,6.29757666015625,0.4592328369617462,-0.4930821359157562,0.8125594854354858
1783003171250628600,6.307628662109375,0.6352238655090332,-0.3486999273300171,0.5297282934188843
