time,seconds_elapsed,z,y,x
1783003165032384000,0.089384033203125,-0.15947289764881134,-0.6258420944213867,0.6581591963768005
1783003165042436000,0.09943603515625,-0.3219011127948761,-0.9518698453903198,0.6978511810302734
1783003165052488200,0.10948828125,-0.5069250464439392,-1.3559129238128662,0.5954033136367798
1783003165062539000,0.1195390625,-0.6427702307701111,-1.8268452882766724,0.4003029465675354
1783003165072591000,0.129591064453125,-0.6820191144943237,-2.182191848754883,0.27062031626701355
1783003165082643000,0.139642822265625,-0.6173877120018005,-2.1882312297821045,0.3084968626499176
1783003165092695000,0.149695068359375,-0.4848312735557556,-1.7869147062301636,0.5342658162117004
1783003165102746000,0.15974609375,-0.34836545586586,-1.1059688329696655,0.8307042121887207
1783003165112798000,0.1697978515625,-0.137925386428833,-0.3920968174934387,1.1427638530731201
1783003165122850000,0.17985009765625,0.20761360228061676,0.2487385869026184,1.448140025138855
1783003165132900900,0.18990087890625,0.6445333957672119,0.8592267036437988,1.8004568815231323
1783003165142953000,0.199952880859375,0.889082133769989,1.483768105506897,1.6524831056594849
1783003165153005000,0.210005126953125,0.6913357973098755,1.6791833639144897,0.5164152979850769
1783003165163057200,0.22005712890625,0.22896069288253784,1.3386003971099854,-0.44420957565307617
1783003165173108200,0.230108154296875,-0.32223960757255554,0.9249444603919983,-0.9249072074890137
1783003165183160000,0.24016015625,-0.8502848148345947,0.4244621992111206,-0.7543370127677917
1783003165193212200,0.250212158203125,-1.1444593667984009,-0.04523338004946709,-0.036843299865722656
1783003165203264000,0.260263916015625,-1.195030927658081,-0.40630295872688293,1.0095124244689941
1783003165213315000,0.270315185546875,-0.9168296456336975,-0.7780326008796692,1.902449607849121
1783003165223367000,0.280366943359375,-0.49321964383125305,-0.6854227185249329,2.5971531867980957
1783003165233419000,0.2904189453125,-0.01599447801709175,-0.31362384557724,2.975128650665283
1783003165243470000,0.300469970703125,0.525725245475769,-0.29029586911201477,2.7037580013275146
1783003165253522000,0.31052197265625,0.9619707465171814,-0.6487424373626709,1.9135634899139404
1783003165263574000,0.320573974609375,1.2784042358398438,-1.313072919845581,0.9112255573272705
1783003165273626000,0.330626220703125,1.4591599702835083,-1.700170874595642,-0.16422124207019806
1783003165283677200,0.34067724609375,1.5652096271514893,-2.0349314212799072,-0.9650213122367859
1783003165293729000,0.35072900390625,1.534136414527893,-2.2523956298828125,-1.6410235166549683
1783003165303781000,0.360781005859375,1.4556431770324707,-2.3476390838623047,-2.2059707641601562
1783003165313833000,0.3708330078125,1.4037128686904907,-2.6444315910339355,-2.374699354171753
1783003165323884000,0.380884033203125,1.331128716468811,-2.5711822509765625,-1.9985398054122925
1783003165333935900,0.390935791015625,1.294684886932373,-2.2154009342193604,-1.3020728826522827
1783003165343988000,0.400988037109375,1.3542577028274536,-1.194457769393921,-0.20706874132156372
1783003165354039000,0.4110390625,1.3829569816589355,-0.8894277811050415,0.7141575217247009
1783003165364091000,0.4210908203125,1.3761929273605347,-0.4676585793495178,1.2929766178131104
1783003165374143200,0.431143310546875,1.404112696647644,0.22761714458465576,1.4596800804138184
1783003165384195000,0.441195068359375,1.3881936073303223,0.8122773766517639,1.1501866579055786
1783003165394246100,0.45124609375,1.3673930168151855,1.3187850713729858,0.5111744999885559
1783003165404298000,0.461298095703125,1.3769632577896118,1.7689437866210938,-0.2261134386062622
1783003165414350000,0.47135009765625,1.2998335361480713,2.067375421524048,-0.8561968207359314
1783003165424402000,0.48140185546875,0.8403682112693787,2.1050493717193604,-1.208511471748352
1783003165434453000,0.491452880859375,0.16354204714298248,2.041090726852417,-1.2361665964126587
1783003165444505000,0.501505126953125,-0.36451491713523865,1.9065091609954834,-1.0457261800765991
1783003165454557000,0.511556884765625,-0.5536371469497681,1.7374149560928345,-0.7328453063964844
1783003165464608000,0.52160791015625,-0.509023904800415,1.3996738195419312,-0.4219270348548889
1783003165474659800,0.531659912109375,-0.3003993332386017,0.8402021527290344,-0.15308012068271637
1783003165484712200,0.541712158203125,-0.014974391087889671,0.234091117978096,0.0836074948310852
1783003165494764000,0.551763916015625,0.25884729623794556,-0.2275683879852295,0.35176756978034973
1783003165504815000,0.561815185546875,0.43875443935394287,-0.6610478758811951,0.6876676082611084
1783003165514867000,0.571866943359375,0.3726404011249542,-1.0011096000671387,0.9815849661827087
1783003165524919000,0.5819189453125,0.24300050735473633,-1.1519436836242676,1.2505815029144287
1783003165534971000,0.591970947265625,0.10681524127721786,-1.1361362934112549,1.466820240020752
1783003165545022000,0.60202197265625,-0.007626591250300407,-1.0067784786224365,1.5930050611495972
1783003165555074000,0.612073974609375,-0.10122071951627731,-0.7901125550270081,1.6247179508209229
1783003165565126000,0.6221259765625,-0.15675431489944458,-0.5048035383224487,1.569005012512207
1783003165575177000,0.632177001953125,-0.18445652723312378,-0.22379159927368164,1.415541410446167
1783003165585228800,0.642228759765625,-0.22915633022785187,0.00864534080028534,1.1282052993774414
1783003165595281200,0.65228125,-0.3047570586204529,0.19481654465198517,0.7530996203422546
1783003165605333000,0.6623330078125,-0.41101014614105225,0.25501182675361633,0.4206044375896454
1783003165615384000,0.672384033203125,-0.5249175429344177,0.2945038378238678,0.2662409543991089
1783003165625436200,0.682436279296875,-0.6173030138015747,0.3563244938850403,0.22769507765769958
1783003165635488000,0.692488037109375,-0.6740760207176208,0.39908739924430847,0.26810747385025024
1783003165645539000,0.7025390625,-0.7230221629142761,0.5348203778266907,0.41512158513069153
1783003165655591000,0.7125908203125,-0.7799147367477417,0.7859969735145569,0.560002326965332
1783003165665643000,0.72264306640625,-0.836925208568573,0.9738661050796509,0.702764093875885
1783003165675691000,0.73269091796875,-0.9317424893379211,1.0743398666381836,0.821881115436554
1783003165685742000,0.7427421875,-1.0816303491592407,0.943144679069519,0.830843985080719
1783003165695794200,0.752794189453125,-1.2643787860870361,0.43679940700531006,0.7381463050842285
1783003165705846000,0.762845947265625,-1.385843276977539,-0.33127903938293457,0.6527272462844849
1783003165715898400,0.7728984375,-1.4008132219314575,-1.238976240158081,0.5617291331291199
1783003165725949000,0.782948974609375,-1.3083415031433105,-2.0866096019744873,0.4221893846988678
1783003165736001300,0.793001220703125,-1.1327705383300781,-2.4617719650268555,0.34620752930641174
1783003165746053000,0.80305322265625,-0.9602378010749817,-1.9648720026016235,0.35060665011405945
1783003165756104200,0.813104248046875,-0.8401276469230652,-0.7890450358390808,0.37615087628364563
1783003165766156300,0.82315625,-0.7079429030418396,0.7156335711479187,0.35946571826934814
1783003165776208100,0.8332080078125,-0.5143710374832153,2.267223358154297,0.2965048551559448
1783003165786260200,0.84326025390625,-0.20925919711589813,3.3425683975219727,0.15085600316524506
1783003165796311000,0.85331103515625,0.253068745136261,3.7881996631622314,0.0173722505569458
1783003165806363100,0.863363037109375,0.7129928469657898,3.6569576263427734,-0.11714260280132294
1783003165816415000,0.8734150390625,1.0030158758163452,3.146214246749878,-0.31664717197418213
1783003165826467300,0.88346728515625,0.9995485544204712,2.353959321975708,-0.5173148512840271
1783003165836518100,0.89351806640625,0.6100839376449585,1.4334644079208374,-0.7361627221107483
1783003165846570200,0.9035703125,-0.0417986661195755,0.47359463572502136,-0.9909071326255798
1783003165856622300,0.913622314453125,-0.7062069773674011,-0.340681254863739,-1.3430043458938599
1783003165866673200,0.923673095703125,-1.2480924129486084,-0.900321900844574,-1.866192102432251
1783003165876725200,0.933725341796875,-1.645074486732483,-1.1108732223510742,-2.5695440769195557
1783003165886777000,0.943777099609375,-1.9944759607315063,-0.953915536403656,-3.451624631881714
1783003165896829200,0.9538291015625,-2.261291742324829,-0.5654383301734924,-4.435208320617676
1783003165906880300,0.96388037109375,-2.3397252559661865,-0.01984134316444397,-5.332020282745361
1783003165916932000,0.97393212890625,-2.0651941299438477,0.4634220004081726,-5.743814468383789
1783003165926984200,0.983984130859375,-1.2840769290924072,0.8987233638763428,-5.0443878173828125
1783003165937036300,0.994036376953125,-0.5405178070068359,1.3323432207107544,-4.288842678070068
1783003165947087000,1.004087158203125,0.008469030261039734,1.1183581352233887,-3.4176952838897705
1783003165957139200,1.01413916015625,0.26760604977607727,0.872435986995697,-2.667445659637451
1783003165967191300,1.02419140625,0.32948052883148193,0.5317487716674805,-2.050374746322632
1783003165977242000,1.0342421875,0.22055590152740479,0.1294279843568802,-1.5055185556411743
1783003165987294200,1.044294189453125,0.0395948700606823,-0.36427831649780273,-1.0560362339019775
1783003165997346000,1.054345947265625,-0.10458308458328247,-0.9554212093353271,-0.7698243856430054
1783003166007398100,1.064398193359375,-0.14512762427330017,-1.3768410682678223,-0.6508365869522095
1783003166017449200,1.07444921875,-0.09223591536283493,-1.4808669090270996,-0.7168193459510803
1783003166027501000,1.0845009765625,-0.0016782949678599834,-1.3393025398254395,-0.8888993859291077
1783003166037553200,1.09455322265625,0.10221507400274277,-0.9790025353431702,-1.0743359327316284
1783003166047604000,1.10460400390625,0.22326241433620453,-0.517582893371582,-1.2428607940673828
1783003166057656000,1.114656005859375,0.3323878347873688,-0.018831418827176094,-1.304179310798645
1783003166067708200,1.124708251953125,0.4484509229660034,0.47940564155578613,-1.139351725578308
1783003166077760300,1.13476025390625,0.5605872869491577,0.8105332255363464,-0.8268529772758484
1783003166087811300,1.144811279296875,0.6117500066757202,0.8885592222213745,-0.4060828387737274
1783003166097863200,1.15486328125,0.5268968939781189,0.7652676105499268,0.11868105828762054
1783003166107915300,1.164915283203125,0.37876299023628235,0.4757242798805237,0.6470288634300232
1783003166117967000,1.174967041015625,0.26480019092559814,0.06366454809904099,1.1099954843521118
1783003166128018200,1.18501806640625,0.2042602300643921,-0.2853526175022125,1.4572738409042358
1783003166138070000,1.195070068359375,0.14467225968837738,-0.43167442083358765,1.6396116018295288
1783003166148122000,1.2051220703125,0.09721017628908157,-0.3707931637763977,1.6748234033584595
1783003166158173200,1.215173095703125,0.08472022414207458,-0.1979905068874359,1.5708650350570679
1783003166168225000,1.22522509765625,0.10171771794557571,-0.03931180760264397,1.3620901107788086
1783003166178277400,1.23527734375,0.12481451779603958,0.03593234717845917,1.1258423328399658
1783003166188329200,1.2453291015625,0.0871882438659668,0.03664560243487358,1.030380129814148
1783003166198380300,1.25538037109375,-0.011757247149944305,0.023805703967809677,1.2615795135498047
1783003166208432000,1.26543212890625,-0.08673731982707977,-0.15706542134284973,1.7211687564849854
1783003166218484200,1.275484130859375,-0.08815012127161026,-0.47983628511428833,2.4431488513946533
1783003166228535300,1.285535400390625,0.021571693941950798,-0.38746702671051025,3.377629041671753
1783003166238587100,1.295587158203125,0.2416715770959854,0.145983025431633,4.118950366973877
1783003166248639200,1.30563916015625,0.5632708668708801,0.6424369812011719,4.2306952476501465
1783003166258691000,1.315691162109375,0.8703741431236267,0.18115459382534027,3.3972949981689453
1783003166268742100,1.3257421875,0.8121826648712158,-1.265965223312378,1.9475749731063843
1783003166278794000,1.3357939453125,0.19472873210906982,-3.1941261291503906,0.4709760248661041
1783003166288846300,1.345846435546875,-0.7923480272293091,-4.302379131317139,-0.49900534749031067
1783003166298898200,1.355898193359375,-1.7623740434646606,-3.9840447902679443,-0.960543155670166
1783003166308949200,1.36594921875,-2.413141965866089,-2.2464585304260254,-0.8858333230018616
1783003166319001000,1.3760009765625,-2.5335116386413574,0.0411965511739254,-0.6747801899909973
1783003166329053200,1.38605322265625,-2.1048362255096436,1.943880558013916,-0.7007492780685425
1783003166339104300,1.396104248046875,-1.2017654180526733,3.191392183303833,-0.9041162729263306
1783003166349156000,1.406156005859375,-0.05462832748889923,3.7117409706115723,-1.1962422132492065
1783003166359208200,1.416208251953125,1.047839641571045,3.3491475582122803,-1.4691283702850342
1783003166369260000,1.426260009765625,1.9230091571807861,2.229966640472412,-1.6408324241638184
1783003166379311000,1.43631103515625,2.424494981765747,0.7117400169372559,-1.6485234498977661
1783003166389363000,1.446363037109375,2.485487937927246,-0.8113079071044922,-1.5982741117477417
1783003166399415300,1.456415283203125,2.2099640369415283,-1.977230429649353,-1.6299813985824585
1783003166409466400,1.46646630859375,1.7262264490127563,-2.5881283283233643,-1.8810590505599976
1783003166419518200,1.476518310546875,1.106325626373291,-2.8035402297973633,-2.329617738723755
1783003166429570300,1.4865703125,0.341728538274765,-2.645097255706787,-2.6013851165771484
1783003166439622100,1.4966220703125,-0.2491808384656906,-2.155761957168579,-2.4075286388397217
1783003166449673200,1.506673095703125,-0.545867919921875,-1.5391876697540283,-1.8749865293502808
1783003166459725000,1.51672509765625,-0.5748026371002197,-0.8801615834236145,-1.2656731605529785
1783003166469777200,1.526777099609375,-0.34841474890708923,-0.23768384754657745,-0.6859570145606995
1783003166479829000,1.5368291015625,0.027296293526887894,0.18437550961971283,-0.22133475542068481
1783003166489880000,1.546880126953125,0.456419974565506,0.3510974049568176,0.049585238099098206
1783003166499932200,1.55693212890625,0.7920517325401306,0.40745389461517334,0.14668995141983032
1783003166509984300,1.566984375,1.0247910022735596,0.4081926643848419,0.09825576841831207
1783003166520035300,1.577035400390625,1.1673012971878052,0.3302938640117645,-0.021330542862415314
1783003166530087200,1.587087158203125,1.1724475622177124,0.22484147548675537,-0.19960780441761017
1783003166540139300,1.59713916015625,1.0303577184677124,0.15690024197101593,-0.40676870942115784
1783003166550191000,1.607191162109375,0.8137369751930237,0.17933160066604614,-0.6121107339859009
1783003166560242200,1.6172421875,0.5173319578170776,0.1909879893064499,-0.7382500171661377
1783003166570294000,1.6272939453125,0.17925631999969482,0.1586189866065979,-0.6481016278266907
1783003166580346000,1.63734619140625,-0.09207131713628769,0.13190482556819916,-0.3642760217189789
1783003166590398000,1.64739794921875,-0.25796422362327576,0.09809715300798416,0.025454431772232056
1783003166600449000,1.657448974609375,-0.3265145421028137,0.10596971958875656,0.42374187707901
1783003166610501000,1.667501220703125,-0.35462048649787903,0.15272367000579834,0.7615002393722534
1783003166620553200,1.67755322265625,-0.3471636474132538,0.23718395829200745,1.060888648033142
1783003166630604300,1.687604248046875,-0.26221370697021484,0.41369330883026123,1.2660247087478638
1783003166640656100,1.69765625,-0.13441550731658936,0.566152036190033,1.3615373373031616
1783003166650708200,1.707708251953125,-0.04343133419752121,0.5677574872970581,1.3363767862319946
1783003166660760000,1.717760009765625,-0.037981703877449036,0.43838486075401306,1.266265869140625
1783003166670811400,1.727811279296875,-0.09209282696247101,0.24793793261051178,1.2181634902954102
1783003166680863500,1.737863525390625,-0.15584251284599304,0.029731830582022667,1.1928666830062866
1783003166690915300,1.747915283203125,-0.19859406352043152,-0.1624777913093567,1.155070424079895
1783003166700966400,1.75796630859375,-0.22126609086990356,-0.32165175676345825,1.1243196725845337
1783003166711018200,1.768018310546875,-0.270149290561676,-0.2893328070640564,1.1858662366867065
1783003166721070600,1.778070556640625,-0.36801621317863464,-0.14663532376289368,1.320251226425171
1783003166731122400,1.788122314453125,-0.4746173322200775,-0.07395628094673157,1.4504834413528442
1783003166741173500,1.798173583984375,-0.5729175209999084,-0.1520918309688568,1.5508705377578735
1783003166751225300,1.808225341796875,-0.6703140735626221,-0.29234182834625244,1.617478370666504
1783003166761277400,1.81827734375,-0.7562980055809021,-0.3331078886985779,1.647652506828308
1783003166771329300,1.828329345703125,-0.8154319524765015,-0.1929989457130432,1.6117255687713623
1783003166781380400,1.83838037109375,-0.83774733543396,0.28031429648399353,1.5590571165084839
1783003166791432400,1.848432373046875,-0.7588423490524292,0.9131557941436768,1.5131415128707886
1783003166801484300,1.858484375,-0.5488113164901733,1.364065408706665,1.40253746509552
1783003166811535400,1.868535400390625,-0.2088380753993988,1.383266806602478,1.173823356628418
1783003166821587200,1.878587158203125,0.11947242170572281,0.847156286239624,0.8777267932891846
1783003166831639600,1.8886396484375,0.2755447328090668,-0.2524755299091339,0.5937225818634033
1783003166841691400,1.89869140625,0.20024888217449188,-1.5107920169830322,0.5404859781265259
1783003166851742500,1.908742431640625,-0.1781376302242279,-2.3300650119781494,0.7526293396949768
1783003166861794600,1.918794677734375,-0.7594324350357056,-2.5522520542144775,0.8973364233970642
1783003166871846400,1.928846435546875,-1.2396972179412842,-2.040125846862793,0.8516253232955933
1783003166881898500,1.9388984375,-1.4003102779388428,-0.8476873636245728,0.6811038851737976
1783003166891949300,1.94894921875,-1.2880584001541138,0.5735318064689636,0.45097070932388306
1783003166902001400,1.95900146484375,-1.0564470291137695,1.9419797658920288,0.2931036055088043
1783003166912053200,1.96905322265625,-0.8001912236213684,3.0311124324798584,0.22759023308753967
1783003166922104300,1.979104248046875,-0.628221333026886,3.6479320526123047,0.11369509249925613
1783003166932156400,1.989156494140625,-0.5771437287330627,3.7537388801574707,-0.031211361289024353
1783003166942208500,1.99920849609375,-0.6586846113204956,3.412930965423584,-0.14719602465629578
1783003166952260600,2.009260498046875,-0.8378635048866272,2.7516331672668457,-0.2508583068847656
1783003166962311400,2.0193115234375,-1.0459150075912476,1.9414846897125244,-0.3622892200946808
1783003166972363500,2.029363525390625,-1.2637196779251099,1.049757957458496,-0.5891550779342651
1783003166982415400,2.039415283203125,-1.490110158920288,0.11172252893447876,-1.1340460777282715
1783003166992466400,2.049466552734375,-1.7139458656311035,-0.6500127911567688,-1.9786550998687744
1783003167002518500,2.0595185546875,-1.928037405014038,-1.0605920553207397,-3.0085885524749756
1783003167012570400,2.0695703125,-2.0537564754486084,-0.9541000723838806,-3.9010205268859863
1783003167022622500,2.07962255859375,-1.7865540981292725,-0.6624991297721863,-4.066201210021973
1783003167032673300,2.08967333984375,-1.284125566482544,-0.038058195263147354,-3.811056613922119
1783003167042725400,2.099725341796875,-0.6007393002510071,0.3448830544948578,-3.0054514408111572
1783003167052777200,2.109777099609375,0.06302593648433685,0.5041219592094421,-1.8823298215866089
1783003167062829600,2.11982958984375,0.5831716656684875,0.41488930583000183,-0.7586439251899719
1783003167072880400,2.12988037109375,0.9599015116691589,0.11470083147287369,0.15599946677684784
1783003167082932500,2.139932373046875,1.2009562253952026,-0.32209673523902893,0.7956004738807678
1783003167092984300,2.149984375,1.2648777961730957,-0.7758194804191589,1.1940290927886963
1783003167103035400,2.160035400390625,1.1919218301773071,-1.099037528038025,1.3576244115829468
1783003167113087500,2.17008740234375,1.0220563411712646,-1.2342712879180908,1.2721296548843384
1783003167123139300,2.180139404296875,0.8402199745178223,-1.185083270072937,0.9848099946975708
1783003167133191400,2.19019140625,0.7153447270393372,-0.8712924718856812,0.5692479014396667
1783003167143242200,2.2002421875,0.6124969124794006,-0.4176202714443207,0.11039561778306961
1783003167153294300,2.21029443359375,0.5252199769020081,0.019207650795578957,-0.25925856828689575
1783003167163346200,2.22034619140625,0.46278250217437744,0.3962119221687317,-0.39942607283592224
1783003167173397200,2.230397216796875,0.4525940716266632,0.6339943408966064,-0.31188398599624634
1783003167183449600,2.24044970703125,0.4726093113422394,0.7067356705665588,-0.055769383907318115
1783003167193501400,2.25050146484375,0.4947168827056885,0.5334242582321167,0.31416285037994385
1783003167203553500,2.260553466796875,0.523452639579773,0.18565751612186432,0.7529532313346863
1783003167213604400,2.270604248046875,0.5353211164474487,-0.2735706567764282,1.1848430633544922
1783003167223656400,2.280656494140625,0.5093158483505249,-0.7202644944190979,1.5682426691055298
1783003167233708300,2.290708251953125,0.4755644202232361,-0.9896326661109924,1.825400710105896
1783003167243760400,2.300760498046875,0.44052013754844666,-1.0073837041854858,1.9015120267868042
1783003167253811500,2.3108115234375,0.4158906936645508,-0.8655778765678406,1.8266401290893555
1783003167263863300,2.32086328125,0.3878588080406189,-0.6517228484153748,1.6391059160232544
1783003167273915400,2.330915283203125,0.3620637059211731,-0.37663084268569946,1.3680332899093628
1783003167283966200,2.34096630859375,0.351987361907959,-0.14975906908512115,1.0452920198440552
1783003167294018600,2.3510185546875,0.3369692265987396,-0.0996527224779129,0.7433037757873535
1783003167304070400,2.3610703125,0.2674362361431122,-0.1813742071390152,0.5815377831459045
1783003167314122500,2.37112255859375,0.13443322479724884,-0.2945450246334076,0.597323477268219
1783003167324173600,2.381173583984375,-0.026617176830768585,-0.3541622757911682,0.7638373374938965
1783003167334225400,2.391225341796875,-0.1917984038591385,-0.28208601474761963,1.0739455223083496
1783003167344277500,2.401277587890625,-0.35974931716918945,0.11400061100721359,1.4827463626861572
1783003167354328300,2.411328369140625,-0.45452919602394104,0.6925323009490967,1.7992995977401733
1783003167364380400,2.42138037109375,-0.4073081612586975,1.135927438735962,1.8241328001022339
1783003167374432300,2.431432373046875,-0.25458452105522156,1.1791168451309204,1.4668296575546265
1783003167384484400,2.441484375,-0.22414618730545044,0.6445860862731934,0.7391878962516785
1783003167394535400,2.451535400390625,-0.44932645559310913,-0.19716088473796844,-0.2029375284910202
1783003167404587500,2.46158740234375,-0.8145473003387451,-0.9946609735488892,-0.9701250195503235
1783003167414639400,2.471639404296875,-1.203987717628479,-1.2596957683563232,-1.386361002922058
1783003167424691500,2.48169140625,-1.4185152053833008,-0.5982769727706909,-1.352593183517456
1783003167434742500,2.491742431640625,-1.2506698369979858,0.5994806289672852,-0.8451859354972839
1783003167444794400,2.50179443359375,-0.7037047147750854,1.6458922624588013,-0.20435774326324463
1783003167454846500,2.511846435546875,0.06977558135986328,1.9258424043655396,0.22989965975284576
1783003167464897300,2.521897216796875,0.8231843709945679,1.5240055322647095,0.490818589925766
1783003167474949400,2.531949462890625,1.3028340339660645,0.7351903915405273,0.6490718126296997
1783003167485001200,2.542001220703125,1.46274995803833,-0.39128172397613525,0.6718471646308899
1783003167495053300,2.55205322265625,1.3777631521224976,-1.499931812286377,0.469247430562973
1783003167505104400,2.5621044921875,1.066313624382019,-2.1793322563171387,-0.053375836461782455
1783003167515156500,2.572156494140625,0.5516389608383179,-2.210236072540283,-0.7547328472137451
1783003167525208600,2.58220849609375,0.030083920806646347,-1.6905945539474487,-1.5000134706497192
1783003167535259400,2.59225927734375,-0.37339234352111816,-1.0132087469100952,-2.169520139694214
1783003167545311500,2.6023115234375,-0.6047621369361877,-0.603841245174408,-2.608558177947998
1783003167555363300,2.61236328125,-0.7000377774238586,-0.48781242966651917,-2.713660955429077
1783003167565415400,2.62241552734375,-0.7112435698509216,-0.5637080073356628,-2.539543390274048
1783003167575466500,2.632466552734375,-0.6408693790435791,-0.7638500332832336,-2.311713695526123
1783003167585518300,2.642518310546875,-0.5285534858703613,-0.8996257185935974,-2.122354507446289
1783003167595570400,2.6525703125,-0.4657523036003113,-0.9559351801872253,-1.953192114830017
1783003167605622300,2.662622314453125,-0.5048858523368835,-0.8439463376998901,-1.7710537910461426
1783003167615673300,2.67267333984375,-0.5828579068183899,-0.6083945035934448,-1.5834096670150757
1783003167625725400,2.682725341796875,-0.6605985164642334,-0.38478824496269226,-1.454291820526123
1783003167635777500,2.692777587890625,-0.7300300002098083,-0.24413692951202393,-1.3856511116027832
1783003167645828600,2.70282861328125,-0.7738587260246277,-0.1392560452222824,-1.3254660367965698
1783003167655880400,2.71288037109375,-0.7661653757095337,-0.10039597749710083,-1.2534937858581543
1783003167665932500,2.7229326171875,-0.7154523730278015,-0.18245196342468262,-1.1407238245010376
1783003167675984400,2.732984375,-0.6545793414115906,-0.3162088692188263,-0.9518831372261047
1783003167686035500,2.743035400390625,-0.5969948768615723,-0.4311125576496124,-0.6642944812774658
1783003167696087300,2.75308740234375,-0.5268355011940002,-0.5536065101623535,-0.3824496567249298
1783003167706139400,2.763139404296875,-0.431406170129776,-0.6586045622825623,-0.16780473291873932
1783003167716191200,2.773191162109375,-0.32127001881599426,-0.7576842904090881,-0.046111203730106354
1783003167726242300,2.7832421875,-0.24807359278202057,-0.7956926822662354,0.014979314990341663
1783003167736294400,2.79329443359375,-0.2325127273797989,-0.6500832438468933,0.10746187716722488
1783003167746346500,2.803346435546875,-0.2154053896665573,-0.3801617920398712,0.20271702110767365
1783003167756397600,2.8133974609375,-0.21729958057403564,-0.09674698859453201,0.2700234651565552
1783003167766449400,2.823449462890625,-0.22254706919193268,0.11240915954113007,0.29833337664604187
1783003167776501500,2.83350146484375,-0.23816345632076263,0.17907384037971497,0.26567527651786804
1783003167786553300,2.84355322265625,-0.24444185197353363,0.10236708074808121,0.1929728388786316
1783003167796604400,2.8536044921875,-0.23986266553401947,-0.0004734403919428587,0.13695943355560303
1783003167806656300,2.86365625,-0.23618485033512115,-0.05723046138882637,0.07247604429721832
1783003167816708400,2.873708251953125,-0.297890305519104,-0.11890871822834015,0.013610129244625568
1783003167826760200,2.88376025390625,-0.3798821270465851,-0.15169675648212433,0.06393242627382278
1783003167836811300,2.893811279296875,-0.40806007385253906,-0.10286646336317062,0.23524263501167297
1783003167846863600,2.903863525390625,-0.3394155204296112,-0.02486274018883705,0.4516279101371765
1783003167856915500,2.91391552734375,-0.20864732563495636,0.03926024213433266,0.6018201112747192
1783003167866966500,2.923966552734375,-0.13786956667900085,0.08585597574710846,0.7186915874481201
1783003167877018400,2.934018310546875,-0.17805270850658417,0.13671064376831055,0.8211753964424133
1783003167887070500,2.944070556640625,-0.31508803367614746,0.3018417954444885,0.8902186751365662
1783003167897122300,2.954122314453125,-0.5129611492156982,0.5417473316192627,0.9659320116043091
1783003167907173400,2.96417333984375,-0.6337280869483948,0.8920600414276123,1.0936084985733032
1783003167917225500,2.9742255859375,-0.536878228187561,1.089231014251709,1.2070103883743286
1783003167927277300,2.98427734375,-0.26393193006515503,0.8488447666168213,1.1699074506759644
1783003167937328400,2.994328369140625,0.015302654355764389,0.19227880239486694,1.0067036151885986
1783003167947380200,3.004380126953125,0.16036051511764526,-0.8346731066703796,0.793278694152832
1783003167957432600,3.0144326171875,0.10817202925682068,-1.797203540802002,0.6936751008033752
1783003167967484400,3.024484375,-0.08373402804136276,-2.1627984046936035,0.7732405066490173
1783003167977535500,3.034535400390625,-0.2810819447040558,-1.9312793016433716,0.8743012547492981
1783003167987587300,3.04458740234375,-0.38030919432640076,-1.2010536193847656,0.8474978804588318
1783003167997639400,3.054639404296875,-0.3118966519832611,-0.02522406168282032,0.7264224290847778
1783003168007691300,3.064691162109375,-0.09457498043775558,1.0884827375411987,0.5849353671073914
1783003168017742300,3.074742431640625,0.19522760808467865,1.6752164363861084,0.48862096667289734
1783003168027794400,3.08479443359375,0.44060274958610535,1.7950080633163452,0.41791030764579773
1783003168037846300,3.09484619140625,0.5997520685195923,1.593410849571228,0.36216890811920166
1783003168047897300,3.1048974609375,0.67889803647995,1.0309654474258423,0.31206899881362915
1783003168057949200,3.11494921875,0.6855979561805725,0.21070340275764465,0.2807694971561432
1783003168068001500,3.12500146484375,0.6238411068916321,-0.6950156092643738,0.24903687834739685
1783003168078053400,3.135053466796875,0.522066056728363,-1.4281578063964844,0.1932494044303894
1783003168088104400,3.1451044921875,0.4169958531856537,-1.7849255800247192,0.12605518102645874
1783003168098156500,3.155156494140625,0.32722172141075134,-1.757319688796997,-0.02518131583929062
1783003168108208400,3.16520849609375,0.2574370503425598,-1.57095205783844,-0.26837241649627686
1783003168118260500,3.175260498046875,0.19618792831897736,-1.241837739944458,-0.5960133671760559
1783003168128311300,3.185311279296875,0.13848493993282318,-0.7960877418518066,-1.009434461593628
1783003168138363400,3.19536328125,0.040659356862306595,-0.33523815870285034,-1.4752353429794312
1783003168148415200,3.205415283203125,-0.1584998071193695,0.058205001056194305,-1.9303807020187378
1783003168158466300,3.21546630859375,-0.3845769464969635,0.2891562283039093,-2.2652883529663086
1783003168168518400,3.225518310546875,-0.5377182960510254,0.4132648706436157,-2.379244804382324
1783003168178570500,3.235570556640625,-0.5389124155044556,0.5411772131919861,-2.262960195541382
1783003168188622600,3.24562255859375,-0.36893269419670105,0.6339393258094788,-1.9885237216949463
1783003168198673400,3.25567333984375,-0.11638864129781723,0.5965707302093506,-1.6304781436920166
1783003168208725500,3.2657255859375,0.12212539464235306,0.47532743215560913,-1.221293330192566
1783003168218777300,3.27577734375,0.3013122081756592,0.22195908427238464,-0.835322380065918
1783003168228829400,3.285829345703125,0.41782867908477783,-0.08527010679244995,-0.5054818987846375
1783003168238880500,3.295880615234375,0.4594934284687042,-0.39283841848373413,-0.2598503530025482
1783003168248932400,3.305932373046875,0.3824881315231323,-0.6493841409683228,-0.049297913908958435
1783003168258984400,3.315984375,0.2544294595718384,-0.7506710886955261,0.1371774822473526
1783003168269035300,3.32603515625,0.13865971565246582,-0.6832169890403748,0.24146874248981476
1783003168279087400,3.33608740234375,0.04739914461970329,-0.5087978839874268,0.2293190211057663
1783003168289139500,3.346139404296875,0.00373368663713336,-0.21823956072330475,0.14713573455810547
1783003168299191600,3.356191650390625,0.028656141832470894,0.14629948139190674,0.03161463141441345
1783003168309242400,3.366242431640625,0.11074408888816833,0.4588449001312256,-0.06325381994247437
1783003168319294500,3.37629443359375,0.21815964579582214,0.6229404807090759,-0.10695864260196686
1783003168329346300,3.38634619140625,0.3307066857814789,0.7127643823623657,-0.01627454161643982
1783003168339398400,3.3963984375,0.4149259030818939,0.7151409983634949,0.2003994882106781
1783003168349449500,3.406449462890625,0.45181840658187866,0.5336508750915527,0.47872301936149597
1783003168359501300,3.416501220703125,0.3844977021217346,0.2407260686159134,0.758059561252594
1783003168369553400,3.426553466796875,0.19312557578086853,-0.07139135152101517,1.0591671466827393
1783003168379604200,3.436604248046875,0.007368014194071293,-0.2572297155857086,1.3202556371688843
1783003168389656300,3.44665625,-0.0962582528591156,-0.28003939986228943,1.4662455320358276
1783003168399708400,3.45670849609375,-0.12601962685585022,-0.1731657087802887,1.4441472291946411
1783003168409760500,3.466760498046875,-0.06504334509372711,0.03593318536877632,1.2496081590652466
1783003168419811600,3.4768115234375,0.04066283255815506,0.28498247265815735,0.9455308318138123
1783003168429863400,3.486863525390625,0.1228325292468071,0.6413021683692932,0.655036449432373
1783003168439915500,3.49691552734375,0.15452158451080322,1.0008476972579956,0.41707634925842285
1783003168449966300,3.50696630859375,0.10145916044712067,1.293476939201355,0.31688475608825684
1783003168460018400,3.517018310546875,-0.0011057015508413315,1.4955083131790161,0.35548311471939087
1783003168470070300,3.5270703125,-0.1431829333305359,1.586100459098816,0.5660331845283508
1783003168480122400,3.537122314453125,-0.307921826839447,1.6710156202316284,0.9466574788093567
1783003168490173400,3.54717333984375,-0.3888201415538788,1.6106873750686646,1.2719080448150635
1783003168500225300,3.557225341796875,-0.35857632756233215,1.1613582372665405,1.2759995460510254
1783003168510277600,3.567277587890625,-0.34386131167411804,0.38453078269958496,0.8873353600502014
1783003168520329500,3.57732958984375,-0.4519891142845154,-0.49113228917121887,0.15415436029434204
1783003168530380500,3.587380615234375,-0.6797569990158081,-1.0808658599853516,-0.6088133454322815
1783003168540432400,3.597432373046875,-0.9315739870071411,-1.0209977626800537,-1.0094764232635498
1783003168550484500,3.607484375,-1.0977611541748047,-0.22375021874904633,-0.8923132419586182
1783003168560535600,3.61753564453125,-1.0194460153579712,0.699159562587738,-0.4313531816005707
1783003168570587400,3.62758740234375,-0.5089850425720215,1.2019593715667725,0.12995193898677826
1783003168580639500,3.637639404296875,0.4073135554790497,1.1221930980682373,0.6534234881401062
1783003168590691300,3.64769140625,1.4116429090499878,0.6060197949409485,1.2055938243865967
1783003168600742400,3.657742431640625,2.107661008834839,-0.31840288639068604,1.790050983428955
1783003168610794200,3.667794189453125,2.3133327960968018,-1.4884710311889648,2.243711233139038
1783003168620846600,3.6778466796875,2.158512592315674,-2.571847438812256,2.4383859634399414
1783003168630897400,3.6878974609375,1.7986775636672974,-3.1416380405426025,2.22621750831604
1783003168640949500,3.697949462890625,1.3625624179840088,-2.8900375366210938,1.5082341432571411
1783003168651001300,3.70800146484375,0.9779700636863708,-1.9691516160964966,0.3360699713230133
1783003168661053400,3.718053466796875,0.6554213762283325,-0.7455930113792419,-0.9787084460258484
1783003168671105000,3.72810498046875,0.388433575630188,0.4637196362018585,-2.1646695137023926
1783003168681156900,3.738156982421875,0.19670766592025757,1.3323713541030884,-3.0284945964813232
1783003168691209000,3.748208984375,0.18827928602695465,1.784822940826416,-3.4502992630004883
1783003168701260800,3.7582607421875,0.2809242904186249,1.7162063121795654,-3.5035595893859863
1783003168711312000,3.768311767578125,0.4072369635105133,1.1346467733383179,-3.234941244125366
1783003168721364000,3.778364013671875,0.5875341296195984,0.2841196358203888,-2.6856629848480225
1783003168731416000,3.788416015625,0.7168700098991394,-0.5990157723426819,-1.9392198324203491
1783003168741467000,3.798466796875,0.6995998620986938,-1.2209218740463257,-1.1107467412948608
1783003168751519000,3.80851904296875,0.5450158715248108,-1.1924992799758911,-0.34363096952438354
1783003168761570800,3.81857080078125,0.3001549243927002,-0.7051979899406433,0.15775595605373383
1783003168771623000,3.828622802734375,0.020132876932621002,-0.09351251274347305,0.317469984292984
1783003168781674000,3.838674072265625,-0.22609789669513702,0.41971537470817566,0.23545897006988525
1783003168791725800,3.848725830078125,-0.3849184215068817,0.6771583557128906,0.08576454222202301
1783003168801778000,3.85877783203125,-0.46070000529289246,0.7173214554786682,-0.07894033938646317
1783003168811829800,3.868829833984375,-0.5441552400588989,0.6040010452270508,-0.20448973774909973
1783003168821880800,3.878880859375,-0.6340266466140747,0.43714672327041626,-0.2476896345615387
1783003168831933000,3.888932861328125,-0.6785733699798584,0.3058784604072571,-0.20376132428646088
1783003168841985000,3.898985107421875,-0.64810711145401,0.3354922831058502,-0.09449459612369537
1783003168852036000,3.9090361328125,-0.5867955088615417,0.5071538090705872,0.057119693607091904
1783003168862088000,3.919087890625,-0.4821319580078125,0.6837030053138733,0.22635656595230103
1783003168872140000,3.92914013671875,-0.3335944414138794,0.8383303880691528,0.41737234592437744
1783003168882192000,3.93919189453125,-0.21460042893886566,0.8981590867042542,0.6247870922088623
1783003168892243000,3.949242919921875,-0.1424255669116974,0.8762316703796387,0.8241997957229614
1783003168902294800,3.959294677734375,-0.08748091012239456,0.7965167164802551,1.0095391273498535
1783003168912347000,3.969346923828125,-0.031055452302098274,0.6633421182632446,1.1568617820739746
1783003168922398000,3.97939794921875,0.018395954743027687,0.5050550699234009,1.2404327392578125
1783003168932449800,3.98944970703125,0.04569388926029205,0.3687363862991333,1.2692854404449463
1783003168942502100,3.999502197265625,0.03599437326192856,0.23583316802978516,1.2039927244186401
1783003168952554000,4.009553955078125,0.021942736580967903,0.18202799558639526,1.0435221195220947
1783003168962605000,4.01960498046875,0.05917033925652504,0.23132412135601044,0.8219183683395386
1783003168972657000,4.029656982421875,0.13796554505825043,0.3813176155090332,0.6162733435630798
1783003168982709000,4.039708984375,0.18015077710151672,0.7854130268096924,0.5274704694747925
1783003168992760800,4.0497607421875,0.154278963804245,1.2143291234970093,0.5397692322731018
1783003169002812000,4.05981201171875,0.07339584082365036,1.3811808824539185,0.618381917476654
1783003169012864000,4.069864013671875,-0.09398223459720612,1.3073335886001587,0.8075856566429138
1783003169022915800,4.079915771484375,-0.2425689399242401,0.9442669153213501,1.1290347576141357
1783003169032967000,4.089966796875,-0.2632252275943756,0.40121084451675415,1.4731242656707764
1783003169043018800,4.100018798828125,-0.1781182736158371,0.05321582406759262,1.787297248840332
1783003169053071000,4.110071044921875,-0.04213780164718628,0.19169406592845917,2.0720434188842773
1783003169063123000,4.120123046875,0.16627536714076996,0.5020015239715576,2.24505352973938
1783003169073174000,4.130174072265625,0.4366131126880646,0.7028837203979492,2.365098237991333
1783003169083225900,4.140225830078125,0.6851347088813782,0.5431554317474365,2.3458290100097656
1783003169093278000,4.15027783203125,0.8336975574493408,-0.13403448462486267,2.097803831100464
1783003169103329000,4.1603291015625,0.7384124398231506,-1.1410197019577026,1.5607720613479614
1783003169113380900,4.170380859375,0.29778391122817993,-1.6091307401657104,0.87856525182724
1783003169123433000,4.180432861328125,-0.35365381836891174,-1.2630268335342407,0.29497554898262024
1783003169133484800,4.19048486328125,-0.8624049425125122,-0.4867047369480133,-0.0006768763996660709
1783003169143535900,4.200535888671875,-0.9390496611595154,0.450770765542984,0.05061039328575134
1783003169153587700,4.210587646484375,-0.6178492307662964,1.0922983884811401,0.34582072496414185
1783003169163640000,4.22064013671875,-0.09324388206005096,1.3143044710159302,0.6431679129600525
1783003169173692000,4.23069189453125,0.3643993139266968,0.9887233376502991,0.889033854007721
1783003169183743000,4.240742919921875,0.6122056841850281,0.03743499517440796,1.0862693786621094
1783003169193795000,4.250795166015625,0.6382463574409485,-1.2019599676132202,1.229080319404602
1783003169203847000,4.260846923828125,0.4915473461151123,-2.44098162651062,1.2701754570007324
1783003169213898000,4.27089794921875,0.2408064752817154,-3.282783031463623,1.041644811630249
1783003169223949800,4.28094970703125,-0.010424194857478142,-3.2688746452331543,0.45668402314186096
1783003169234002000,4.291001953125,-0.13668546080589294,-2.4988770484924316,-0.30172884464263916
1783003169244053800,4.3010537109375,-0.14658071100711823,-1.3969682455062866,-1.0257188081741333
1783003169254104800,4.311104736328125,-0.06752929091453552,-0.2951657474040985,-1.6362940073013306
1783003169264157000,4.321156982421875,0.026760708540678024,0.5469151139259338,-2.1261699199676514
1783003169274209000,4.331208984375,0.11818703263998032,0.9047688841819763,-2.4220218658447266
1783003169284260900,4.3412607421875,0.23510323464870453,0.7968895435333252,-2.4130964279174805
1783003169294312000,4.35131201171875,0.31865352392196655,0.22777046263217926,-1.8577988147735596
1783003169304364000,4.361364013671875,0.3730335533618927,-0.4808204472064972,-0.8175718784332275
1783003169314415900,4.371415771484375,0.3963306248188019,-0.8162930011749268,0.1671026349067688
1783003169324467000,4.381467041015625,0.4744083285331726,-0.8577633500099182,0.9174694418907166
1783003169334518800,4.391518798828125,0.42519494891166687,-0.42115724086761475,1.3573205471038818
1783003169344571000,4.40157080078125,0.35008999705314636,0.2447369247674942,1.4808357954025269
1783003169354622700,4.411622802734375,0.3235079348087311,0.8878027200698853,1.227079153060913
1783003169364673800,4.421673828125,0.311594158411026,1.435408115386963,0.8249713182449341
1783003169374726000,4.431725830078125,0.15390759706497192,1.6315534114837646,0.45063072443008423
1783003169384778000,4.441778076171875,-0.14594373106956482,1.4202529191970825,0.17349128425121307
1783003169394828800,4.451828857421875,-0.43131503462791443,0.9066723585128784,-0.02696058340370655
1783003169404881000,4.461880859375,-0.5821555256843567,0.4895811676979065,-0.24562563002109528
1783003169414933000,4.47193310546875,-0.5991145372390747,0.49350693821907043,-0.41550278663635254
1783003169424984800,4.48198486328125,-0.4914470911026001,0.5533888339996338,-0.48831018805503845
1783003169435036000,4.492035888671875,-0.2431960105895996,0.5973315238952637,-0.4135701656341553
1783003169445088000,4.502087890625,0.07184460759162903,0.6795958876609802,-0.11058221757411957
1783003169455139800,4.512139892578125,0.3098236322402954,0.8208166360855103,0.2041669338941574
1783003169465192000,4.52219189453125,0.4870753288269043,0.9499744772911072,0.4604739844799042
1783003169475242800,4.53224267578125,0.5458619594573975,0.8960467576980591,0.640071451663971
1783003169485294800,4.542294921875,0.5325726270675659,0.8094619512557983,0.6924933791160583
1783003169495347000,4.552346923828125,0.44710373878479004,0.7153927087783813,0.6605082750320435
1783003169505397800,4.562397705078125,0.2748039960861206,0.5939589142799377,0.5568774342536926
1783003169515450000,4.5724501953125,0.10821900516748428,0.4773617088794708,0.3984164595603943
1783003169525502000,4.582501953125,0.009657347574830055,0.4399847090244293,0.19885042309761047
1783003169535554000,4.592553955078125,0.0013815744314342737,0.554803729057312,-0.037753328680992126
1783003169545604900,4.60260498046875,0.08150903880596161,0.6899542212486267,-0.24651651084423065
1783003169555657000,4.612656982421875,0.2541399300098419,0.8407709002494812,-0.3861921429634094
1783003169565708800,4.622708740234375,0.48217126727104187,0.9756708741188049,-0.41954994201660156
1783003169575760000,4.632759765625,0.661135733127594,0.9670400619506836,-0.18350093066692352
1783003169585812000,4.64281201171875,0.6442620754241943,0.7933558225631714,0.130488783121109
1783003169595863800,4.65286376953125,0.48004966974258423,0.6346103549003601,0.3542012572288513
1783003169605916000,4.662916015625,0.18463735282421112,0.610903799533844,0.45891815423965454
1783003169615966700,4.672966796875,-0.04912002012133598,0.8806822896003723,0.5172192454338074
1783003169626019000,4.68301904296875,-0.10811344534158707,1.246034860610962,0.6403012275695801
1783003169636071000,4.69307080078125,0.07227763533592224,1.2383681535720825,0.9826050400733948
1783003169646122000,4.7031220703125,0.32798901200294495,0.39829444885253906,1.2785817384719849
1783003169656173800,4.713173828125,0.4728519320487976,-0.8627554774284363,1.0883300304412842
1783003169666226000,4.723225830078125,0.49750712513923645,-1.9114148616790771,0.3284270465373993
1783003169676278300,4.7332783203125,0.42834484577178955,-2.119415283203125,-0.9276096820831299
1783003169686329300,4.743329345703125,0.24672023952007294,-1.1291497945785522,-2.1695055961608887
1783003169696381400,4.75338134765625,0.10205092281103134,0.26784569025039673,-2.9433348178863525
1783003169706433300,4.763433349609375,0.018155423924326897,1.6294374465942383,-2.9014103412628174
1783003169716485400,4.7734853515625,0.09010684490203857,2.1896164417266846,-2.188337564468384
1783003169726536200,4.7835361328125,0.2756788432598114,1.814480185508728,-1.3992507457733154
1783003169736588300,4.79358837890625,0.3227960169315338,0.635652482509613,-0.8534398674964905
1783003169746640100,4.80364013671875,0.09241144359111786,-0.8690631985664368,-0.6425473093986511
1783003169756691200,4.813691162109375,-0.3049417734146118,-1.9675076007843018,-0.8565174341201782
1783003169766743300,4.823743408203125,-0.6777241826057434,-2.101363182067871,-1.2656984329223633
1783003169776795400,4.83379541015625,-0.8990128636360168,-1.1878960132598877,-1.5837054252624512
1783003169786847200,4.84384716796875,-0.8436640501022339,0.08884971588850021,-1.8096214532852173
1783003169796898300,4.853898193359375,-0.5172028541564941,1.0800998210906982,-1.9135863780975342
1783003169806950400,4.863950439453125,-0.1543511301279068,1.4493273496627808,-1.7704859972000122
1783003169817002200,4.874002197265625,0.06232311949133873,1.1488250494003296,-1.3869420289993286
1783003169827053300,4.88405322265625,0.07186271995306015,0.3437350392341614,-0.8699452877044678
1783003169837105200,4.894105224609375,-0.1183711364865303,-0.5168188214302063,-0.36676737666130066
1783003169847157200,4.9041572265625,-0.28874388337135315,-1.0863896608352661,-0.0065437364391982555
1783003169857209000,4.914208984375,-0.35538604855537415,-1.0171090364456177,0.07342566549777985
1783003169867260200,4.92426025390625,-0.3880484402179718,-0.6361103057861328,-0.20119059085845947
1783003169877312300,4.934312255859375,-0.37379440665245056,-0.19262687861919403,-0.7704199552536011
1783003169887364400,4.9443642578125,-0.3072870671749115,0.12119551748037338,-1.414084792137146
1783003169897416400,4.95441650390625,-0.32555529475212097,0.06100195646286011,-1.8440744876861572
1783003169907467300,4.96446728515625,-0.3333493769168854,-0.19822652637958527,-1.8486883640289307
1783003169917519400,4.974519287109375,-0.23238523304462433,-0.4345431923866272,-1.3547619581222534
1783003169927571200,4.9845712890625,0.04681112989783287,-0.4568723142147064,-0.48116931319236755
1783003169937622300,4.994622314453125,0.3420129418373108,-0.5132514834403992,0.39629486203193665
1783003169947674400,5.00467431640625,0.4740527272224426,-0.6162558794021606,1.0447745323181152
1783003169957726200,5.014726318359375,0.47446125745773315,-0.6658255457878113,1.3258392810821533
1783003169967777300,5.02477734375,0.3845765292644501,-0.5719860196113586,1.2960610389709473
1783003169977829000,5.0348291015625,0.2608487010002136,-0.3388957977294922,0.9796848297119141
1783003169987881200,5.044881103515625,0.15125581622123718,0.049151092767715454,0.530953586101532
1783003169997933300,5.054933349609375,0.11998817324638367,0.39520516991615295,0.07062086462974548
1783003170007984400,5.064984375,0.16819371283054352,0.6258386969566345,-0.3520079553127289
1783003170018036500,5.075036376953125,0.3016335070133209,0.6227923035621643,-0.6230325698852539
1783003170028088300,5.08508837890625,0.4308789074420929,0.40072277188301086,-0.7136911153793335
1783003170038139400,5.095139404296875,0.5118659138679504,0.1438065469264984,-0.6135985851287842
1783003170048191200,5.105191162109375,0.5850151777267456,-0.02479204162955284,-0.2684377133846283
1783003170058243300,5.115243408203125,0.6040467023849487,-0.11833477765321732,0.19168542325496674
1783003170068295200,5.125295166015625,0.5568381547927856,-0.15490634739398956,0.6611770391464233
1783003170078346200,5.13534619140625,0.47804561257362366,-0.19741439819335938,1.0495178699493408
1783003170088398300,5.1453984375,0.38946616649627686,-0.24837400019168854,1.2904164791107178
1783003170098450200,5.1554501953125,0.3480721116065979,-0.2846473455429077,1.3921183347702026
1783003170108502300,5.165502197265625,0.3658219575881958,-0.2663562595844269,1.3521451950073242
1783003170118553300,5.17555322265625,0.4124743938446045,-0.05427010357379913,1.1610167026519775
1783003170128605400,5.18560546875,0.4836465120315552,0.21479389071464539,0.9382343292236328
1783003170138657300,5.1956572265625,0.5169874429702759,0.38565537333488464,0.6919135451316833
1783003170148708400,5.205708251953125,0.4907133877277374,0.3926337659358978,0.4667111337184906
1783003170158760200,5.21576025390625,0.38115760684013367,0.16024687886238098,0.22137512266635895
1783003170168812300,5.225812255859375,0.2394498884677887,-0.1545158177614212,-0.006473102606832981
1783003170178864000,5.235864013671875,0.1921212524175644,-0.38781777024269104,-0.061111848801374435
1783003170188915200,5.245915283203125,0.3799092173576355,-0.4858826994895935,0.2711631655693054
1783003170198967300,5.25596728515625,0.6344730257987976,-0.3380325138568878,0.5607534646987915
1783003170209019100,5.26601904296875,0.8170970678329468,-0.11555060744285583,0.80339115858078
1783003170219070200,5.2760703125,0.9236158132553101,0.0770028606057167,0.9285216331481934
1783003170229122300,5.286122314453125,0.9023312926292419,0.04813254252076149,0.8027315735816956
1783003170239174400,5.29617431640625,0.6559172868728638,-0.1854272186756134,0.2675134539604187
1783003170249226200,5.306226318359375,0.19396169483661652,-0.32024234533309937,-0.5244026780128479
1783003170259277300,5.31627734375,-0.30459296703338623,-0.14233626425266266,-1.2448461055755615
1783003170269329400,5.326329345703125,-0.629372239112854,0.34643909335136414,-1.6999611854553223
1783003170279381200,5.33638134765625,-0.6604982018470764,0.988232433795929,-1.7733416557312012
1783003170289432300,5.346432373046875,-0.35067135095596313,1.3413923978805542,-1.4046756029129028
1783003170299484200,5.356484130859375,0.13720348477363586,1.112922191619873,-0.8589529395103455
1783003170309536300,5.366536376953125,0.4968547224998474,0.3764280378818512,-0.352936714887619
1783003170319588000,5.376588134765625,0.5011001229286194,-0.5064287781715393,-0.1104753315448761
1783003170329639200,5.38663916015625,0.1080101802945137,-1.1793361902236938,-0.23763467371463776
1783003170339691500,5.39669140625,-0.4568476378917694,-1.4483500719070435,-0.6860369443893433
1783003170349743400,5.406743408203125,-0.8023244142532349,-1.2552696466445923,-1.2228533029556274
1783003170359794400,5.41679443359375,-0.7388982772827148,-0.7723248600959778,-1.6031662225723267
1783003170369846300,5.42684619140625,-0.4390357732772827,-0.1778995841741562,-1.7617496252059937
1783003170379898400,5.4368984375,-0.1139671579003334,0.242781862616539,-1.7558962106704712
1783003170389950200,5.4469501953125,0.059658512473106384,0.35189127922058105,-1.6562830209732056
1783003170400001300,5.457001220703125,-0.009136267006397247,0.12743927538394928,-1.437801480293274
1783003170410053400,5.467053466796875,-0.26238036155700684,-0.3771638870239258,-1.1982765197753906
1783003170420105200,5.477105224609375,-0.4932042360305786,-0.8359895348548889,-1.0374290943145752
1783003170430156300,5.48715625,-0.5514652132987976,-1.102817416191101,-1.0723692178726196
1783003170440208100,5.4972080078125,-0.5614225268363953,-1.1318669319152832,-1.4725890159606934
1783003170450260500,5.507260498046875,-0.5792617797851562,-0.7558419704437256,-2.2642199993133545
1783003170460312300,5.517312255859375,-0.532055139541626,-0.03211361542344093,-3.0687270164489746
1783003170470363400,5.52736328125,-0.34547626972198486,0.6179965138435364,-3.438875675201416
1783003170480415200,5.537415283203125,-0.028417879715561867,0.9466841220855713,-3.221874237060547
1783003170490467300,5.54746728515625,0.2685975730419159,0.9405446648597717,-2.5793678760528564
1783003170500518400,5.557518310546875,0.5022404193878174,0.534434974193573,-1.6908843517303467
1783003170510570200,5.5675703125,0.6179047226905823,-0.06439565867185593,-0.6819917559623718
1783003170520622300,5.577622314453125,0.6362496614456177,-0.6708972454071045,0.2265150099992752
1783003170530674200,5.587674072265625,0.5742557048797607,-1.1075541973114014,0.9361721277236938
1783003170540725200,5.597725341796875,0.3934350609779358,-1.2115954160690308,1.3514256477355957
1783003170550777000,5.607777099609375,0.09840988367795944,-0.8965024352073669,1.487923264503479
1783003170560829400,5.617829345703125,-0.19548645615577698,-0.25361114740371704,1.3789068460464478
1783003170570880300,5.62788037109375,-0.37358731031417847,0.4580109119415283,1.1157047748565674
1783003170580932400,5.637932373046875,-0.4233812093734741,1.095391869544983,0.8188448548316956
1783003170590984400,5.647984375,-0.3873615264892578,1.3041419982910156,0.5730435848236084
1783003170601036300,5.658036376953125,-0.33388763666152954,1.0200282335281372,0.3515876233577728
1783003170611087400,5.66808740234375,-0.291850745677948,0.5807116627693176,0.16110488772392273
1783003170621139200,5.67813916015625,-0.24410080909729004,0.2112121433019638,0.12377429008483887
1783003170631191300,5.68819140625,-0.16932576894760132,-0.10230676084756851,0.34856170415878296
1783003170641242400,5.698242431640625,-0.08397732675075531,-0.22338151931762695,0.7526963949203491
1783003170651294200,5.708294189453125,-0.09383264929056168,-0.22071728110313416,1.1071698665618896
1783003170661346300,5.71834619140625,-0.2638017237186432,-0.14693599939346313,1.3241370916366577
1783003170671398400,5.7283984375,-0.51285320520401,0.012713244184851646,1.413337230682373
1783003170681449000,5.738448974609375,-0.7145759463310242,0.2612852454185486,1.3619228601455688
1783003170691500800,5.748500732421875,-0.8024699687957764,0.4057151973247528,1.2395203113555908
1783003170701553000,5.758552978515625,-0.7841974496841431,0.3996621072292328,1.1024463176727295
1783003170711604700,5.768604736328125,-0.7200015783309937,0.40830180048942566,1.00133216381073
1783003170721655800,5.77865576171875,-0.6163015365600586,0.2702520489692688,0.8775125741958618
1783003170731708000,5.7887080078125,-0.453305184841156,0.04166734591126442,0.7273492217063904
1783003170741759700,5.798759765625,-0.24428591132164001,-0.14811216294765472,0.6545985341072083
1783003170751810800,5.808810791015625,-0.03158135339617729,-0.2141772359609604,0.686375081539154
1783003170761862700,5.818862548828125,0.09465061128139496,-0.17103110253810883,0.7652304768562317
1783003170771914800,5.828914794921875,0.11737042665481567,0.06954622268676758,0.8784700632095337
1783003170781966800,5.838966796875,0.04345226660370827,0.45264941453933716,1.108878254890442
1783003170792018000,5.849017822265625,-0.08271121233701706,0.7365777492523193,1.4269551038742065
1783003170802070000,5.859070068359375,-0.28754159808158875,0.7299166321754456,1.6577537059783936
1783003170812121900,5.869121826171875,-0.6358727812767029,0.37838587164878845,1.5205438137054443
1783003170822173000,5.8791728515625,-1.0906567573547363,-0.3081738352775574,0.8956217765808105
1783003170832224800,5.889224853515625,-1.4340050220489502,-0.911659300327301,0.013539215549826622
1783003170842276900,5.89927685546875,-1.3934484720230103,-1.159287929534912,-0.7197339534759521
1783003170852328700,5.90932861328125,-0.942008912563324,-0.8604927659034729,-1.0478318929672241
1783003170862379800,5.9193798828125,-0.3100264072418213,-0.10126494616270065,-1.000399112701416
1783003170872431900,5.929431884765625,0.17886468768119812,0.5523616075515747,-0.7006633281707764
1783003170882483700,5.939483642578125,0.43891438841819763,0.7716622948646545,-0.37078553438186646
1783003170892534800,5.94953466796875,0.39484652876853943,0.5161585807800293,-0.23041509091854095
1783003170902587000,5.9595869140625,0.06951741874217987,-0.006646015681326389,-0.4974539875984192
1783003170912639000,5.969638916015625,-0.41774699091911316,-0.4468407928943634,-1.1005338430404663
1783003170922689800,5.979689697265625,-0.8811058402061462,-0.5716639757156372,-1.6770367622375488
1783003170932742000,5.989741943359375,-1.1881639957427979,-0.4906167984008789,-1.895238995552063
1783003170942793700,5.999793701171875,-1.201037883758545,-0.3921770453453064,-1.7014915943145752
1783003170952845800,6.009845703125,-0.9347137808799744,-0.4005240797996521,-1.246894121170044
1783003170962897000,6.01989697265625,-0.4760679006576538,-0.5079602599143982,-0.7410829067230225
1783003170972948700,6.02994873046875,-0.04352301359176636,-0.621955156326294,-0.3738540709018707
1783003170983000800,6.040000732421875,0.09047899395227432,-0.86128830909729,-0.2202402949333191
1783003170993051600,6.0500517578125,-0.2277437001466751,-1.0095305442810059,-0.26400497555732727
1783003171003103700,6.060103759765625,-0.8135613799095154,-1.120479702949524,-0.5340391397476196
1783003171013155800,6.07015576171875,-1.3845429420471191,-1.1323325634002686,-0.9305056929588318
1783003171023208000,6.0802080078125,-1.754091739654541,-1.0086287260055542,-1.3762966394424438
1783003171033259000,6.090259033203125,-1.8320627212524414,-0.7746556997299194,-1.8736497163772583
1783003171043310800,6.100310791015625,-1.6666450500488281,-0.4468512237071991,-2.2807652950286865
1783003171053363000,6.110363037109375,-1.2829699516296387,-0.2973567247390747,-2.354642152786255
1783003171063414800,6.120414794921875,-0.7896180152893066,-0.3054330348968506,-2.0214340686798096
1783003171073465900,6.1304658203125,-0.33829888701438904,-0.5430832505226135,-1.3728728294372559
1783003171083517700,6.140517578125,-0.09157992154359818,-0.9633769392967224,-0.5591441988945007
1783003171093569800,6.15056982421875,-0.10482761263847351,-1.185866117477417,0.14746710658073425
1783003171103620900,6.160620849609375,-0.3090536892414093,-1.1656996011734009,0.6110292077064514
1783003171113672700,6.170672607421875,-0.5490215420722961,-0.9078494906425476,0.7891194224357605
1783003171123725000,6.18072509765625,-0.7041309475898743,-0.5141733288764954,0.7222408056259155
1783003171133777000,6.19077685546875,-0.6726095676422119,0.047697246074676514,0.5006195902824402
1783003171143828000,6.200827880859375,-0.48437121510505676,0.8178525567054749,0.2626170814037323
1783003171153879800,6.2108798828125,-0.30845147371292114,1.512372374534607,0.12454769015312195
1783003171163932000,6.220931884765625,-0.28764259815216064,1.853999137878418,0.37232792377471924
1783003171173983000,6.23098291015625,-0.3425614535808563,1.141785979270935,0.6649348139762878
1783003171184034800,6.241034912109375,-0.042365144938230515,0.11815288662910461,0.8564091324806213
1783003171194087000,6.2510869140625,0.25892120599746704,-0.5039876699447632,1.0879147052764893
1783003171204138800,6.261138671875,0.2631939947605133,-0.667856752872467,1.2955310344696045
1783003171214189800,6.27118994140625,0.25085392594337463,-0.6696013808250427,1.3052371740341187
1783003171224241700,6.28124169921875,0.3025176525115967,-0.5726979970932007,1.183269739151001
1783003171234294000,6.2912939453125,0.380595326423645,-0.5119626522064209,0.957151472568512
1783003171244344800,6.3013447265625,0.5334786176681519,-0.4610390365123749,0.7093469500541687
1783003171254397000,6.31139697265625,0.7100266814231873,-0.23928332328796387,0.4053848385810852
