time,seconds_elapsed,z,y,x
1783002691398271700,0.088271728515625,0.12466507506668567,-0.3345367827758193,0.36727114110942927
1783002691408323800,0.09832373046875,0.14947919832766055,-0.3193757462620735,0.27336934349909425
1783002691418374700,0.108374755859375,-0.011745967373251915,-0.24527765987217426,0.22246165162585674
1783002691428426800,0.1184267578125,-0.20970599575340745,-0.22820026834309098,0.2919464355340227
1783002691438477800,0.128477783203125,-0.011384732845425604,-0.3360010101094842,0.3093351945672184
1783002691448529700,0.13852978515625,0.3183797209620476,-0.4577905297398567,0.10658858949765562
1783002691458580700,0.148580810546875,0.2564256613522768,-0.35314795974344015,-0.13742047521080822
1783002691468632800,0.1586328125,-0.06590133593082427,-0.2306225270539522,-0.27446831771694125
1783002691478683600,0.16868359375,-0.2234153721541166,-0.2697033683374524,-0.1150114768628031
1783002691488736000,0.178736083984375,-0.20287585747241973,-0.386334190030396,0.07644987368043511
1783002691498786800,0.188786865234375,-0.280467046675086,-0.4405000799819827,0.0486178639030084
1783002691508839000,0.1988388671875,-0.3284042713701725,-0.4506938494771719,-0.1690192536432296
1783002691518890000,0.208889892578125,-0.1769482200115919,-0.5046837983399629,-0.34899489518459886
1783002691528941800,0.21894189453125,-0.15789748258292674,-0.5173948113530874,-0.31529998472314325
1783002691538993000,0.228992919921875,-0.37566637328267094,-0.4690957676082849,-0.16375731452703474
1783002691549044700,0.239044677734375,-0.21304887644052503,-0.5336787144169212,-0.17777071537561714
1783002691559095800,0.249095703125,0.14223229593932626,-0.6151701259285212,-0.32397575087081637
1783002691569148000,0.25914794921875,0.2578980719923973,-0.5953261922955513,-0.5227476801557466
1783002691579198700,0.26919873046875,0.22433891673982143,-0.5599912595421076,-0.6147526311688125
1783002691589250800,0.279250732421875,0.3204483439296484,-0.7176683773726225,-0.5720016500052064
1783002691599302000,0.289302001953125,0.5640349819749594,-0.9142749453172088,-0.47407494426034386
1783002691609353700,0.299353759765625,0.7595633992940187,-1.026420730550587,-0.39301607894711194
1783002691619404800,0.30940478515625,0.8452829498946666,-1.1076786255672573,-0.4031376599889248
1783002691629456600,0.31945654296875,1.0888199035793542,-1.226004268479347,-0.5374821983531117
1783002691639507700,0.3295078125,1.1086018778920173,-1.2630346069738267,-0.5476497739611194
1783002691649559800,0.339559814453125,0.8080962517946958,-1.2490806081622838,-0.49100814154576505
1783002691659610600,0.349610595703125,0.8127548912554979,-1.3531503467068076,-0.45190618440899993
1783002691669662700,0.359662841796875,1.05137835393548,-1.498690744280815,-0.5488843937899917
1783002691679713800,0.3697138671875,0.8730033159911632,-1.3913368694990873,-0.6693611503213643
1783002691689766000,0.379765869140625,0.48182197819054123,-1.2440306312963365,-0.6967581296823918
1783002691699818000,0.38981787109375,0.40511107895374293,-1.301999712923169,-0.6075357220599428
1783002691709868800,0.399868896484375,0.6384247447878122,-1.4104486894652246,-0.532577986633405
1783002691719919900,0.409919921875,0.9087176034510135,-1.4174991924986242,-0.5338535595271736
1783002691729972000,0.419971923828125,0.9028525108098984,-1.3868293289467692,-0.4723603588948026
1783002691740023800,0.43002392578125,0.7578484120696782,-1.360381759265065,-0.4239422553475946
1783002691750075000,0.440074951171875,0.7930296155661344,-1.3729258912786841,-0.4781810278723016
1783002691760126700,0.450126708984375,0.8742249667406081,-1.3786986294612287,-0.5005004482407123
1783002691770177800,0.460177734375,0.6725012019127607,-1.3354003166131674,-0.6317816535115242
1783002691780230000,0.47022998046875,0.47627077380418775,-1.3701416673876345,-0.702238168528676
1783002691790280700,0.48028076171875,0.5178495693832635,-1.4934014057010412,-0.6573213145680725
1783002691800332800,0.490332763671875,0.6482412054032087,-1.5615357613809406,-0.5742980538466945
1783002691810384000,0.5003837890625,0.7993991505980491,-1.556408773756027,-0.531707743137516
1783002691820435700,0.510435791015625,0.8552537242889404,-1.567595645941794,-0.513452759196423
1783002691830486800,0.52048681640625,0.8601321439802646,-1.6069887680448591,-0.5189599052453413
1783002691840538600,0.53053857421875,0.7876227880865335,-1.6311584559224546,-0.5004044405203313
1783002691850589700,0.540589599609375,0.7411480371594429,-1.6316072226032614,-0.49032403173912315
1783002691860641800,0.550641845703125,0.7657768669813871,-1.6846698274880647,-0.5036062322363257
1783002691870692600,0.560692626953125,0.765508571434021,-1.7461941173784434,-0.49927295227237045
1783002691880745000,0.570744873046875,0.6585381430119276,-1.7755306864999234,-0.49258375683203337
1783002691890795800,0.580795654296875,0.5590303055554628,-1.8515331452064214,-0.470283150761947
1783002691900847900,0.590847900390625,0.5425310061752796,-1.9344101658575235,-0.43398726402185855
1783002691910899000,0.60089892578125,0.4800122984200716,-1.958010091023147,-0.3709631640277803
1783002691920950800,0.61095068359375,0.24783494313955307,-1.9236691377431152,-0.3900211349148303
1783002691931001900,0.621001953125,0.16615326975286007,-1.8919665701426565,-0.4117471559673547
1783002691941054000,0.631053955078125,0.037893385064601895,-1.844980654823035,-0.40254758514128625
1783002691951104800,0.641104736328125,-0.2318476849347353,-1.810111439885199,-0.3957223422311246
1783002691961156900,0.651156982421875,-0.46785891928970813,-1.7715316799916325,-0.4169719779435545
1783002691971208000,0.6612080078125,-0.3865659529596567,-1.6941747379362582,-0.44448012606147674
1783002691981259800,0.671259765625,-0.3475947095304727,-1.5646205756537614,-0.4907271691799164
1783002691991310800,0.681310791015625,-0.61470601554811,-1.466024300084263,-0.5148476476209238
1783002692001362700,0.69136279296875,-0.8495248252481221,-1.4445900285199285,-0.512779353446886
1783002692011413800,0.701413818359375,-0.8230424765139818,-1.4005040724255144,-0.5218401003241538
1783002692021465900,0.7114658203125,-0.7949836722433566,-1.3186110943756997,-0.5460618837151676
1783002692031517700,0.721517578125,-0.9994833315253258,-1.242996612073481,-0.6745473207876086
1783002692041568800,0.73156884765625,-1.0972060391306877,-1.4054038271658122,-0.7839498717274517
1783002692051620600,0.74162060546875,-1.142851353496313,-1.5591167175404728,-0.6536864651970565
1783002692061671700,0.751671630859375,-1.2637509385496377,-1.5334680431514978,-0.44937114950604734
1783002692071724000,0.76172412109375,-1.4653642287403343,-1.5828692029193043,-0.3369941493326798
1783002692081774600,0.771774658203125,-1.84659817302227,-1.6113612840406595,-0.28327450531125065
1783002692091827000,0.781826904296875,-2.238185753536224,-1.4751520477831364,-0.127874794360809
1783002692101878000,0.7918779296875,-2.626585351663828,-1.3171125263810157,0.05171754695139825
1783002692111929900,0.801929931640625,-2.837317767855525,-1.1759573581539093,0.16659114971347153
1783002692121981000,0.81198095703125,-3.160821407702565,-0.9081601156987249,0.21887473304979502
1783002692132032800,0.82203271484375,-3.3679262810468673,-0.5915357139714061,0.2240904584040865
1783002692142083800,0.832083740234375,-3.124507400783896,-0.3024839404329657,0.08245718780383467
1783002692152136000,0.842135986328125,-2.82906490329504,-0.017131898195296525,-0.05062158667454496
1783002692162186800,0.852186767578125,-2.6729788540482518,0.3025095132656395,-0.12765106860753148
1783002692172238800,0.86223876953125,-2.470617960360646,0.5571995829969644,-0.18095813150638712
1783002692182290000,0.8722900390625,-2.1955799529969693,0.7568430344194174,-0.21947733858544377
1783002692192341800,0.882341796875,-1.85933665856421,0.8728405266448855,-0.3121293187977746
1783002692202392800,0.892392822265625,-1.5352718777030705,1.0001635688744486,-0.3164481318449601
1783002692212444400,0.9024443359375,-1.2433745054751635,1.1163416783638298,-0.23602760096788405
1783002692222495200,0.9124951171875,-0.7665764929264783,1.1109326589271427,-0.015460740979528053
1783002692232547300,0.92254736328125,-0.34991701499819755,1.0055474538698792,0.21960001511704175
1783002692242598400,0.932598388671875,-0.0401414562523365,0.9279854907616972,0.2910492857648991
1783002692252650200,0.942650146484375,0.32626433673202987,0.8703864114910363,0.3557902544131502
1783002692262701300,0.952701416015625,0.63602294434309,0.7643371895670891,0.3944673737339675
1783002692272753200,0.962753173828125,0.6239093127012253,0.7006561600342393,0.4896873778034001
1783002692282804200,0.97280419921875,0.5172451737493277,0.6316445831283927,0.6541578821010887
1783002692292856300,0.982856201171875,0.5041454536795615,0.47102556662708517,0.8563555480509996
1783002692302907100,0.9929072265625,0.4913987848311662,0.36507688246816394,1.1217723251104355
1783002692312959200,1.002959228515625,0.4845552025467157,0.2824111664801836,1.352653503100574
1783002692323010300,1.01301025390625,0.4016881187677383,0.24713702400326729,1.2913345265239475
1783002692333062100,1.023062255859375,0.21766309223771094,0.37836335728168485,1.1391321868427098
1783002692343113200,1.03311328125,0.11689736367464065,0.5497291009858251,0.980856956988573
1783002692353165300,1.043165283203125,0.06482289304435253,0.6292594415575266,0.7598184700336307
1783002692363216100,1.053216064453125,-0.08493746031224728,0.7221478608742355,0.7061104799173772
1783002692373268500,1.0632685546875,-0.33300504316389556,0.8778951796859502,0.7389999922800808
1783002692383319300,1.0733193359375,-0.5462105714708566,0.9857698634713887,0.7804463936511427
1783002692393371400,1.083371337890625,-0.51177638694942,0.9719769004404544,0.8624989461768418
1783002692403423200,1.09342333984375,-0.32140520626306535,0.8934525220409035,0.8999545243460685
1783002692413474300,1.103474365234375,-0.11101648894250392,0.7695008559405804,0.8158829601481556
1783002692423526400,1.1135263671875,0.060624856832623475,0.6881295636773109,0.5701162015847862
1783002692433577200,1.1235771484375,0.08785364001989364,0.7577572266548872,0.5204970516847446
1783002692443629300,1.13362939453125,0.05224339745640754,0.7742942276969551,0.6404232251286506
1783002692453680400,1.143680419921875,0.3289215732425451,0.6670055271059274,0.7887753921877593
1783002692463732200,1.153732177734375,0.8225275127291679,0.573030481596291,0.8547736126217991
1783002692473783300,1.163783203125,0.9755927528500556,0.45889001541435714,0.8136905646704137
1783002692483835100,1.173835205078125,0.8261679150581359,0.42425124823153015,0.6137813019186258
1783002692493886200,1.18388623046875,0.9107032243102788,0.4091591853007674,0.5177150562833994
1783002692503938300,1.193938232421875,1.1205343077480792,0.3136903941020369,0.5462706310950219
1783002692513989000,1.203989013671875,1.134783197852969,0.22004209632873534,0.6860504193156958
1783002692524041200,1.214041259765625,0.9647083707422017,0.10087415737360715,0.7201404665745794
1783002692534092300,1.22409228515625,0.961225789323449,0.00940904885828495,0.660364043264836
1783002692544144400,1.234144287109375,1.0745651682555675,-0.03505085511505603,0.6327130891427397
1783002692554195200,1.2441953125,1.2424813560277224,-0.0987938439682126,0.6389568058378994
1783002692564247300,1.254247314453125,1.3928817608535289,-0.13074205689281224,0.6251506910644471
1783002692574298400,1.26429833984375,1.3988877232700585,-0.17320844896137713,0.5212392118215561
1783002692584350500,1.2743505859375,1.1259522411435843,-0.23370120384693144,0.48692814222313463
1783002692594401300,1.2844013671875,0.9214443985551595,-0.2984963321015239,0.44033721757046873
1783002692604453400,1.294453369140625,0.812482504054904,-0.34300153652131554,0.4693974174359813
1783002692614504400,1.30450439453125,0.7151391511559486,-0.3748863288208842,0.492497685983777
1783002692624556300,1.314556396484375,0.7383779879242182,-0.4290606943398714,0.4939505882058292
1783002692634607400,1.324607421875,0.7716285156190394,-0.464123532153666,0.5315183580452576
1783002692644659200,1.3346591796875,0.8057873903304338,-0.4543485725924372,0.5115003099543973
1783002692654710300,1.344710205078125,0.7848527388513088,-0.43757600922882556,0.4433970435325056
1783002692664762400,1.354762451171875,0.8616635913312435,-0.4976075763434171,0.4014545292075723
1783002692674813200,1.364813232421875,0.9966577527105808,-0.6486877801269293,0.31238880998417734
1783002692684865300,1.374865234375,0.990139164596796,-0.8221312068879604,0.2425512671155855
1783002692694916400,1.384916259765625,0.7707809588789939,-0.9466951596677303,0.30782259804718193
1783002692704968200,1.39496826171875,0.5732172363400458,-1.0965513746142386,0.4623487045008689
1783002692715019300,1.405019287109375,0.5012187525779008,-1.2183943779975175,0.4653417123043909
1783002692725071000,1.415071044921875,0.4112000434786081,-1.2688278034225104,0.48668249689899384
1783002692735123500,1.42512353515625,0.25000059674084185,-1.214889292486012,0.5846366751726716
1783002692745174300,1.43517431640625,0.10604922192394733,-1.1097387729674577,0.6850736832380294
1783002692755226400,1.445226318359375,-0.10278466717004775,-1.0669280975058675,0.7507421602610498
1783002692765277400,1.45527734375,-0.3041419367730617,-1.004495898990333,0.6272260360337794
1783002692775329300,1.465329345703125,-0.5278904864042997,-0.86222940852046,0.23966519028525798
1783002692785380400,1.47538037109375,-0.6534159776926041,-0.7258534373939037,-0.07832608848162927
1783002692795432400,1.485432373046875,-0.6682032124578953,-0.6487900714576244,-0.28490965049872174
1783002692805483300,1.495483154296875,-0.6735293759167194,-0.6785740920856594,-0.4261698682691902
1783002692815535400,1.505535400390625,-0.6862099937915802,-0.6648743602961301,-0.29453840652229263
1783002692825586400,1.51558642578125,-0.664156567415595,-0.6936024421304464,-0.10228546720994636
1783002692835638300,1.52563818359375,-0.6307008725374936,-0.9582178396791219,0.10871027609305456
1783002692845689300,1.535689453125,-0.6429261478602886,-1.2152408824026584,0.45116223417390133
1783002692855741200,1.5457412109375,-0.7160767242670059,-1.046835449808836,0.5626800237020477
1783002692865792300,1.555792236328125,-0.9778016610711813,-0.6661500793203711,0.4830908656151965
1783002692875844400,1.56584423828125,-1.2419266447544097,-0.5485451518982648,0.36124804489500817
1783002692885895200,1.575895263671875,-1.4414900166779756,-0.5797375780194998,0.2422921047227457
1783002692895947300,1.585947265625,-1.607823319172859,-0.48476270781755443,0.21225118672419338
1783002692905998300,1.595998291015625,-1.671914390811324,-0.2691848974213004,0.15097056939657777
1783002692916050200,1.60605029296875,-1.6823440148890016,0.08239362104833126,-0.04758479452822357
1783002692926101200,1.616101318359375,-1.588348803374171,0.4488245484739542,-0.330449915320985
1783002692936153000,1.626153076171875,-1.431367851114273,0.6920341699004173,-0.5738897653067484
1783002692946204200,1.6362041015625,-1.1731751800894736,0.8096317907989025,-0.7731453499227762
1783002692956256500,1.646256591796875,-0.8701578634321689,0.9774240599304437,-0.8011089501906186
1783002692966307000,1.65630712890625,-0.517746109008789,1.1433335840553045,-0.8371898790057748
1783002692976359400,1.666359375,-0.2334948676198721,1.2318375046774743,-0.8573244661483913
1783002692986410500,1.676410400390625,0.005722469300031662,1.2086094815641641,-0.8682773103825747
1783002692996462300,1.68646240234375,0.17652327259778974,1.0993883516058325,-0.7223207332231104
1783002693006513400,1.696513427734375,0.23933891747295855,0.9897399361461401,-0.4931929747715592
1783002693016565200,1.706565185546875,0.25495441975593564,0.9343342752665281,-0.4829151071894914
1783002693026616300,1.7166162109375,0.27467911092340946,0.9768751938760281,-0.5676760418910533
1783002693036668400,1.72666845703125,0.2433621816396713,1.0354521782681345,-0.6694033820278942
1783002693046720300,1.73672021484375,0.12880875074267387,1.0953361536055803,-0.7255902564130723
1783002693056771300,1.746771240234375,0.04377250623106956,1.1031517957925796,-0.7692844367109238
1783002693066823200,1.7568232421875,-0.011278934383392333,1.0809896483451127,-0.7351427323300391
1783002693076874200,1.766874267578125,0.023805823001265526,1.0445566912218929,-0.7004676517248153
1783002693086926300,1.77692626953125,0.07067045002877712,0.9794532276704907,-0.6469851409275085
1783002693096977200,1.78697705078125,0.11702771205604076,0.9392313996583223,-0.6595879443258047
1783002693107029200,1.797029296875,0.2465086629718542,0.8860855004042386,-0.7293247667662799
1783002693117080300,1.807080322265625,0.35456045688986776,0.8944935555264353,-0.665267670462653
1783002693127132200,1.817132080078125,0.39278643490970133,0.8901821220681071,-0.6209197754964232
1783002693137183200,1.827183349609375,0.4442430659025907,0.8644412393510341,-0.6512015165135264
1783002693147235300,1.8372353515625,0.5429699821144343,0.7821642304196953,-0.5238772321749479
1783002693157286100,1.8472861328125,0.5838555347323418,0.6391200335755944,-0.3354742462890222
1783002693167338500,1.85733837890625,0.5989800386279821,0.5336176318794489,-0.1458783699572552
1783002693177389300,1.867389404296875,0.5883370640605687,0.4346528152585029,0.011630579098965973
1783002693187441400,1.87744140625,0.47417117117643354,0.3471507651552558,0.05259898769473657
1783002693197492500,1.887492431640625,0.4642816453248262,0.273385563981533,-0.1118298876846209
1783002693207544300,1.89754443359375,0.4116816895157098,0.2781292513772845,-0.4419366886563599
1783002693217599700,1.907599853515625,0.16199205842018127,0.3557186870142817,-0.7145797637075185
1783002693227651800,1.91765185546875,-0.21800854467451572,0.347788186275959,-0.8072516176640987
1783002693237703000,1.927702880859375,-0.4679816688865423,0.1706976351842284,-0.8696998174663633
1783002693247754800,1.937754638671875,-0.7847539546519517,0.09786211607605218,-0.9239513398747891
1783002693257805800,1.947805908203125,-1.2485101147979498,0.06910188553780316,-0.9775282509572804
1783002693267857700,1.957857666015625,-1.7292291001826523,0.023868951365351675,-1.078189057841152
1783002693277908700,1.96790869140625,-1.9913813224881887,-0.05540566087961197,-1.1162690515190363
1783002693287960800,1.9779609375,-2.028504892224073,-0.2514239075422287,-1.1135945716127753
1783002693298012000,1.988011962890625,-1.9080740937262772,-0.4685819728672504,-1.0286277390755711
1783002693308063700,1.998063720703125,-1.652382007345557,-0.6814736129194497,-0.9595796295516192
1783002693318114800,2.00811474609375,-1.280865739479661,-0.8264329957351088,-0.9497288282752037
1783002693328166700,2.018166748046875,-0.8868798656523227,-0.8372598024368285,-0.9144713446721434
1783002693338218800,2.02821875,-0.5456973612517119,-0.8110825741291046,-0.7824293841619044
1783002693348269800,2.038269775390625,-0.23396716130673884,-0.7403966342702507,-0.6952808236714452
1783002693358321700,2.04832177734375,0.031492870372533795,-0.6753665282160043,-0.6115986971825361
1783002693368372700,2.058372802734375,0.3868956233054399,-0.7268626144364476,-0.4787520692259073
1783002693378424800,2.0684248046875,0.7776257102072238,-0.7847875646606087,-0.31483072324357925
1783002693388476000,2.078475830078125,0.9208633837968111,-0.7793211159482598,-0.09067348321359604
1783002693398527700,2.08852783203125,0.9207967483013868,-0.8324252218872308,0.03606901918165385
1783002693408578800,2.098578857421875,1.095966852724552,-0.8557593357235193,0.005965740003995597
1783002693418631000,2.108630859375,1.2736007169127463,-0.7678738392606377,-0.012296586993336677
1783002693428681700,2.118681640625,1.332412386843562,-0.6585775982394814,-0.014179478130489587
1783002693438733800,2.12873388671875,1.4161451475411653,-0.6041323068246245,-0.008286291906051338
1783002693448785000,2.138784912109375,1.5659084235072136,-0.5550161014780401,0.016762224632687867
1783002693458836700,2.148836669921875,1.690043921741843,-0.5246276852160692,-0.06952588310353458
1783002693468887800,2.1588876953125,1.5709785663783549,-0.45350890689790246,-0.20679379810113457
1783002693478939600,2.168939697265625,1.5833984874904155,-0.47134179296940565,-0.32656825158204883
1783002693488990700,2.17899072265625,1.6425789907336235,-0.5345224717646837,-0.3522997454162687
1783002693499042800,2.189042724609375,1.5965385395705698,-0.5947238424882293,-0.20028025148864834
1783002693509094000,2.199093994140625,1.5478490352034568,-0.6814616302207112,-0.005751951122842729
1783002693519145700,2.209145751953125,1.4535375973463058,-0.7050242921158671,0.21245346783064303
1783002693529196800,2.21919677734375,1.332019003611803,-0.7177125087752938,0.4340362542627379
1783002693539248600,2.22924853515625,1.2312772404462098,-0.6758873372197151,0.39438448122348635
1783002693549299700,2.2392998046875,1.050257240951061,-0.4426718710631132,0.14531389534175396
1783002693559351800,2.249351806640625,0.8466150752812623,-0.14365531447976826,-0.11066131882928311
1783002693569402600,2.259402587890625,0.6806663881897926,-0.006390870080888271,-0.3113004302255809
1783002693579455000,2.269455078125,0.5610860690414905,-0.10719371578395366,-0.4560319956347346
1783002693589506800,2.2795068359375,0.3335778746157884,-0.5513529027953744,-0.3576327039420604
1783002693599558000,2.289557861328125,0.10101999558508395,-1.0316416800692676,-0.009064308807533233
1783002693609609700,2.299609619140625,-0.28888299284279345,-1.0968804604381321,0.37913295341469344
1783002693619660800,2.309660888671875,-0.6140016666710376,-1.2883958427235482,0.5917627276603132
1783002693629713000,2.319712890625,-0.7264923198193312,-1.5272276874572037,0.6786017107449471
1783002693639763700,2.329763671875,-0.9534253447055816,-1.4173250049754977,0.7526478477519005
1783002693649815800,2.33981591796875,-1.24293319144845,-1.1433145870938897,0.7651710831079631
1783002693659867000,2.349866943359375,-1.2874655761361122,-0.9063751319780945,0.6284441796518861
1783002693669918700,2.359918701171875,-1.396727330365777,-0.5328878563001752,0.3995404757471755
1783002693679969800,2.3699697265625,-1.4256734388649464,-0.10862608667463064,0.10290775469359942
1783002693690021600,2.380021728515625,-1.4648755684405563,0.3988999493539333,-0.11667954707234166
1783002693700072700,2.39007275390625,-1.6919845344156026,0.9426984912469982,-0.26928791940435765
1783002693710124800,2.400124755859375,-1.8485826248377561,1.3394935772761702,-0.39504265287127344
1783002693720175600,2.410175537109375,-1.6776655016839503,1.5206012550547718,-0.5042745599519461
1783002693730227700,2.420227783203125,-1.4454530750900507,1.5835460792675613,-0.47022334686610845
1783002693740278800,2.43027880859375,-1.113774312093854,1.5119506233483553,-0.3408316451363265
1783002693750330600,2.44033056640625,-0.6796592569738626,1.2852362096488474,-0.05543331607151776
1783002693760381700,2.450381591796875,-0.27938451213538645,1.0898156366184353,0.2553123298155144
1783002693770433800,2.460433837890625,0.005199906730651855,0.9646110478475689,0.404422110308893
1783002693780484600,2.470484619140625,0.22994155905246733,0.896394712972641,0.46078711773995307
1783002693790537000,2.480536865234375,0.38949908380210396,0.8537479959011077,0.5205803460540249
1783002693800587800,2.490587890625,0.3267489053785801,0.8339920328125358,0.5745438818339258
1783002693810640000,2.500639892578125,0.3716828566044569,0.7610676663771271,0.6374610143221915
1783002693820691000,2.51069091796875,0.4165694615572691,0.6394099564328789,0.6682438367292285
1783002693830742800,2.52074267578125,0.4370458478748798,0.5665045869588852,0.7176608516532927
1783002693840793900,2.5307939453125,0.4512333631813526,0.5372179944589733,0.6924682504687458
1783002693850845700,2.540845703125,0.512570752197504,0.5606745656311511,0.5502182362096384
1783002693860897800,2.550897705078125,0.505175965771079,0.6370712843522429,0.48576165572702884
1783002693870948900,2.560948974609375,0.4126818064689636,0.7219663668274879,0.41671296168118716
1783002693881000700,2.571000732421875,0.3735872289210558,0.7559045845255256,0.292424099515751
1783002693891051800,2.5810517578125,0.3265595202863216,0.7940066439047455,0.22323037097603082
1783002693901103600,2.591103515625,0.24413550409972667,0.8689820976510644,0.17440554979145526
1783002693911154700,2.60115478515625,0.13029518990814684,0.9407119936048984,0.14623870943593792
1783002693921206800,2.611206787109375,0.10132511601150035,0.9468427514448762,0.04045705697357189
1783002693931257600,2.621257568359375,0.2601601717054844,0.9158163295403122,-0.039104624017886815
1783002693941309700,2.631309814453125,0.44491175894439217,0.8627338509112596,-0.027128428085334597
1783002693951360800,2.64136083984375,0.44917935326099395,0.8101584450215101,0.005340374647267163
1783002693961412600,2.65141259765625,0.40498599126935003,0.7247013447493315,0.011022429738519713
1783002693971463700,2.661463623046875,0.5125953021168709,0.6172948629975319,-0.024093654366163536
1783002693981515800,2.671515869140625,0.587284924659133,0.47481239168941974,0.05543664053976535
1783002693991566800,2.68156689453125,0.6366676719874144,0.24507249268889425,0.17236222566189244
1783002694001619000,2.691618896484375,0.6932049672454595,0.04773819499164819,0.4061483130469918
1783002694011669800,2.701669677734375,0.690911887872219,-0.07296031453162431,0.5740382338667288
1783002694021721900,2.711721923828125,0.7278910807013511,-0.16994857038259506,0.5451194882985204
1783002694031773000,2.72177294921875,0.687016049477458,-0.1699678596049547,0.45799061888922005
1783002694041824800,2.73182470703125,0.613864888548851,-0.18382775039225815,0.4055061061533168
1783002694051875800,2.741875732421875,0.6025251638889313,-0.2506248661190271,0.4150212457345798
1783002694061927700,2.751927734375,0.5350900425195694,-0.26872487869411704,0.3625342487806454
1783002694071979800,2.761979736328125,0.5071037189632653,-0.25202567282766103,0.29558588801492003
1783002694082030800,2.77203076171875,0.4200801000267267,-0.25621815608143805,0.29141923332214353
1783002694092082700,2.782082763671875,0.22703999239206313,-0.2528296826869249,0.3397631391219795
1783002694102133800,2.7921337890625,0.22081366522312162,-0.3055599868774414,0.32209527088645845
1783002694112185600,2.802185546875,0.3245031722784042,-0.3356345148846507,0.2859913082555868
1783002694122236700,2.812236572265625,0.3635907355636358,-0.2801023050159216,0.31299495918378234
1783002694132288800,2.822288818359375,0.3491565520197153,-0.3676619305253029,0.39798414968326684
1783002694142339600,2.832339599609375,0.38571781169772146,-0.4608993094101548,0.428367414846085
1783002694152391700,2.8423916015625,0.5021779529988766,-0.4831842064544558,0.4026533470707014
1783002694162442800,2.85244287109375,0.5608142663627863,-0.46568449786007404,0.3468560930576175
1783002694172494800,2.862494873046875,0.4981108496904373,-0.40176819826662535,0.2980348155369982
1783002694182545700,2.872545654296875,0.5584849466323852,-0.46001726587861774,0.21978852342646568
1783002694192597800,2.88259765625,0.5027823486328125,-0.507874703335762,0.21938496586056425
1783002694202648800,2.89264892578125,0.3806529295235872,-0.47496495190262794,0.15928122855890542
1783002694212696300,2.9026962890625,0.40924131062626834,-0.5388958645433187,0.04925627140440046
1783002694222747100,2.9127470703125,0.44722178945243357,-0.6715303110539913,0.18109237061161546
1783002694232799200,2.92279931640625,0.25703005698621273,-0.7103332121789455,0.2934043792573735
1783002694242850300,2.932850341796875,0.10650105734467506,-0.7343164375737309,0.35088911143336443
1783002694252902100,2.942902099609375,0.19629121838510036,-0.8196314990267157,0.3326285014690831
1783002694262953200,2.952953125,0.13954407976865768,-0.8002037449792027,0.33530484453886744
1783002694273005300,2.96300537109375,0.03083820585608482,-0.8079957140296697,0.3288135828234255
1783002694283057200,2.97305712890625,-0.11704875484406947,-0.856395880061388,0.2609041767395101
1783002694293108200,2.983108154296875,-0.24848785409033297,-0.86051383677423,0.09487694451911374
1783002694303160000,2.99316015625,-0.45627720256745813,-0.7512833544656634,-0.009852573108393698
1783002694313211100,3.003211181640625,-0.5725608182579278,-0.7659843722522258,-0.05180317940823734
1783002694323263200,3.01326318359375,-0.6235556769579649,-0.8542878018662333,0.014206439202651381
1783002694333314300,3.023314208984375,-0.6780576669961214,-0.8172273604944348,0.17188989544240757
1783002694343366100,3.0333662109375,-0.6488795033067465,-0.763026106968522,0.21596774129560217
1783002694353417200,3.043417236328125,-0.6578519143134355,-0.7034624496266245,0.1882033716605976
1783002694363469000,3.053468994140625,-0.6718272481739521,-0.8420245326206087,0.21558818565979598
1783002694373520100,3.06352001953125,-0.5672065977483988,-1.5994035736128687,0.5333935042673722
1783002694383572200,3.073572265625,-0.6194681153833865,-1.7971394378483294,1.0018190809965133
1783002694393623000,3.083623046875,-1.1521294694513082,-1.0546244962498545,0.9480904134184122
1783002694403675100,3.093675048828125,-1.3769792583227156,-0.729823510068655,0.5822496339056641
1783002694413726200,3.103726318359375,-1.3545990842103957,-0.8457239716604351,0.3382835315560922
1783002694423778300,3.1137783203125,-1.4563970784306526,-0.6995251101776957,0.45191363706309345
1783002694433829400,3.123829345703125,-1.5120686967700718,-0.4402335380002856,0.5645637916220352
1783002694443881200,3.133881103515625,-1.3736357931137084,-0.2755167307913303,0.41523879747539755
1783002694453932300,3.143932373046875,-1.2802894008964298,0.13163199146986007,0.16771989801507442
1783002694463984000,3.153984130859375,-1.2105594465881586,0.5586062349244952,-0.04500318053718656
1783002694474035200,3.16403515625,-1.0171902531296013,0.7408747731760144,-0.19028481757715343
1783002694484087300,3.17408740234375,-0.8739823901563882,0.7593249143630266,-0.19811916446462272
1783002694494139100,3.18413916015625,-0.89639646653831,0.8682648892924189,-0.11352028845697641
1783002694504190200,3.194190185546875,-0.9227887989014386,1.0265402652770281,-0.0979175360577181
1783002694514242000,3.204241943359375,-0.8716992476552724,1.1030156021922826,-0.18749774414189158
1783002694524293000,3.214293212890625,-0.7533651291757821,1.1209680229902266,-0.2875642749270424
1783002694534345200,3.22434521484375,-0.4971487266600132,1.0524766705662012,-0.3330467268811539
1783002694544396300,3.234396240234375,-0.33023440940678117,0.9537895018428564,-0.23137550084572284
1783002694554448100,3.2444482421875,-0.20183716207444666,0.8293132273465394,-0.1048446684397757
1783002694564499200,3.254499267578125,-0.05484451986551284,0.6939265595182776,0.006118081021495163
1783002694574551000,3.264551025390625,0.07831833443343639,0.6460957178071141,0.030414135225117205
1783002694584602000,3.27460205078125,0.07310147656798362,0.7067486316904426,0.019653744823113082
1783002694594654200,3.284654296875,0.03496259230971336,0.7732195842027664,0.034880613114684815
1783002694604705000,3.294705078125,0.02084288154244423,0.8340659748315811,-0.08514913030155002
1783002694614757400,3.30475732421875,-0.053821022036671634,0.9393895128294825,-0.2680385769303888
1783002694624808200,3.31480810546875,-0.17960136486887932,1.0415595552325247,-0.4626937185462564
1783002694634860300,3.3248603515625,-0.19314532157480716,1.025508876402676,-0.6041975175479427
1783002694644911400,3.334911376953125,-0.14949965659379957,1.0048808066546917,-0.6644768854111432
1783002694654963200,3.344963134765625,-0.21758476630449294,1.069405885796249,-0.6650671794544905
1783002694665014300,3.35501416015625,-0.22310323746502397,1.1973334697902203,-0.68768839578107
1783002694675066000,3.365066162109375,-0.11155424908101558,1.2141948804810643,-0.7081024574521929
1783002694685118200,3.3751181640625,0.166904964902997,1.103266946604848,-0.6756550628338008
1783002694695169300,3.385169189453125,0.42275662575960155,0.9494625785544514,-0.4960370756236836
1783002694705221000,3.39522119140625,0.5190916783988475,0.8138751274570822,-0.31654381077177823
1783002694715272200,3.405272216796875,0.5235609327673911,0.6911757995054125,-0.2108460874329321
1783002694725324000,3.415323974609375,0.5421510669469833,0.5708949308723211,-0.21723549620909616
1783002694735375000,3.425375,0.5965244621694088,0.45730216170102356,-0.2514824510627426
1783002694745427200,3.43542724609375,0.5781278047353029,0.3325020620778203,-0.242223240737617
1783002694755478000,3.44547802734375,0.5811515364706515,0.21914631653279065,-0.27912909433590244
1783002694765530000,3.455530029296875,0.5740443348139525,0.11657090819925069,-0.28760241498034445
1783002694775581200,3.465581298828125,0.5781628760486841,0.032011341288685796,-0.2968191013379954
1783002694785633000,3.475633056640625,0.5034188929706812,0.027831132994592188,-0.33016342652980235
1783002694795684000,3.48568408203125,0.3712175771802664,0.05168371774703264,-0.4194975508984178
1783002694805736200,3.495736083984375,0.3705722650140524,-0.010546528455615043,-0.49621692570261655
1783002694815787300,3.505787353515625,0.43348084886968136,-0.09877221665829419,-0.5232353175422176
1783002694825839400,3.51583935546875,0.3609340835750103,-0.08206102809309959,-0.4917195046855136
1783002694835890200,3.52589013671875,0.20261457618772982,-0.04708353047519922,-0.48502055503614244
1783002694845942300,3.5359423828125,0.19987199948132037,-0.0399564550742507,-0.5236701652955263
1783002694855993300,3.545993408203125,0.288919233199954,-0.029066812269389626,-0.5263679530121386
1783002694866045200,3.556045166015625,0.3855027076423168,-0.021984160532057283,-0.47105157785117624
1783002694876096300,3.56609619140625,0.4489543123334646,-0.07462649417817592,-0.4082597887756303
1783002694886148000,3.576148193359375,0.5256336473882198,-0.1168038401722908,-0.40420430283974856
1783002694896200200,3.5862001953125,0.5512403823316097,-0.16191840866208076,-0.3751989749666303
1783002694906251300,3.596251220703125,0.6307137320190668,-0.2538987732231617,-0.30819851868748666
1783002694916303000,3.60630322265625,0.7213982115507126,-0.3772098033323884,-0.2653166046205908
1783002694926354200,3.616354248046875,0.7794540946781635,-0.4570560779854655,-0.24482215292332693
1783002694936406000,3.626406005859375,0.7522153746187686,-0.495696189764142,-0.25550768799083307
1783002694946457000,3.63645703125,0.6479279016703366,-0.5462088179051876,-0.3171701625091955
1783002694956509200,3.64650927734375,0.632598815113306,-0.6381982425555587,-0.39492395839504896
1783002694966560000,3.65656005859375,0.6323147374749183,-0.6952651146456599,-0.3826228048244491
1783002694976612000,3.666612060546875,0.466818470326066,-0.7516495574295521,-0.33515670477245
1783002694986663200,3.6766630859375,0.31383681683540343,-0.8304480765953659,-0.3354610214812681
1783002694996715300,3.68671533203125,0.2610235105365515,-0.8937620263814926,-0.37433176367804405
1783002695006766000,3.69676611328125,0.2704325593948364,-0.9627095981404185,-0.4438047110179439
1783002695016818200,3.706818115234375,0.20753157432377337,-0.9968523984998464,-0.44990226070806383
1783002695026869200,3.716869140625,0.16576164008677005,-1.0634092757299543,-0.4506804054737091
1783002695036921300,3.72692138671875,0.14289105210900305,-1.1203335244789718,-0.4462099089961499
1783002695046972200,3.73697216796875,0.13660861083865164,-1.0966674022093414,-0.4405675922602415
1783002695057024300,3.747024169921875,0.06614741964638232,-1.1135381652504206,-0.4700893086902797
1783002695067076000,3.757076171875,-0.02241524542570114,-1.0893845517247915,-0.5054704186730087
1783002695077127200,3.767127197265625,-0.04476619344353676,-1.1138567296802997,-0.4856454454688355
1783002695087179300,3.77717919921875,-0.061899114552140234,-1.176729073178768,-0.45509657794814556
1783002695097230000,3.78722998046875,-0.11082418124079704,-1.1680173589348792,-0.41061157606616616
1783002695107282200,3.7972822265625,-0.21405834574401378,-1.0986568224608897,-0.341394283987768
1783002695117333200,3.807333251953125,-0.38004093510508535,-0.9547799741849302,-0.3469679559342563
1783002695127385000,3.817385009765625,-0.5042500830978155,-0.8024360340759158,-0.45111821236908434
1783002695137436200,3.827436279296875,-0.4677496136963367,-0.7216974867582321,-0.581815370674245
1783002695147488000,3.837488037109375,-0.434391533973813,-0.6699149848118424,-0.6005312135927379
1783002695157539000,3.8475390625,-0.40637481527924535,-0.7581321974471211,-0.5250214703066274
1783002695167591200,3.857591064453125,-0.3733598499059677,-1.1912342761322856,-0.36411421144846823
1783002695177642000,3.86764208984375,-0.2834346643090248,-1.5229583395749329,-0.01678800752791576
1783002695187694300,3.8776943359375,-0.3811322374731302,-1.320340256255865,0.12694107544096186
1783002695197745200,3.8877451171875,-0.6764893947660923,-1.1522501732215285,-0.06761313568423502
1783002695207797200,3.89779736328125,-0.7979471982240677,-1.1417097822457551,-0.16264595575165003
1783002695217849600,3.907849609375,-0.827040606239438,-1.0189978870734573,-0.14007088925489225
1783002695227901400,3.9179013671875,-1.128559793293476,-0.7743173163115977,-0.14721284256456418
1783002695237952500,3.927952392578125,-1.4628215585201978,-0.48442923807948823,-0.3485685960639268
1783002695248004600,3.938004638671875,-1.570948755761981,-0.18614917907714842,-0.6173888979565352
1783002695258056700,3.948056640625,-1.6188035628706217,0.0854655758395791,-0.722747215006873
1783002695268107800,3.958107666015625,-1.6179191812515257,0.2543547002971172,-0.6446873123139143
1783002695278159600,3.96815966796875,-1.5858745222151278,0.38755204138755794,-0.5288709488090128
1783002695288210700,3.978210693359375,-1.6306553287059067,0.6514598751887679,-0.4400976731935516
1783002695298262500,3.988262451171875,-1.6799422144442795,0.9432523257374763,-0.44054245781898493
1783002695308313600,3.998313720703125,-1.5675257955759763,1.1146239146605132,-0.44111375490091737
1783002695318365700,4.00836572265625,-1.3069780858576296,1.2150249015644192,-0.35300018530320376
1783002695328416500,4.01841650390625,-0.9748287827402353,1.2467518729537725,-0.22364720814861355
1783002695338468600,4.028468505859375,-0.575235005903244,1.2098697107583283,-0.08056064260066487
1783002695348519700,4.038519775390625,-0.21865677945017814,1.1044459272563456,0.09446706681028008
1783002695358571500,4.048571533203125,0.0139250649780035,0.9636460022076964,0.2892066718392074
1783002695368622600,4.05862255859375,0.17060966463983057,0.9263754252165556,0.4717985968261957
1783002695378674400,4.06867431640625,0.18624679423272608,0.9465209721446036,0.5836181823125108
1783002695388725500,4.0787255859375,0.17762217375040054,0.9807567114844917,0.5978407323997468
1783002695398777600,4.088777587890625,0.2140139220803976,0.9112146809637546,0.6636319590196013
1783002695408828400,4.098828369140625,0.21702537885606288,0.7969874132812023,0.8134596785239875
1783002695418880500,4.108880615234375,0.15966624582111835,0.7148799156978726,0.9356410470161587
1783002695428931600,4.118931640625,0.12424246574044227,0.7405027249932289,0.961203577491641
1783002695438983700,4.128983642578125,0.03466565518975258,0.8765551632538437,0.8907827183097601
1783002695449035500,4.139035400390625,-0.05960954231023788,1.0684121985837816,0.7662420733403414
1783002695459086600,4.149086669921875,-0.16785305940806863,1.2457222376450896,0.6629585898026824
1783002695469138700,4.159138671875,-0.3157657390713692,1.378948220308125,0.5807741910582408
1783002695479189800,4.169189697265625,-0.39034488697648045,1.4483926356732844,0.4893718090482056
1783002695489241600,4.17924169921875,-0.39166123027205463,1.4615946470737455,0.3967498221153393
1783002695499292700,4.189292724609375,-0.368400181671977,1.3917209003806112,0.3226720843937248
1783002695509344500,4.199344482421875,-0.317453838288784,1.301813250440359,0.2696377922879532
1783002695519395600,4.2093955078125,-0.2057096195936203,1.1866738363489509,0.306665756162256
1783002695529447700,4.21944775390625,-0.10346621969342232,1.0347449067816137,0.38368374858684834
1783002695539498500,4.22949853515625,0.039032033705711365,0.9023544981598853,0.4191716068796813
1783002695549550600,4.239550537109375,0.25159517245590685,0.7722644754350185,0.43724305094741284
1783002695559601700,4.2496015625,0.5038391642093658,0.6306967808842658,0.45968343081437046
1783002695569653500,4.259653564453125,0.6726315502941608,0.5292188123986125,0.4748870278282091
1783002695579704600,4.26970458984375,0.7120821016728878,0.4766486672058701,0.4902319330088794
1783002695589756400,4.27975634765625,0.7561036142289638,0.4113768613502383,0.4697359652079642
1783002695599807500,4.289807373046875,0.7322048522472381,0.3535483572378754,0.4463887361617759
1783002695609859600,4.299859619140625,0.7138344982981681,0.26362609425038097,0.40875126208700235
1783002695619910400,4.309910400390625,0.7811047844946384,0.13308832775801419,0.3929292774464935
1783002695629962800,4.319962646484375,0.784125009098649,0.05356500144898891,0.3872194118997082
1783002695640014600,4.3300146484375,0.7208131051391363,0.04196341098248958,0.3586334784824401
1783002695650065700,4.340065673828125,0.6568646568417549,0.08583674723953008,0.3177943588221446
1783002695660117500,4.350117431640625,0.5446680182039737,0.1552171574577689,0.26604809723291545
1783002695670168600,4.36016845703125,0.5270546201020478,0.18465309530049562,0.25706434284830465
1783002695680220700,4.370220703125,0.4998410344839096,0.14449848730564116,0.278989265740104
1783002695690271500,4.380271484375,0.4196259265184402,0.0653904637992382,0.3467844160608947
1783002695700323600,4.390323486328125,0.429068877646327,-0.01517389599531889,0.3476397177159786
1783002695710374700,4.400374755859375,0.43239071554541586,-0.052741410106420514,0.3774390820436179
1783002695720426500,4.410426513671875,0.3256283769160509,-0.09853899242430925,0.43239086167588825
1783002695730477600,4.4204775390625,0.2229460010766983,-0.17760200774520635,0.44243879295960065
1783002695740529700,4.43052978515625,0.03323766821324825,-0.2539034493982792,0.4208807488851249
1783002695750580500,4.44058056640625,-0.21250819369256496,-0.3118371674507856,0.4595182303152978
1783002695760632600,4.450632568359375,-0.46959611834585663,-0.34624680205285546,0.49311340672932563
1783002695770683600,4.46068359375,-0.49733752723038194,-0.38035570014268155,0.42157216521538793
1783002695780735500,4.470735595703125,-0.4068997159361839,-0.3968193436875939,0.3582553658850491
1783002695790786600,4.48078662109375,-0.381703315359354,-0.4191375584796071,0.3538239593088627
1783002695800838400,4.49083837890625,-0.34596038632690906,-0.49101329264491794,0.40962519537732
1783002695810890800,4.500890869140625,-0.28547464570403097,-0.5735121276333928,0.4441583467612043
1783002695820941600,4.510941650390625,-0.19204232876896857,-0.6455813385441899,0.4077293716933578
1783002695830993700,4.52099365234375,-0.07546762117743491,-0.7230690673723816,0.32047435515373945
1783002695841044700,4.531044677734375,0.05218552978932857,-0.8373489420250058,0.2621924447180703
1783002695851096600,4.5410966796875,0.17507599639892577,-0.946289209215343,0.2871823446710594
1783002695861147600,4.551147705078125,0.1249427229642868,-0.9835390356793999,0.3280763180574402
1783002695871199500,4.561199462890625,-0.04344809658229351,-0.9417249700397252,0.40849728732593354
1783002695881250600,4.57125048828125,-0.21500585572719572,-0.880129806870222,0.5224599127229302
1783002695891302700,4.581302734375,-0.39910745462477204,-0.946802127173543,0.7141982170440256
1783002695901353500,4.591353515625,-0.3714180681884289,-1.102925585821271,0.7306774234842509
1783002695911405600,4.601405517578125,-0.1325233873516321,-1.093413661110401,0.5272937260875478
1783002695921456600,4.61145654296875,0.119461076682806,-0.7555372125178575,0.17047155307708306
1783002695931508500,4.621508544921875,0.17262801872491834,-0.5241279190003871,-0.16632661702577023
1783002695941559600,4.6315595703125,-0.09538520456850529,-0.4926368021935224,-0.14344940751097165
1783002695951611400,4.641611328125,-0.4016062857031822,-0.5614069715589285,0.0509987402907107
1783002695961662500,4.651662353515625,-0.23172201272845266,-0.7076999410659074,0.32533176858965307
1783002695971714600,4.661714599609375,0.13362462659180163,-0.986334511616826,0.4982174153374508
1783002695981766400,4.671766357421875,0.32571313259005547,-1.5631281451389192,0.6557326571371406
1783002695991817500,4.6818173828125,-0.04269640143215656,-1.6385349760398267,1.02344536800161
1783002696001869600,4.69186962890625,-0.8280763790279626,-1.0104515925243496,1.2071177817016838
1783002696011920600,4.701920654296875,-1.1724702466905117,-0.6243123405441642,1.1490739543382078
1783002696021972700,4.71197265625,-0.7936246588498354,-0.753427088496089,0.9972329222500323
1783002696032023600,4.7220234375,-0.62744391656816,-0.8413140462636947,0.8549464119054376
1783002696042075600,4.73207568359375,-1.1131237392306328,-0.43960430018603797,0.6874089212525636
1783002696052126700,4.742126708984375,-1.4111574222564696,-0.07604162167310714,0.29008820391409096
1783002696062178600,4.752178466796875,-1.4374275895446538,0.1475318636521697,-0.00034212796855717897
1783002696072229600,4.762229736328125,-1.4199088839888572,0.37438919295370576,0.022679960776492952
1783002696082281500,4.772281494140625,-1.2219886030972003,0.5744152139529586,0.11656895370418205
1783002696092332500,4.78233251953125,-0.7567191157788038,0.5749705097481608,-0.1403580447663553
1783002696102384600,4.792384521484375,-0.36618016753494737,0.6230053495988249,-0.4721115717655047
1783002696112435500,4.802435546875,-0.45200259398818016,0.8675409589320421,-0.6572370703507214
1783002696122487600,4.812487548828125,-0.7224135260730982,1.0233011372253298,-0.7436405846275389
1783002696132538600,4.82253857421875,-0.66032385738492,1.0589724623262882,-0.7785933131303637
1783002696142590500,4.832590576171875,-0.40377310834825036,1.0805825288489461,-0.7728017971821128
1783002696152642600,4.842642578125,-0.5204670584052801,1.1354507218509913,-0.5678545402631163
1783002696162693400,4.852693359375,-0.9688204822361469,1.13928547770828,-0.20947004983937367
1783002696172745500,4.862745361328125,-1.118973634302616,1.0293673053964971,0.09801463975664228
1783002696182796500,4.872796630859375,-0.619969050642848,0.7908309364780783,0.0009913262920221314
1783002696192848600,4.8828486328125,-0.2022398976564407,0.6814382493451238,-0.3341569896779954
1783002696202899500,4.8928994140625,-0.1701467233031988,0.813789787261188,-0.5711098157320171
1783002696212951300,4.902951416015625,-0.1014665703088045,0.8351303891927003,-0.7380936910901218
1783002696223002400,4.91300244140625,-0.07261515435576439,0.7677303391367196,-0.8165916929394006
1783002696233054500,4.923054443359375,0.012901567149162291,0.7908677613571286,-0.797347405700013
1783002696243105500,4.93310546875,0.14303659805953503,0.8809095590710639,-0.7250509619046002
1783002696253157400,4.943157470703125,0.147673025688529,1.0083411762416363,-0.5797660003963857
1783002696263208400,4.95320849609375,0.2778536493062973,1.029201593440771,-0.45106092922389507
1783002696273260300,4.96326025390625,0.27379882095754143,1.0430673294469714,-0.47942594989947973
1783002696283311400,4.973311279296875,0.23209727578163145,1.0026076010257006,-0.8145039999451488
1783002696293363500,4.983363525390625,0.03462006248235702,1.0729551027104258,-0.8304717497318983
1783002696303414300,4.993414306640625,-0.20421265903413294,1.1407447366058825,-0.5933612123655155
1783002696313466400,5.00346630859375,0.02205634898543358,1.0380094615355133,-0.48530138127151873
1783002696323517400,5.013517333984375,0.11295710161626338,0.9655310853019357,-0.44770584664233026
1783002696333569300,5.0235693359375,0.08762216935157775,0.8933028844371438,-0.5258521855097263
1783002696343621400,5.033621337890625,0.27049510323703285,0.7634782346501946,-0.697017072879523
1783002696353672400,5.04367236328125,0.5608738875955342,0.7336006905198097,-0.9155133280057459
1783002696363724500,5.053724609375,0.627002018019557,0.802711636146903,-1.0297679951518774
1783002696373775400,5.063775390625,0.3851876503437757,0.8295648640200495,-0.9827380945600569
1783002696383827500,5.073827392578125,0.12380232075750827,0.7180258125081658,-0.7736835484527051
1783002696393878500,5.08387841796875,0.21875614817142486,0.5214245052605867,-0.4988900173693895
1783002696403930400,5.093930419921875,0.34951018776297565,0.40845746677219863,-0.27986301636733113
1783002696413981400,5.1039814453125,0.3785486507207155,0.33779724587649107,-0.15474815170653164
1783002696424033300,5.114033203125,0.30296178707778454,0.29008623115271326,-0.1995881045060232
1783002696434084400,5.12408447265625,0.05979775835871696,0.3320671777918935,-0.37258342217337337
1783002696444136400,5.134136474609375,-0.06814706903100014,0.35662206559479237,-0.5915646478049457
1783002696454187500,5.1441875,-0.02086801598370075,0.35402094318568705,-0.882120176969841
1783002696464239400,5.1542392578125,0.07125029574334621,0.276334184654057,-1.0003202938061206
1783002696474290400,5.16429052734375,0.03530687570273876,0.19659896916002034,-0.9994960448764264
1783002696484342300,5.17434228515625,-0.0881125832170248,0.20011486832648515,-0.936125323401764
1783002696494393300,5.184393310546875,-0.049883682587742804,0.09652677581906319,-0.8186516211438923
1783002696504445400,5.194445556640625,0.07892331458926201,-0.10285364075303077,-0.7334671272680163
1783002696514497500,5.20449755859375,0.125016957244277,-0.15331424644589423,-0.6877190101150423
1783002696524548400,5.21454833984375,0.10355039084553717,-0.015577216099202632,-0.6354612188071012
1783002696534600400,5.224600341796875,0.04225801001489162,0.09311784415841103,-0.6408956649459898
1783002696544651500,5.234651611328125,0.040973230901360506,0.06777180597782134,-0.6111646166142076
1783002696554703400,5.244703369140625,0.1183639290958643,-0.05319383004903793,-0.573800881446898
1783002696564754400,5.25475439453125,0.31080782440304755,-0.20353344459831713,-0.5956283901125192
1783002696574806500,5.264806640625,0.3373994787305593,-0.28220219990462064,-0.6209639068990945
1783002696584857300,5.274857421875,0.43021629411578177,-0.39530601651519537,-0.67252107565701
1783002696594909400,5.284909423828125,0.40734161448478695,-0.47638066391944883,-0.6075179672075435
1783002696604960500,5.29496044921875,0.2592348735541105,-0.5925260401830077,-0.4852614145873114
1783002696615012400,5.305012451171875,0.3135936557292938,-0.7502057883620261,-0.38128249613139775
1783002696625063400,5.3150634765625,0.37022505901157854,-0.8017229173704982,-0.3008427490971982
1783002696635115300,5.325115234375,0.2526087334126234,-0.7996908270210027,-0.2528216455109417
1783002696645166300,5.335166259765625,0.2098269917845726,-0.8250166991963982,-0.2977338963616639
1783002696655218400,5.345218505859375,0.3179436676323414,-0.858133955900371,-0.40591450429111714
1783002696665269200,5.355269287109375,0.20606676246821878,-0.8063011850714683,-0.5708352365743369
1783002696675321300,5.3653212890625,-0.09558569557666778,-0.784315270973742,-0.6831145119942724
1783002696685372400,5.375372314453125,-0.056203533259034155,-0.9768976979687809,-0.6912826208807528
1783002696695424300,5.38542431640625,0.2920902644515037,-1.156587033382058,-0.7304826315645128
1783002696705476600,5.3954765625,0.4226414749473333,-1.093529688705504,-0.7198607728503644
1783002696715527400,5.40552734375,0.23913784194290635,-0.9815332488149404,-0.5902044288350269
1783002696725579500,5.41557958984375,0.10634615904390811,-0.9448091997906565,-0.4547331149306148
1783002696735630600,5.425630615234375,0.13984920019507407,-0.8417644203796982,-0.4153715204769745
1783002696745682400,5.435682373046875,0.1675935316890478,-0.6228659411281346,-0.5097909487532452
1783002696755733500,5.4457333984375,-0.06082768592834472,-0.3877317818686366,-0.5796890261700377
1783002696765785300,5.455785400390625,-0.25448797128796574,-0.32865999969691034,-0.6552336946390569
1783002696775836400,5.46583642578125,-0.30027473995089526,-0.3201932001248002,-0.6659472502246498
1783002696785888500,5.475888427734375,-0.45946693851947784,-0.2733101606577635,-0.5761878131160513
1783002696795939300,5.485939208984375,-0.5510907447278499,-0.28990327580124137,-0.47668845122698694
1783002696805991400,5.495991455078125,-0.5679360810667275,-0.3450061543419957,-0.3265418384991586
1783002696816042500,5.50604248046875,-0.6290151114076376,-0.5406523528218269,-0.09501100096125155
1783002696826094300,5.51609423828125,-0.6487474013596772,-0.6610241146087646,0.008761763930693268
1783002696836145400,5.5261455078125,-0.6927718365252018,-0.5128200507834554,-0.05484470252860337
1783002696846197200,5.536197265625,-0.8981517857730388,-0.3533125026553869,-0.10476615984346717
1783002696856249300,5.546249267578125,-1.242636838850379,-0.2826388377562165,-0.12224420459531248
1783002696866300400,5.556300537109375,-1.6334662944734095,-0.13391338040530681,-0.15548271305877714
1783002696876351200,5.566351318359375,-1.8449036440640687,0.045773909181356424,-0.22154351386763155
1783002696886403300,5.5764033203125,-1.832023119702935,0.12953560371249914,-0.21172855108957736
1783002696896455200,5.586455078125,-1.6568834104180334,0.19251812958717346,-0.23270802809111774
1783002696906506200,5.59650634765625,-1.2336878087192773,0.4098889608800411,-0.2728480595713481
1783002696916558600,5.60655859375,-1.0267723204672337,0.6501090451017022,-0.3449169782212004
1783002696926609400,5.616609375,-1.0748410625874996,0.7075643319875001,-0.4519023484840989
1783002696936661500,5.62666162109375,-1.1546908443719148,0.7456658068448304,-0.39624300510436294
1783002696946712600,5.636712646484375,-1.0580810664445162,0.8446914137423038,-0.1872709496486932
1783002696956764400,5.646764404296875,-0.8943155686110258,0.9039362143933772,0.06349785498566925
1783002696966815500,5.6568154296875,-0.8807464774638414,0.8432593351125717,0.2918671232201159
1783002696976867300,5.666867431640625,-0.7701473371505737,0.7293538467302918,0.430647525139898
1783002696986918400,5.67691845703125,-0.513139491996169,0.6699921417012811,0.43444085300825536
1783002696996970500,5.686970458984375,-0.4866852003127336,0.7582102311193942,0.35677747535221277
1783002697007021300,5.697021240234375,-0.9590864392071962,0.903005947805941,0.3139879888091236
1783002697017073400,5.707073486328125,-1.13662794893682,0.9576087678700685,0.19846995066367087
1783002697027124500,5.71712451171875,-0.034758009648323054,1.1353320639073847,0.1355382781933993
1783002697037176300,5.72717626953125,0.6034054538547993,1.454846341857314,0.3944652548421174
1783002697047228400,5.737228515625,-0.11707622737288474,1.223551906891167,0.16818660221137105
1783002697057279200,5.747279296875,-0.1411293031334877,1.1354951455146074,0.018815613498538733
1783002697067331300,5.757331298828125,0.09848083249628543,1.28502636629045,0.03037986762933433
1783002697077382400,5.76738232421875,-0.043270401927828786,1.3073843285709619,0.009087488753721118
1783002697087434200,5.777434326171875,-1.4370587562322616,1.3442521699801087,-0.09574819266200064
1783002697097485300,5.7874853515625,-1.9512480495423077,1.4425743047833441,-0.024073899352923034
1783002697107537400,5.797537353515625,-0.758289141574502,1.531625045633316,-0.028787776132300495
1783002697117588500,5.80758837890625,-0.11462474256753921,1.606531233535707,-0.3335985520776361
1783002697127640600,5.817640625,0.10865092885494232,1.7170356813028453,-0.39949499263763427
1783002697137691400,5.82769140625,0.8010229524075985,1.9521978976130485,-0.11802527172602713
