time,seconds_elapsed,z,y,x
1783002691384452900,0.074452880859375,-0.94403076171875,-0.3421478271484375,0.09857177734375
1783002691394504000,0.08450390625,-0.93280029296875,-0.347442626953125,0.092742919921875
1783002691404555800,0.0945556640625,-0.9367828369140625,-0.3388671875,0.082489013671875
1783002691414606800,0.10460693359375,-0.9581146240234375,-0.329437255859375,0.0796356201171875
1783002691424658700,0.11465869140625,-0.972412109375,-0.328399658203125,0.08721923828125
1783002691434709800,0.124709716796875,-0.94256591796875,-0.34112548828125,0.0841217041015625
1783002691444761900,0.134761962890625,-0.915679931640625,-0.3493804931640625,0.060394287109375
1783002691454812700,0.144812744140625,-0.933563232421875,-0.3340911865234375,0.0388946533203125
1783002691464864800,0.15486474609375,-0.963897705078125,-0.32611083984375,0.030059814453125
1783002691474915800,0.164915771484375,-0.9755096435546875,-0.3316497802734375,0.051849365234375
1783002691484967700,0.1749677734375,-0.972686767578125,-0.343048095703125,0.065460205078125
1783002691495018800,0.185018798828125,-0.9843902587890625,-0.3438720703125,0.05633544921875
1783002691505070800,0.19507080078125,-0.9840850830078125,-0.34381103515625,0.0333709716796875
1783002691515122000,0.205121826171875,-0.9689178466796875,-0.34619140625,0.0198822021484375
1783002691525174000,0.215174072265625,-0.9765472412109375,-0.3411407470703125,0.0297698974609375
1783002691535224800,0.225224853515625,-0.995330810546875,-0.335540771484375,0.043060302734375
1783002691545277000,0.23527685546875,-0.9687652587890625,-0.3417816162109375,0.0382232666015625
1783002691555328000,0.245327880859375,-0.9369354248046875,-0.3468170166015625,0.0228424072265625
1783002691565379800,0.2553798828125,-0.93157958984375,-0.3410491943359375,0.005279541015625
1783002691575431000,0.265430908203125,-0.9337005615234375,-0.3414306640625,0.00103759765625
1783002691585482800,0.275482666015625,-0.919677734375,-0.3600616455078125,0.0081634521484375
1783002691595533800,0.285533935546875,-0.8934478759765625,-0.3775482177734375,0.018096923828125
1783002691605586000,0.2955859375,-0.8780364990234375,-0.3870086669921875,0.0244903564453125
1783002691615636700,0.30563671875,-0.8674468994140625,-0.395782470703125,0.016937255859375
1783002691625688800,0.315688720703125,-0.842071533203125,-0.4060821533203125,0.0032958984375
1783002691635740000,0.325739990234375,-0.8527374267578125,-0.406402587890625,0.00360107421875
1783002691645791700,0.335791748046875,-0.8815765380859375,-0.4049835205078125,0.008148193359375
1783002691655842800,0.3458427734375,-0.8700714111328125,-0.4184112548828125,0.0090484619140625
1783002691665894700,0.355894775390625,-0.8522796630859375,-0.4267730712890625,-0.00396728515625
1783002691675945700,0.36594580078125,-0.8824310302734375,-0.40875244140625,-0.0144195556640625
1783002691685997800,0.375997802734375,-0.918121337890625,-0.3958282470703125,-0.015533447265625
1783002691696050000,0.3860498046875,-0.917724609375,-0.4019622802734375,-0.00640869140625
1783002691706101000,0.39610107421875,-0.8903961181640625,-0.407745361328125,-0.0030059814453125
1783002691716151800,0.40615185546875,-0.8685455322265625,-0.404052734375,-0.004241943359375
1783002691726204000,0.416203857421875,-0.8774566650390625,-0.3975067138671875,0.002349853515625
1783002691736256000,0.426256103515625,-0.889678955078125,-0.393280029296875,0.0031890869140625
1783002691746306800,0.436306884765625,-0.8827056884765625,-0.3921051025390625,-0.0022735595703125
1783002691756359000,0.44635888671875,-0.880340576171875,-0.3885498046875,-0.0056304931640625
1783002691766410000,0.456409912109375,-0.9069671630859375,-0.3812713623046875,-0.0205535888671875
1783002691776461800,0.4664619140625,-0.9212799072265625,-0.3844451904296875,-0.02313232421875
1783002691786513000,0.476512939453125,-0.914703369140625,-0.393096923828125,-0.01605224609375
1783002691796564700,0.486564697265625,-0.9000091552734375,-0.394287109375,-0.0079803466796875
1783002691806615800,0.49661572265625,-0.8876953125,-0.3906097412109375,-0.0034637451171875
1783002691816668000,0.50666796875,-0.8839569091796875,-0.3907928466796875,-0.0029144287109375
1783002691826718700,0.51671875,-0.8859405517578125,-0.3930206298828125,-0.0033111572265625
1783002691836770800,0.526770751953125,-0.8944854736328125,-0.392913818359375,-0.0018310546875
1783002691846822000,0.53682177734375,-0.8975830078125,-0.3927764892578125,-0.001739501953125
1783002691856873700,0.546873779296875,-0.8939666748046875,-0.398651123046875,-0.0027008056640625
1783002691866924800,0.5569248046875,-0.8971099853515625,-0.4031524658203125,-0.0014190673828125
1783002691876976600,0.5669765625,-0.9093475341796875,-0.4062042236328125,0.0004119873046875
1783002691887027700,0.57702783203125,-0.91748046875,-0.414764404296875,0.0036163330078125
1783002691897079800,0.587079833984375,-0.918212890625,-0.42132568359375,0.009002685546875
1783002691907130600,0.597130615234375,-0.9302215576171875,-0.421051025390625,0.0144500732421875
1783002691917183000,0.607182861328125,-0.95233154296875,-0.415679931640625,0.01055908203125
1783002691927234000,0.617234130859375,-0.959442138671875,-0.410125732421875,0.0105133056640625
1783002691937286000,0.627285888671875,-0.9768524169921875,-0.4032745361328125,0.01080322265625
1783002691947337000,0.6373369140625,-1.0069580078125,-0.397247314453125,0.01251220703125
1783002691957388800,0.647388916015625,-1.0244140625,-0.39080810546875,0.0099334716796875
1783002691967440000,0.65743994140625,-1.0118560791015625,-0.380126953125,0.00799560546875
1783002691977492000,0.667491943359375,-1.0162200927734375,-0.36517333984375,0.003814697265625
1783002691987542800,0.677542724609375,-1.0470123291015625,-0.3573455810546875,0.00323486328125
1783002691997595000,0.687594970703125,-1.0645751953125,-0.3555145263671875,0.00244140625
1783002692007646000,0.69764599609375,-1.057525634765625,-0.3513946533203125,0.0015869140625
1783002692017697800,0.70769775390625,-1.06060791015625,-0.34295654296875,-0.0037689208984375
1783002692027750000,0.71775,-1.08233642578125,-0.3408660888671875,-0.0183868408203125
1783002692037800700,0.72780078125,-1.0876922607421875,-0.36273193359375,-0.0240936279296875
1783002692047852800,0.737852783203125,-1.0946807861328125,-0.373016357421875,-0.0049285888671875
1783002692057903900,0.74790380859375,-1.1075439453125,-0.371490478515625,0.0149078369140625
1783002692067955700,0.757955810546875,-1.1331634521484375,-0.37762451171875,0.0240325927734375
1783002692078006800,0.7680068359375,-1.1733856201171875,-0.3752288818359375,0.0301361083984375
1783002692088058600,0.77805859375,-1.215118408203125,-0.3569488525390625,0.046234130859375
1783002692098109700,0.788109619140625,-1.2508544921875,-0.33905029296875,0.0598602294921875
1783002692108162000,0.798162109375,-1.2734375,-0.3197784423828125,0.066162109375
1783002692118212900,0.808212890625,-1.309722900390625,-0.286651611328125,0.0653228759765625
1783002692128265000,0.818264892578125,-1.319427490234375,-0.2533721923828125,0.058563232421875
1783002692138316000,0.82831591796875,-1.2891387939453125,-0.223663330078125,0.03692626953125
1783002692148368000,0.838367919921875,-1.26275634765625,-0.19482421875,0.021636962890625
1783002692158419000,0.8484189453125,-1.24737548828125,-0.1658935546875,0.0093841552734375
1783002692168470800,0.858470703125,-1.2233123779296875,-0.14556884765625,0.0015869140625
1783002692178521900,0.86852197265625,-1.1927337646484375,-0.13262939453125,-0.0071868896484375
1783002692188574000,0.878573974609375,-1.15618896484375,-0.1280059814453125,-0.0182037353515625
1783002692198624800,0.888624755859375,-1.1240386962890625,-0.12030029296875,-0.0171661376953125
1783002692208676400,0.89867626953125,-1.0879974365234375,-0.1186065673828125,-0.0079193115234375
1783002692218727400,0.9087275390625,-1.0367584228515625,-0.1289215087890625,0.0182342529296875
1783002692228779300,0.918779296875,-0.9960479736328125,-0.1480255126953125,0.0384674072265625
1783002692238830300,0.928830322265625,-0.9626922607421875,-0.16094970703125,0.0472869873046875
1783002692248882200,0.938882080078125,-0.921661376953125,-0.1753387451171875,0.05560302734375
1783002692258933200,0.948933349609375,-0.8956451416015625,-0.191741943359375,0.0637359619140625
1783002692268985300,0.9589853515625,-0.9014739990234375,-0.2027435302734375,0.0777130126953125
1783002692279036200,0.9690361328125,-0.9088287353515625,-0.21533203125,0.09783935546875
1783002692289088300,0.979088134765625,-0.9084930419921875,-0.2353057861328125,0.11895751953125
1783002692299139300,0.989139404296875,-0.9094085693359375,-0.2461700439453125,0.147613525390625
1783002692309191200,0.999191162109375,-0.9099884033203125,-0.2571868896484375,0.1631927490234375
1783002692319242200,1.0092421875,-0.9217376708984375,-0.258270263671875,0.1502227783203125
1783002692329294000,1.019294189453125,-0.9392242431640625,-0.242706298828125,0.1346282958984375
1783002692339345200,1.02934521484375,-0.94671630859375,-0.228790283203125,0.1152801513671875
1783002692349397200,1.039397216796875,-0.9531402587890625,-0.2224578857421875,0.0955657958984375
1783002692359448300,1.0494482421875,-0.9715423583984375,-0.2118072509765625,0.093994140625
1783002692369500400,1.05950048828125,-0.998046875,-0.1956787109375,0.098541259765625
1783002692379551200,1.06955126953125,-1.014404296875,-0.1881103515625,0.10443115234375
1783002692389603300,1.079603271484375,-1.0052947998046875,-0.1918487548828125,0.1133880615234375
1783002692399655400,1.089655517578125,-0.9830474853515625,-0.2031402587890625,0.1170654296875
1783002692409706200,1.099706298828125,-0.9621429443359375,-0.2182464599609375,0.104339599609375
1783002692419758300,1.10975830078125,-0.9457244873046875,-0.225494384765625,0.084625244140625
1783002692429809400,1.119809326171875,-0.9464111328125,-0.2201690673828125,0.087615966796875
1783002692439861200,1.129861328125,-0.944061279296875,-0.2258148193359375,0.1048431396484375
1783002692449912300,1.139912353515625,-0.9052886962890625,-0.2407379150390625,0.1189727783203125
1783002692459964200,1.149964111328125,-0.8566741943359375,-0.25506591796875,0.1244964599609375
1783002692470015200,1.16001513671875,-0.852508544921875,-0.270050048828125,0.1158599853515625
1783002692480067300,1.1700673828125,-0.863372802734375,-0.2760162353515625,0.0948333740234375
1783002692490118100,1.1801181640625,-0.8470306396484375,-0.283905029296875,0.089111328125
1783002692500170200,1.190170166015625,-0.826385498046875,-0.298736572265625,0.095733642578125
1783002692510221300,1.20022119140625,-0.8311004638671875,-0.312286376953125,0.1100311279296875
1783002692520273200,1.210273193359375,-0.844757080078125,-0.3283233642578125,0.1094207763671875
1783002692530324200,1.22032421875,-0.840087890625,-0.3388671875,0.103118896484375
1783002692540376000,1.2303759765625,-0.8259735107421875,-0.3464508056640625,0.101165771484375
1783002692550427100,1.24042724609375,-0.8072662353515625,-0.3546142578125,0.10125732421875
1783002692560479200,1.250479248046875,-0.793609619140625,-0.3593292236328125,0.096954345703125
1783002692570530300,1.2605302734375,-0.79974365234375,-0.3650054931640625,0.08612060546875
1783002692580582400,1.27058251953125,-0.8303375244140625,-0.3710174560546875,0.083160400390625
1783002692590633500,1.280633544921875,-0.8468475341796875,-0.3754119873046875,0.0792694091796875
1783002692600685300,1.290685302734375,-0.859954833984375,-0.37713623046875,0.084259033203125
1783002692610736400,1.300736328125,-0.8675537109375,-0.37762451171875,0.085296630859375
1783002692620788200,1.310788330078125,-0.865081787109375,-0.38067626953125,0.087188720703125
1783002692630839300,1.32083935546875,-0.8629913330078125,-0.3797149658203125,0.090789794921875
1783002692640891400,1.330891357421875,-0.8616943359375,-0.37481689453125,0.085601806640625
1783002692650942200,1.340942138671875,-0.8641510009765625,-0.371673583984375,0.0773468017578125
1783002692660994300,1.350994384765625,-0.8538360595703125,-0.3774566650390625,0.07025146484375
1783002692671045400,1.36104541015625,-0.84307861328125,-0.3921661376953125,0.0564422607421875
1783002692681097200,1.37109716796875,-0.8510589599609375,-0.4051666259765625,0.049163818359375
1783002692691148300,1.381148193359375,-0.8763580322265625,-0.41510009765625,0.05645751953125
1783002692701200100,1.3912001953125,-0.8946990966796875,-0.425506591796875,0.06695556640625
1783002692711251200,1.401251220703125,-0.9022369384765625,-0.4322052001953125,0.0626983642578125
1783002692721303300,1.41130322265625,-0.91595458984375,-0.4291839599609375,0.0648651123046875
1783002692731355100,1.421355224609375,-0.9332122802734375,-0.4166717529296875,0.0731658935546875
1783002692741406200,1.43140625,-0.9510040283203125,-0.4016571044921875,0.0784912109375
1783002692751458000,1.4414580078125,-0.973541259765625,-0.3949432373046875,0.0780487060546875
1783002692761509000,1.451509033203125,-0.9956512451171875,-0.38360595703125,0.0517578125
1783002692771561500,1.4615615234375,-1.0180206298828125,-0.3663787841796875,0.00457763671875
1783002692781612300,1.4716123046875,-1.0271453857421875,-0.3521270751953125,-0.0262451171875
1783002692791664400,1.481664306640625,-1.0277862548828125,-0.347137451171875,-0.051300048828125
1783002692801715500,1.491715576171875,-1.029083251953125,-0.350006103515625,-0.060211181640625
1783002692811767300,1.501767333984375,-1.0290374755859375,-0.3484649658203125,-0.0437469482421875
1783002692821818400,1.511818359375,-1.025421142578125,-0.3575439453125,-0.0250244140625
1783002692831870200,1.5218701171875,-1.0231781005859375,-0.3905181884765625,0.000946044921875
1783002692841921300,1.53192138671875,-1.0243072509765625,-0.4108123779296875,0.0340423583984375
1783002692851973400,1.541973388671875,-1.035308837890625,-0.3846893310546875,0.0374603271484375
1783002692862024200,1.552024169921875,-1.064361572265625,-0.351348876953125,0.02587890625
1783002692872076300,1.562076171875,-1.0888824462890625,-0.34637451171875,0.010040283203125
1783002692882127400,1.57212744140625,-1.108917236328125,-0.3476104736328125,-0.00360107421875
1783002692892179200,1.58217919921875,-1.12384033203125,-0.3323974609375,-0.0091552734375
1783002692902230300,1.592230224609375,-1.12908935546875,-0.305633544921875,-0.021331787109375
1783002692912282000,1.6022822265625,-1.12847900390625,-0.265228271484375,-0.047576904296875
1783002692922333200,1.612333251953125,-1.1171875,-0.2282257080078125,-0.076690673828125
1783002692932385300,1.62238525390625,-1.09967041015625,-0.2057037353515625,-0.1004486083984375
1783002692942436000,1.63243603515625,-1.0718841552734375,-0.1929168701171875,-0.1137542724609375
1783002692952488200,1.64248828125,-1.0399322509765625,-0.1744842529296875,-0.112518310546875
1783002692962539300,1.652539306640625,-1.004119873046875,-0.1608428955078125,-0.113067626953125
1783002692972591000,1.662591064453125,-0.9761810302734375,-0.1568756103515625,-0.11181640625
1783002692982642200,1.67264208984375,-0.9515380859375,-0.1671295166015625,-0.108978271484375
1783002692992694300,1.6826943359375,-0.9351654052734375,-0.1840057373046875,-0.08831787109375
1783002693002745300,1.692745361328125,-0.928802490234375,-0.2017822265625,-0.0687713623046875
1783002693012797400,1.70279736328125,-0.924896240234375,-0.2118377685546875,-0.0733489990234375
1783002693022848300,1.71284814453125,-0.920562744140625,-0.2141571044921875,-0.0839691162109375
1783002693032900400,1.722900390625,-0.92431640625,-0.214996337890625,-0.0948638916015625
1783002693042952200,1.7329521484375,-0.9332733154296875,-0.2164764404296875,-0.100616455078125
1783002693053003300,1.743003173828125,-0.939453125,-0.221923828125,-0.1041107177734375
1783002693063055400,1.753055419921875,-0.9420013427734375,-0.2288360595703125,-0.097869873046875
1783002693073106200,1.763106201171875,-0.9355316162109375,-0.23651123046875,-0.093719482421875
1783002693083158300,1.773158203125,-0.93133544921875,-0.2440338134765625,-0.08428955078125
1783002693093209300,1.783209228515625,-0.9244232177734375,-0.2489776611328125,-0.0850982666015625
1783002693103261200,1.79326123046875,-0.910919189453125,-0.252349853515625,-0.084869384765625
1783002693113312300,1.803312255859375,-0.902252197265625,-0.250091552734375,-0.0702667236328125
1783002693123364000,1.813364013671875,-0.8999176025390625,-0.249298095703125,-0.064361572265625
1783002693133415200,1.823415283203125,-0.893035888671875,-0.2519683837890625,-0.0595245361328125
1783002693143467300,1.83346728515625,-0.88421630859375,-0.2608795166015625,-0.039276123046875
1783002693153518000,1.84351806640625,-0.8818206787109375,-0.2746124267578125,-0.0163116455078125
1783002693163570200,1.853570068359375,-0.879608154296875,-0.2851409912109375,0.005035400390625
1783002693173621200,1.863621337890625,-0.8834381103515625,-0.29595947265625,0.019500732421875
1783002693183673300,1.87367333984375,-0.8938751220703125,-0.3060302734375,0.02001953125
1783002693193724400,1.883724365234375,-0.891937255859375,-0.3140106201171875,-0.0019989013671875
1783002693203776300,1.8937763671875,-0.9021759033203125,-0.31219482421875,-0.0359954833984375
1783002693213831700,1.903831787109375,-0.9323272705078125,-0.3047943115234375,-0.05731201171875
1783002693223883800,1.9138837890625,-0.969024658203125,-0.310394287109375,-0.063323974609375
1783002693233934800,1.923934814453125,-0.99444580078125,-0.3266448974609375,-0.0694427490234375
1783002693243987000,1.933987060546875,-1.03179931640625,-0.3279266357421875,-0.073150634765625
1783002693254037800,1.944037841796875,-1.0828094482421875,-0.3279876708984375,-0.082275390625
1783002693264089900,1.95408984375,-1.1300506591796875,-0.327056884765625,-0.0917816162109375
1783002693274141000,1.964140869140625,-1.1521453857421875,-0.33282470703125,-0.0965728759765625
1783002693284192800,1.97419287109375,-1.153045654296875,-0.3494110107421875,-0.094482421875
1783002693294243800,1.984243896484375,-1.138214111328125,-0.368560791015625,-0.084747314453125
1783002693304295700,1.994295654296875,-1.1087646484375,-0.38922119140625,-0.07733154296875
1783002693314346800,2.0043466796875,-1.0688018798828125,-0.402435302734375,-0.07366943359375
1783002693324398800,2.01439892578125,-1.0275421142578125,-0.4062652587890625,-0.06341552734375
1783002693334450700,2.02445068359375,-0.9918365478515625,-0.4090423583984375,-0.0458984375
1783002693344501800,2.034501708984375,-0.958404541015625,-0.407806396484375,-0.035125732421875
1783002693354553600,2.0445537109375,-0.9284515380859375,-0.4116363525390625,-0.0230865478515625
1783002693364604700,2.054604736328125,-0.8847198486328125,-0.427398681640625,-0.0070648193359375
1783002693374656800,2.06465673828125,-0.846893310546875,-0.439239501953125,0.0113983154296875
1783002693384707600,2.07470751953125,-0.8355865478515625,-0.4476776123046875,0.033203125
1783002693394760000,2.084760009765625,-0.82952880859375,-0.462158203125,0.0389251708984375
1783002693404810800,2.094810791015625,-0.8052825927734375,-0.47003173828125,0.032196044921875
1783002693414862800,2.10486279296875,-0.7875823974609375,-0.467498779296875,0.0287322998046875
1783002693424914000,2.114913818359375,-0.7786407470703125,-0.4653472900390625,0.0252838134765625
1783002693434965800,2.1249658203125,-0.7653045654296875,-0.467987060546875,0.0246734619140625
1783002693445016800,2.135016845703125,-0.745208740234375,-0.4708404541015625,0.0233917236328125
1783002693455069000,2.14506884765625,-0.73553466796875,-0.4738616943359375,0.010955810546875
1783002693465119700,2.15511962890625,-0.746246337890625,-0.4720458984375,-0.0014190673828125
1783002693475171800,2.165171875,-0.737823486328125,-0.4808807373046875,-0.0117340087890625
1783002693485223000,2.175222900390625,-0.7336883544921875,-0.4891815185546875,-0.005859375
1783002693495274800,2.185274658203125,-0.7382354736328125,-0.498687744140625,0.0150604248046875
1783002693505325800,2.195325927734375,-0.7424774169921875,-0.507843017578125,0.0385284423828125
1783002693515377700,2.205377685546875,-0.7532501220703125,-0.5101165771484375,0.064849853515625
1783002693525428700,2.2154287109375,-0.7637176513671875,-0.5128326416015625,0.084136962890625
1783002693535480800,2.225480712890625,-0.775543212890625,-0.5057830810546875,0.073577880859375
1783002693545531600,2.23553173828125,-0.7934112548828125,-0.4796600341796875,0.0449066162109375
1783002693555583700,2.245583740234375,-0.81378173828125,-0.4542236328125,0.0189971923828125
1783002693565634800,2.255634765625,-0.8266448974609375,-0.4490966796875,-0.00299072265625
1783002693575686700,2.265686767578125,-0.8394622802734375,-0.46917724609375,-0.015411376953125
1783002693585739000,2.275739013671875,-0.862396240234375,-0.525543212890625,0.001190185546875
1783002693595789600,2.28578955078125,-0.8871917724609375,-0.5655059814453125,0.039215087890625
1783002693605842000,2.295842041015625,-0.9291229248046875,-0.57110595703125,0.07391357421875
1783002693615893000,2.30589306640625,-0.9550933837890625,-0.596893310546875,0.09027099609375
1783002693625944800,2.31594482421875,-0.966705322265625,-0.6136627197265625,0.0965576171875
1783002693635996000,2.325995849609375,-0.9956512451171875,-0.5932769775390625,0.10223388671875
1783002693646047700,2.3360478515625,-1.0198516845703125,-0.56573486328125,0.0963134765625
1783002693656098800,2.346098876953125,-1.0237274169921875,-0.5381927490234375,0.0765533447265625
1783002693666151000,2.35615087890625,-1.0354461669921875,-0.4979400634765625,0.046295166015625
1783002693676201700,2.36620166015625,-1.03509521484375,-0.45513916015625,0.0123443603515625
1783002693686253800,2.37625390625,-1.0430450439453125,-0.402008056640625,-0.0126800537109375
1783002693696305000,2.386304931640625,-1.0675811767578125,-0.350921630859375,-0.0328216552734375
1783002693706356700,2.396356689453125,-1.074920654296875,-0.3166656494140625,-0.05084228515625
1783002693716407800,2.40640771484375,-1.0523681640625,-0.3034515380859375,-0.0636444091796875
1783002693726459600,2.416459716796875,-1.0282440185546875,-0.2994232177734375,-0.058502197265625
1783002693736510700,2.4265107421875,-0.9893951416015625,-0.3121795654296875,-0.0423431396484375
1783002693746562800,2.436562744140625,-0.9456634521484375,-0.3363189697265625,-0.0065765380859375
1783002693756613600,2.446613525390625,-0.906585693359375,-0.35455322265625,0.025543212890625
1783002693766665700,2.456665771484375,-0.8813323974609375,-0.365386962890625,0.0426025390625
1783002693776716800,2.466716796875,-0.858367919921875,-0.3697967529296875,0.0532379150390625
1783002693786768600,2.4767685546875,-0.849700927734375,-0.371612548828125,0.0635223388671875
1783002693796819700,2.48681982421875,-0.8578033447265625,-0.370574951171875,0.07257080078125
1783002693806871800,2.496871826171875,-0.852325439453125,-0.37689208984375,0.0799560546875
1783002693816922600,2.506922607421875,-0.8509979248046875,-0.3849945068359375,0.08416748046875
1783002693826975000,2.51697509765625,-0.8509368896484375,-0.3883056640625,0.0888214111328125
1783002693837025800,2.52702587890625,-0.84918212890625,-0.3873291015625,0.082244873046875
1783002693847078000,2.537077880859375,-0.8444671630859375,-0.3819580078125,0.067962646484375
1783002693857129700,2.547129638671875,-0.84918212890625,-0.3711090087890625,0.0625457763671875
1783002693867180800,2.557180908203125,-0.858489990234375,-0.3626708984375,0.0528564453125
1783002693877233000,2.56723291015625,-0.862335205078125,-0.358245849609375,0.039886474609375
1783002693887283700,2.57728369140625,-0.8690032958984375,-0.352203369140625,0.03240966796875
1783002693897335800,2.587335693359375,-0.879486083984375,-0.3419952392578125,0.026580810546875
1783002693907387000,2.597386962890625,-0.89141845703125,-0.3339996337890625,0.0211181640625
1783002693917438700,2.607438720703125,-0.8905029296875,-0.3328857421875,0.0086212158203125
1783002693927489800,2.61748974609375,-0.8722991943359375,-0.33465576171875,0.00323486328125
1783002693937541600,2.627541748046875,-0.85748291015625,-0.3387908935546875,0.0057830810546875
1783002693947592700,2.6375927734375,-0.86181640625,-0.3430938720703125,0.0091094970703125
1783002693957644800,2.647644775390625,-0.8639068603515625,-0.3509063720703125,0.0079803466796875
1783002693967695600,2.657695556640625,-0.851776123046875,-0.3608856201171875,0.006317138671875
1783002693977747700,2.667747802734375,-0.8475494384765625,-0.3755950927734375,0.01593017578125
1783002693987798800,2.677798828125,-0.8413543701171875,-0.39849853515625,0.0292816162109375
1783002693997851000,2.687850830078125,-0.8388671875,-0.4146575927734375,0.0534210205078125
1783002694007901700,2.697901611328125,-0.8386993408203125,-0.4254608154296875,0.063140869140625
1783002694017953800,2.707953857421875,-0.8359832763671875,-0.4321746826171875,0.0550689697265625
1783002694028004900,2.7180048828125,-0.84326171875,-0.429046630859375,0.04400634765625
1783002694038057000,2.728056884765625,-0.8499755859375,-0.4309234619140625,0.0385894775390625
1783002694048107800,2.738107666015625,-0.8522796630859375,-0.4353179931640625,0.0362701416015625
1783002694058159900,2.748159912109375,-0.8607177734375,-0.4331817626953125,0.027740478515625
1783002694068211700,2.758211669921875,-0.863525390625,-0.4300384521484375,0.020416259765625
1783002694078262800,2.7682626953125,-0.8777923583984375,-0.42816162109375,0.020294189453125
1783002694088315000,2.77831494140625,-0.89605712890625,-0.4268646240234375,0.02349853515625
1783002694098365700,2.78836572265625,-0.8916015625,-0.4316864013671875,0.019317626953125
1783002694108417800,2.798417724609375,-0.8827056884765625,-0.4303741455078125,0.016082763671875
1783002694118468900,2.80846875,-0.8803558349609375,-0.42608642578125,0.021270751953125
1783002694128520700,2.818520751953125,-0.8831329345703125,-0.43646240234375,0.02825927734375
1783002694138571800,2.82857177734375,-0.8762969970703125,-0.442596435546875,0.029693603515625
1783002694148623600,2.83862353515625,-0.8656768798828125,-0.442291259765625,0.025238037109375
1783002694158674700,2.8486748046875,-0.864166259765625,-0.4370880126953125,0.0200653076171875
1783002694168726800,2.858726806640625,-0.870025634765625,-0.430419921875,0.0147857666015625
1783002694178777600,2.868777587890625,-0.8642120361328125,-0.4364166259765625,0.0076446533203125
1783002694188830000,2.878829833984375,-0.8755035400390625,-0.4358978271484375,0.009979248046875
1783002694198880800,2.888880859375,-0.8858184814453125,-0.431427001953125,-0.000457763671875
1783002694208928000,2.898927978515625,-0.8809356689453125,-0.4388275146484375,-0.004058837890625
1783002694218979000,2.90897900390625,-0.8822174072265625,-0.4492645263671875,0.011993408203125
1783002694229031200,2.91903125,-0.906219482421875,-0.44964599609375,0.0213775634765625
1783002694239082000,2.92908203125,-0.914215087890625,-0.45263671875,0.0239715576171875
1783002694249134300,2.93913427734375,-0.90655517578125,-0.45892333984375,0.0192718505859375
1783002694259185400,2.949185302734375,-0.916168212890625,-0.4542999267578125,0.0170440673828125
1783002694269237200,2.9592373046875,-0.9280242919921875,-0.456207275390625,0.01226806640625
1783002694279289300,2.969289306640625,-0.9433441162109375,-0.459686279296875,-0.0005950927734375
1783002694289340200,2.979340087890625,-0.9585113525390625,-0.45556640625,-0.0197601318359375
1783002694299392300,2.989392333984375,-0.9805755615234375,-0.4432525634765625,-0.02947998046875
1783002694309443300,2.999443359375,-0.98931884765625,-0.447113037109375,-0.032989501953125
1783002694319495200,3.0094951171875,-0.9962158203125,-0.4521942138671875,-0.0227203369140625
1783002694329546200,3.019546142578125,-1.000244140625,-0.445404052734375,-0.0092926025390625
1783002694339598000,3.02959814453125,-0.996337890625,-0.43988037109375,-0.008697509765625
1783002694349649200,3.039649169921875,-0.9990081787109375,-0.435272216796875,-0.0133514404296875
1783002694359701200,3.049701171875,-0.9977569580078125,-0.4652862548828125,-0.0074920654296875
1783002694369752000,3.059751953125,-0.9840240478515625,-0.5467071533203125,0.032745361328125
1783002694379804200,3.06980419921875,-1.004425048828125,-0.53558349609375,0.0683746337890625
1783002694389855200,3.079855224609375,-1.056854248046875,-0.45855712890625,0.0485076904296875
1783002694399907000,3.089906982421875,-1.070526123046875,-0.44195556640625,0.0067901611328125
1783002694409958100,3.099958251953125,-1.0696258544921875,-0.449554443359375,-0.0098724365234375
1783002694420010000,3.110010009765625,-1.0837249755859375,-0.4237823486328125,0.0048370361328125
1783002694430061000,3.12006103515625,-1.0840911865234375,-0.399139404296875,0.0108795166015625
1783002694440113400,3.130113525390625,-1.0700836181640625,-0.3761138916015625,-0.0084228515625
1783002694450164000,3.1401640625,-1.0636138916015625,-0.3279876708984375,-0.0306549072265625
1783002694460216300,3.15021630859375,-1.054473876953125,-0.28814697265625,-0.04913330078125
1783002694470267400,3.160267333984375,-1.034027099609375,-0.274444580078125,-0.058258056640625
1783002694480319200,3.1703193359375,-1.0247039794921875,-0.270965576171875,-0.0533905029296875
1783002694490371300,3.180371337890625,-1.0293731689453125,-0.255615234375,-0.044647216796875
1783002694500422100,3.190422119140625,-1.0301513671875,-0.2408447265625,-0.045318603515625
1783002694510474200,3.20047412109375,-1.0235443115234375,-0.23529052734375,-0.055816650390625
1783002694520525300,3.210525390625,-1.00738525390625,-0.2367095947265625,-0.065216064453125
1783002694530577200,3.2205771484375,-0.980072021484375,-0.2482757568359375,-0.065399169921875
1783002694540628200,3.230628173828125,-0.964324951171875,-0.262237548828125,-0.05291748046875
1783002694550680000,3.24068017578125,-0.9487457275390625,-0.2803802490234375,-0.039520263671875
1783002694560731100,3.250731201171875,-0.9315643310546875,-0.2978057861328125,-0.0295867919921875
1783002694570783200,3.260783203125,-0.9190673828125,-0.3040313720703125,-0.0296173095703125
1783002694580834000,3.270833984375,-0.9205322265625,-0.300201416015625,-0.0305633544921875
1783002694590886100,3.28088623046875,-0.9224395751953125,-0.2974090576171875,-0.0326690673828125
1783002694600937200,3.290937255859375,-0.923797607421875,-0.291534423828125,-0.0487060546875
1783002694610989000,3.300989013671875,-0.933502197265625,-0.2797088623046875,-0.0686492919921875
1783002694621040000,3.3110400390625,-0.94561767578125,-0.2707061767578125,-0.087799072265625
1783002694631092200,3.32109228515625,-0.9439239501953125,-0.272613525390625,-0.0981597900390625
1783002694641143000,3.33114306640625,-0.94317626953125,-0.2712554931640625,-0.1004638671875
1783002694651195400,3.3411953125,-0.951019287109375,-0.2603912353515625,-0.0964202880859375
1783002694661246200,3.35124609375,-0.94921875,-0.2474822998046875,-0.096435546875
1783002694671298300,3.36129833984375,-0.934326171875,-0.2491302490234375,-0.094390869140625
1783002694681350100,3.37135009765625,-0.9031524658203125,-0.2625579833984375,-0.08526611328125
1783002694691401200,3.381401123046875,-0.8814849853515625,-0.27813720703125,-0.0630340576171875
1783002694701453300,3.391453369140625,-0.874755859375,-0.29205322265625,-0.04583740234375
1783002694711504100,3.401504150390625,-0.8748779296875,-0.304473876953125,-0.0368804931640625
1783002694721556200,3.41155615234375,-0.8709716796875,-0.316314697265625,-0.0406036376953125
1783002694731607300,3.421607177734375,-0.86749267578125,-0.3279571533203125,-0.042510986328125
1783002694741659100,3.4316591796875,-0.8698577880859375,-0.3399505615234375,-0.043975830078125
1783002694751710200,3.441710205078125,-0.8697509765625,-0.3504486083984375,-0.04736328125
1783002694761762000,3.451761962890625,-0.8708038330078125,-0.3592681884765625,-0.04827880859375
1783002694771813000,3.461813232421875,-0.87164306640625,-0.3653411865234375,-0.049713134765625
1783002694781865200,3.471865234375,-0.8824462890625,-0.362335205078125,-0.054931640625
1783002694791916000,3.481916015625,-0.8952178955078125,-0.3598785400390625,-0.0643157958984375
1783002694801968000,3.491968017578125,-0.891448974609375,-0.3668365478515625,-0.071746826171875
1783002694812019200,3.502019287109375,-0.8881378173828125,-0.3726348876953125,-0.0716705322265625
1783002694822071300,3.5120712890625,-0.9001312255859375,-0.367706298828125,-0.0678863525390625
1783002694832122000,3.5221220703125,-0.91436767578125,-0.36297607421875,-0.0677337646484375
1783002694842174200,3.53217431640625,-0.911712646484375,-0.3604736328125,-0.0703125
1783002694852225300,3.542225341796875,-0.902740478515625,-0.3568878173828125,-0.067413330078125
1783002694862277400,3.55227734375,-0.894439697265625,-0.356048583984375,-0.0591278076171875
1783002694872328200,3.562328125,-0.888336181640625,-0.3601226806640625,-0.0524444580078125
1783002694882380300,3.57238037109375,-0.882354736328125,-0.3624420166015625,-0.0512542724609375
1783002694892432100,3.58243212890625,-0.8799285888671875,-0.366546630859375,-0.045806884765625
1783002694902483200,3.592483154296875,-0.8704376220703125,-0.3764190673828125,-0.0387420654296875
1783002694912535300,3.602535400390625,-0.8626251220703125,-0.3876800537109375,-0.034942626953125
1783002694922586000,3.612586181640625,-0.8586883544921875,-0.39337158203125,-0.032745361328125
1783002694932638200,3.62263818359375,-0.8639678955078125,-0.396209716796875,-0.0363311767578125
1783002694942689300,3.632689208984375,-0.875,-0.401641845703125,-0.0435638427734375
1783002694952741000,3.6427412109375,-0.873809814453125,-0.4095306396484375,-0.051055908203125
1783002694962792200,3.652792236328125,-0.878662109375,-0.4130859375,-0.047027587890625
1783002694972844000,3.662843994140625,-0.897613525390625,-0.4183502197265625,-0.0440826416015625
1783002694982895000,3.67289501953125,-0.911285400390625,-0.4247283935546875,-0.0445709228515625
1783002694992947200,3.682947265625,-0.9145965576171875,-0.4302215576171875,-0.050323486328125
1783002695002998000,3.692998046875,-0.914794921875,-0.4358978271484375,-0.0556182861328125
1783002695013050000,3.703050048828125,-0.922515869140625,-0.438262939453125,-0.0550384521484375
1783002695023101200,3.71310107421875,-0.925567626953125,-0.446533203125,-0.0544281005859375
1783002695033153300,3.7231533203125,-0.9275970458984375,-0.448822021484375,-0.0538177490234375
1783002695043204400,3.733204345703125,-0.9290313720703125,-0.4471893310546875,-0.052215576171875
1783002695053256200,3.743256103515625,-0.9384002685546875,-0.448028564453125,-0.0556793212890625
1783002695063308300,3.753308349609375,-0.94586181640625,-0.4454498291015625,-0.056671142578125
1783002695073359400,3.763359375,-0.947113037109375,-0.4494781494140625,-0.0522918701171875
1783002695083411200,3.7734111328125,-0.949798583984375,-0.454833984375,-0.047271728515625
1783002695093462300,3.783462158203125,-0.955810546875,-0.45220947265625,-0.0402069091796875
1783002695103514000,3.79351416015625,-0.968292236328125,-0.443511962890625,-0.0320892333984375
1783002695113565200,3.803565185546875,-0.985565185546875,-0.42706298828125,-0.034027099609375
1783002695123617300,3.8136171875,-0.9942626953125,-0.4133148193359375,-0.044830322265625
1783002695133668000,3.823668212890625,-0.988677978515625,-0.4067840576171875,-0.054718017578125
1783002695143720200,3.83372021484375,-0.985137939453125,-0.4040985107421875,-0.051422119140625
1783002695153771300,3.843771240234375,-0.9824066162109375,-0.4224700927734375,-0.0411224365234375
1783002695163823000,3.853822998046875,-0.9758453369140625,-0.4744110107421875,-0.0178070068359375
1783002695173874200,3.863874267578125,-0.968536376953125,-0.4953765869140625,0.01806640625
1783002695183926000,3.873926025390625,-0.9849853515625,-0.470550537109375,0.0210113525390625
1783002695193977000,3.88397705078125,-1.0142974853515625,-0.4602813720703125,-0.0007476806640625
1783002695204029200,3.894029296875,-1.020294189453125,-0.4581298828125,-0.0077972412109375
1783002695214081500,3.90408154296875,-1.028656005859375,-0.4410552978515625,-0.0062103271484375
1783002695224133400,3.91413330078125,-1.0648651123046875,-0.4136505126953125,-0.012481689453125
1783002695234184400,3.924184326171875,-1.09423828125,-0.38214111328125,-0.0383453369140625
1783002695244236500,3.934236572265625,-1.101959228515625,-0.3508148193359375,-0.06427001953125
1783002695254288600,3.94428857421875,-1.106842041015625,-0.3236236572265625,-0.0691375732421875
1783002695264339700,3.954339599609375,-1.1053009033203125,-0.3083648681640625,-0.059234619140625
1783002695274391600,3.9643916015625,-1.1036224365234375,-0.2920379638671875,-0.046722412109375
1783002695284442600,3.974442626953125,-1.1100311279296875,-0.261688232421875,-0.0406951904296875
1783002695294494700,3.98449462890625,-1.112091064453125,-0.2347412109375,-0.04193115234375
1783002695304545500,3.994545654296875,-1.0955047607421875,-0.2202911376953125,-0.041656494140625
1783002695314597600,4.00459765625,-1.066314697265625,-0.2134246826171875,-0.0311737060546875
1783002695324648700,4.014648681640625,-1.0292205810546875,-0.215576171875,-0.0185546875
1783002695334700500,4.024700439453125,-0.986328125,-0.2249755859375,-0.0040130615234375
1783002695344751600,4.034751708984375,-0.951629638671875,-0.242767333984375,0.0138397216796875
1783002695354803500,4.044803466796875,-0.928131103515625,-0.259765625,0.0319976806640625
1783002695364854500,4.0548544921875,-0.913909912109375,-0.2655029296875,0.0482940673828125
1783002695374906600,4.06490673828125,-0.91363525390625,-0.2643280029296875,0.0545806884765625
1783002695384957400,4.07495751953125,-0.912811279296875,-0.264404296875,0.0537567138671875
1783002695395009500,4.085009521484375,-0.908782958984375,-0.2733612060546875,0.06103515625
1783002695405060600,4.095060546875,-0.9113006591796875,-0.2840423583984375,0.07379150390625
1783002695415112400,4.105112548828125,-0.9170074462890625,-0.2887420654296875,0.0821380615234375
1783002695425163500,4.11516357421875,-0.9219207763671875,-0.281524658203125,0.07958984375
1783002695435215400,4.12521533203125,-0.932830810546875,-0.2632293701171875,0.0696563720703125
1783002695445267700,4.135267822265625,-0.9425811767578125,-0.2416839599609375,0.054779052734375
1783002695455318800,4.14531884765625,-0.95672607421875,-0.221160888671875,0.0446624755859375
1783002695465370600,4.15537060546875,-0.9715728759765625,-0.2069549560546875,0.0347442626953125
1783002695475421700,4.165421630859375,-0.97796630859375,-0.1978759765625,0.024261474609375
1783002695485473500,4.1754736328125,-0.977874755859375,-0.1966552734375,0.0143890380859375
1783002695495524600,4.185524658203125,-0.9759979248046875,-0.20294189453125,0.00701904296875
1783002695505576700,4.19557666015625,-0.9696044921875,-0.2108306884765625,0.00347900390625
1783002695515627500,4.20562744140625,-0.958099365234375,-0.2232513427734375,0.009857177734375
1783002695525679600,4.2156796875,-0.9478302001953125,-0.2381134033203125,0.0174560546875
1783002695535730700,4.225730712890625,-0.9310150146484375,-0.2516937255859375,0.0208892822265625
1783002695545782500,4.235782470703125,-0.907501220703125,-0.26617431640625,0.0240631103515625
1783002695555833600,4.24583349609375,-0.882110595703125,-0.2816314697265625,0.0263671875
1783002695565885400,4.255885498046875,-0.868682861328125,-0.2908935546875,0.0279541015625
1783002695575936500,4.2659365234375,-0.86480712890625,-0.2976837158203125,0.02850341796875
1783002695585988600,4.275988525390625,-0.8603973388671875,-0.3051300048828125,0.0237884521484375
1783002695596039400,4.286039306640625,-0.8651275634765625,-0.310791015625,0.020965576171875
1783002695606091500,4.296091552734375,-0.864044189453125,-0.3216400146484375,0.015350341796875
1783002695616142600,4.306142578125,-0.8578948974609375,-0.333282470703125,0.0144500732421875
1783002695626194400,4.3161943359375,-0.8601837158203125,-0.3389739990234375,0.013092041015625
1783002695636246800,4.326246826171875,-0.8674774169921875,-0.3370819091796875,0.0098419189453125
1783002695646297300,4.33629736328125,-0.8758697509765625,-0.3296051025390625,0.005828857421875
1783002695656349700,4.346349609375,-0.8866424560546875,-0.321441650390625,0.001373291015625
1783002695666400800,4.35640087890625,-0.887451171875,-0.3183441162109375,0.0014495849609375
1783002695676452600,4.36645263671875,-0.892974853515625,-0.3224029541015625,0.005523681640625
1783002695686503700,4.376503662109375,-0.9001312255859375,-0.3291168212890625,0.011077880859375
1783002695696555500,4.386555419921875,-0.8978424072265625,-0.33526611328125,0.0108489990234375
1783002695706606600,4.396606689453125,-0.9016571044921875,-0.3370513916015625,0.01470947265625
1783002695716658700,4.40665869140625,-0.9127197265625,-0.341888427734375,0.0191192626953125
1783002695726709500,4.41670947265625,-0.925628662109375,-0.347900390625,0.0181121826171875
1783002695736761600,4.42676171875,-0.9473419189453125,-0.3541107177734375,0.0162353515625
1783002695746812700,4.436812744140625,-0.974395751953125,-0.356842041015625,0.020843505859375
1783002695756864500,4.446864501953125,-0.9976959228515625,-0.3577117919921875,0.0218658447265625
1783002695766915600,4.45691552734375,-0.995452880859375,-0.3594512939453125,0.013885498046875
1783002695776967400,4.466967529296875,-0.9882354736328125,-0.35821533203125,0.01007080078125
1783002695787018500,4.4770185546875,-0.9864654541015625,-0.361175537109375,0.0117340087890625
1783002695797070600,4.487070556640625,-0.98284912109375,-0.36724853515625,0.018341064453125
1783002695807122400,4.497122314453125,-0.975738525390625,-0.374603271484375,0.0197601318359375
1783002695817173500,4.507173583984375,-0.9665069580078125,-0.38067626953125,0.01446533203125
1783002695827225600,4.5172255859375,-0.954315185546875,-0.3889312744140625,0.0045318603515625
1783002695837276400,4.5272763671875,-0.9402923583984375,-0.40106201171875,0.0009002685546875
1783002695847328800,4.537328857421875,-0.9308929443359375,-0.4105682373046875,0.0041656494140625
1783002695857379600,4.547379638671875,-0.9405517578125,-0.412628173828125,0.008941650390625
1783002695867431700,4.557431640625,-0.9581451416015625,-0.4070892333984375,0.018096923828125
1783002695877482800,4.567482666015625,-0.976165771484375,-0.4039764404296875,0.0316314697265625
1783002695887534600,4.57753466796875,-0.9906005859375,-0.416534423828125,0.0506744384765625
1783002695897585700,4.587585693359375,-0.9809417724609375,-0.4339752197265625,0.04791259765625
1783002695907637500,4.597637451171875,-0.9526214599609375,-0.427398681640625,0.0272674560546875
1783002695917688600,4.6076884765625,-0.92950439453125,-0.3929901123046875,-0.0080108642578125
1783002695927740700,4.61774072265625,-0.931396484375,-0.3780670166015625,-0.0302276611328125
1783002695937791500,4.62779150390625,-0.964630126953125,-0.377899169921875,-0.0200958251953125
1783002695947843600,4.637843505859375,-0.987152099609375,-0.387115478515625,0.00225830078125
1783002695957894700,4.647894775390625,-0.958770751953125,-0.4034423828125,0.0279693603515625
1783002695967946500,4.657946533203125,-0.9246673583984375,-0.439483642578125,0.0417938232421875
1783002695977998600,4.66799853515625,-0.9139404296875,-0.49737548828125,0.063201904296875
1783002695988049400,4.67804931640625,-0.9687042236328125,-0.480804443359375,0.0998687744140625
1783002695998101500,4.6881015625,-1.045196533203125,-0.415985107421875,0.109222412109375
1783002696008152600,4.698152587890625,-1.058990478515625,-0.3911285400390625,0.0982513427734375
1783002696018204700,4.70820458984375,-1.0143585205078125,-0.4117889404296875,0.0803985595703125
1783002696028255500,4.71825537109375,-1.0163421630859375,-0.4088134765625,0.06719970703125
1783002696038307600,4.7283076171875,-1.069976806640625,-0.36151123046875,0.04248046875
1783002696048358700,4.738358642578125,-1.090728759765625,-0.327117919921875,0.000335693359375
1783002696058410800,4.74841064453125,-1.0934600830078125,-0.3013458251953125,-0.0222320556640625
1783002696068461600,4.758461669921875,-1.090576171875,-0.272247314453125,-0.0126800537109375
1783002696078513700,4.768513671875,-1.0643310546875,-0.252593994140625,-0.009124755859375
1783002696088564700,4.778564697265625,-1.0154876708984375,-0.2505645751953125,-0.0383148193359375
1783002696098616600,4.788616455078125,-0.98687744140625,-0.23681640625,-0.0641326904296875
1783002696108667600,4.798667724609375,-1.0071258544921875,-0.2084808349609375,-0.07659912109375
1783002696118719500,4.808719482421875,-1.0297393798828125,-0.1947174072265625,-0.0785369873046875
1783002696128770600,4.8187705078125,-1.0144500732421875,-0.190948486328125,-0.078704833984375
1783002696138822700,4.82882275390625,-0.9933319091796875,-0.1876983642578125,-0.0706634521484375
1783002696148874500,4.83887451171875,-1.017181396484375,-0.1834564208984375,-0.0439605712890625
1783002696158925600,4.848925537109375,-1.061676025390625,-0.1876373291015625,-0.00555419921875
1783002696168977400,4.858977294921875,-1.058135986328125,-0.2064666748046875,0.0179595947265625
1783002696179028500,4.869028564453125,-0.9987945556640625,-0.235382080078125,-0.001556396484375
1783002696189080600,4.87908056640625,-0.9666748046875,-0.2435302734375,-0.03216552734375
1783002696199131400,4.88913134765625,-0.9642181396484375,-0.234161376953125,-0.0509796142578125
1783002696209183500,4.89918359375,-0.954437255859375,-0.240814208984375,-0.0639495849609375
1783002696219234600,4.909234619140625,-0.9517364501953125,-0.249267578125,-0.0671844482421875
1783002696229286400,4.919286376953125,-0.937835693359375,-0.2482757568359375,-0.0631561279296875
1783002696239337500,4.92933740234375,-0.9272918701171875,-0.2408294677734375,-0.0535736083984375
1783002696249389300,4.939389404296875,-0.9241943359375,-0.233551025390625,-0.0377655029296875
1783002696259440400,4.9494404296875,-0.9086151123046875,-0.236541748046875,-0.0264892578125
1783002696269492500,4.959492431640625,-0.9127655029296875,-0.238739013671875,-0.037078857421875
1783002696279543300,4.969543212890625,-0.9156951904296875,-0.2444610595703125,-0.0687255859375
1783002696289595400,4.979595458984375,-0.9436187744140625,-0.2341461181640625,-0.057952880859375
1783002696299646500,4.989646484375,-0.9554595947265625,-0.23162841796875,-0.03515625
1783002696309698300,4.9996982421875,-0.9310760498046875,-0.241363525390625,-0.0253753662109375
1783002696319749400,5.009749267578125,-0.9289093017578125,-0.2450408935546875,-0.02191162109375
1783002696329801200,5.01980126953125,-0.928741455078125,-0.252288818359375,-0.0291290283203125
1783002696339853300,5.029853271484375,-0.9058380126953125,-0.2612152099609375,-0.042816162109375
1783002696349904400,5.039904296875,-0.8788604736328125,-0.2584686279296875,-0.058074951171875
1783002696359956500,5.04995654296875,-0.88287353515625,-0.247314453125,-0.059234619140625
1783002696370007600,5.060007568359375,-0.91259765625,-0.2438812255859375,-0.046875
1783002696380059400,5.070059326171875,-0.93341064453125,-0.2548675537109375,-0.020660400390625
1783002696390110500,5.0801103515625,-0.9191436767578125,-0.2704925537109375,0.005859375
1783002696400162600,5.09016259765625,-0.9099578857421875,-0.2773284912109375,0.0233001708984375
1783002696410213400,5.10021337890625,-0.909332275390625,-0.2837371826171875,0.0287322998046875
1783002696420265500,5.110265380859375,-0.9223785400390625,-0.2861328125,0.01397705078125
1783002696430316500,5.120316650390625,-0.94708251953125,-0.282073974609375,-0.00799560546875
1783002696440368400,5.130368408203125,-0.9547882080078125,-0.281494140625,-0.037750244140625
1783002696450419500,5.14041943359375,-0.946868896484375,-0.2838592529296875,-0.0666046142578125
1783002696460471300,5.15047119140625,-0.9390411376953125,-0.2941436767578125,-0.07568359375
1783002696470522400,5.1605224609375,-0.9472808837890625,-0.299163818359375,-0.073760986328125
1783002696480574500,5.170574462890625,-0.958038330078125,-0.297607421875,-0.0648193359375
1783002696490625300,5.180625244140625,-0.9505157470703125,-0.3096160888671875,-0.0514984130859375
1783002696500677400,5.190677490234375,-0.9400177001953125,-0.3246002197265625,-0.043182373046875
1783002696510729200,5.200729248046875,-0.9384918212890625,-0.3206024169921875,-0.037261962890625
1783002696520780300,5.2107802734375,-0.9429931640625,-0.301300048828125,-0.032470703125
1783002696530832400,5.220832275390625,-0.9496612548828125,-0.2902679443359375,-0.0328521728515625
1783002696540883200,5.23088330078125,-0.94921875,-0.293609619140625,-0.028289794921875
1783002696550935600,5.240935546875,-0.9373626708984375,-0.3057098388671875,-0.025299072265625
1783002696560986600,5.250986572265625,-0.9210662841796875,-0.3183746337890625,-0.0265960693359375
1783002696571038500,5.26103857421875,-0.91925048828125,-0.325347900390625,-0.0291290283203125
1783002696581089500,5.271089599609375,-0.90936279296875,-0.3366851806640625,-0.0321807861328125
1783002696591141400,5.281141357421875,-0.918426513671875,-0.34326171875,-0.021820068359375
1783002696601192400,5.2911923828125,-0.9301605224609375,-0.356414794921875,-0.009857177734375
1783002696611244500,5.30124462890625,-0.920989990234375,-0.369049072265625,0.0001220703125
1783002696621295400,5.31129541015625,-0.92083740234375,-0.3710174560546875,0.0076141357421875
1783002696631347500,5.321347412109375,-0.934539794921875,-0.3701171875,0.01055908203125
1783002696641398500,5.3313984375,-0.9324188232421875,-0.37359619140625,0.003143310546875
1783002696651450400,5.341450439453125,-0.924346923828125,-0.375213623046875,-0.009246826171875
1783002696661501400,5.35150146484375,-0.94329833984375,-0.3685455322265625,-0.0274658203125
1783002696671553300,5.36155322265625,-0.97088623046875,-0.3706817626953125,-0.0351409912109375
1783002696681604400,5.371604248046875,-0.9544219970703125,-0.3936920166015625,-0.0357208251953125
1783002696691656400,5.381656494140625,-0.919921875,-0.406707763671875,-0.038360595703125
1783002696701708300,5.391708251953125,-0.91632080078125,-0.3975067138671875,-0.0319976806640625
1783002696711759400,5.40175927734375,-0.936553955078125,-0.39019775390625,-0.0164642333984375
1783002696721811200,5.411811279296875,-0.9443511962890625,-0.388671875,-0.001861572265625
1783002696731862300,5.4218623046875,-0.9371337890625,-0.378753662109375,-0.0007476806640625
1783002696741914600,5.43191455078125,-0.93914794921875,-0.3577423095703125,-0.0091094970703125
1783002696751965400,5.44196533203125,-0.9649505615234375,-0.3399200439453125,-0.01519775390625
1783002696762017500,5.452017578125,-0.977874755859375,-0.3399658203125,-0.0214080810546875
1783002696772068600,5.462068603515625,-0.984161376953125,-0.33868408203125,-0.0184783935546875
1783002696782120400,5.472120361328125,-1.000335693359375,-0.33636474609375,-0.007232666015625
1783002696792171500,5.482171630859375,-1.0061798095703125,-0.3402557373046875,0.00482177734375
1783002696802223400,5.492223388671875,-1.0073089599609375,-0.35162353515625,0.0247039794921875
1783002696812274400,5.5022744140625,-1.0131378173828125,-0.3760833740234375,0.0507659912109375
1783002696822326500,5.512326416015625,-1.011260986328125,-0.3859710693359375,0.057830810546875
1783002696832377300,5.52237744140625,-1.0187225341796875,-0.3711700439453125,0.052581787109375
1783002696842429400,5.532429443359375,-1.042266845703125,-0.3609161376953125,0.049102783203125
1783002696852481300,5.542481201171875,-1.0793609619140625,-0.35455322265625,0.0469512939453125
1783002696862532400,5.552532470703125,-1.118133544921875,-0.335906982421875,0.0398406982421875
1783002696872583400,5.56258349609375,-1.13177490234375,-0.318756103515625,0.033050537109375
1783002696882635300,5.57263525390625,-1.1298065185546875,-0.311126708984375,0.0321807861328125
1783002696892687400,5.582687255859375,-1.1021270751953125,-0.3024749755859375,0.0291748046875
1783002696902738400,5.592738525390625,-1.061004638671875,-0.2782440185546875,0.0263214111328125
1783002696912790300,5.602790283203125,-1.046234130859375,-0.26080322265625,0.019989013671875
1783002696922841300,5.61284130859375,-1.053741455078125,-0.259368896484375,0.01470947265625
1783002696932893400,5.6228935546875,-1.0578460693359375,-0.25567626953125,0.0283355712890625
1783002696942944300,5.6329443359375,-1.042999267578125,-0.245941162109375,0.0546722412109375
1783002696952996600,5.64299658203125,-1.0289764404296875,-0.2444610595703125,0.0816650390625
1783002696963047400,5.65304736328125,-1.0282440185546875,-0.253448486328125,0.104583740234375
1783002696973099500,5.663099609375,-1.01043701171875,-0.2667999267578125,0.1156005859375
1783002696983150600,5.673150634765625,-0.984832763671875,-0.271942138671875,0.1135406494140625
1783002696993202400,5.683202392578125,-0.9937896728515625,-0.2627716064453125,0.1049041748046875
1783002697003253500,5.69325341796875,-1.0462646484375,-0.2516632080078125,0.101593017578125
1783002697013305300,5.703305419921875,-1.0354766845703125,-0.25311279296875,0.08648681640625
1783002697023356400,5.7133564453125,-0.8979949951171875,-0.2312774658203125,0.096832275390625
1783002697033408500,5.723408447265625,-0.881866455078125,-0.21942138671875,0.1191558837890625
1783002697043460400,5.73346044921875,-0.9435272216796875,-0.2558746337890625,0.0946502685546875
1783002697053511400,5.743511474609375,-0.9276580810546875,-0.263702392578125,0.0911712646484375
1783002697063563300,5.753563232421875,-0.902587890625,-0.2561187744140625,0.0944976806640625
1783002697073614300,5.7636142578125,-0.9434356689453125,-0.26055908203125,0.090484619140625
1783002697083666400,5.77366650390625,-1.0968170166015625,-0.253875732421875,0.0771636962890625
1783002697093717200,5.78371728515625,-1.0913543701171875,-0.2429351806640625,0.085845947265625
1783002697103769300,5.793769287109375,-0.96771240234375,-0.2325286865234375,0.0734405517578125
1783002697113820400,5.8038203125,-0.9253082275390625,-0.2224884033203125,0.04376220703125
1783002697123872500,5.81387255859375,-0.8927001953125,-0.207489013671875,0.048370361328125
1783002697133923300,5.82392333984375,-0.8183746337890625,-0.186767578125,0.0805511474609375
