time,seconds_elapsed,z,y,x
1783002445647957800,0.076957763671875,-0.3991279128909111,-0.06648465224411339,0.10149784222990274
1783002445658009900,0.087009765625,-0.3397095092386007,-0.13907985979039222,-0.013173223697394132
1783002445668061700,0.097061767578125,-0.23712474855482576,-0.22357421597763893,-0.18368717287778855
1783002445678113800,0.10711376953125,-0.17152619496285915,-0.3032841874325648,-0.28768103317450733
1783002445688165600,0.11716552734375,-0.14803776734769344,-0.350459560909681,-0.21376027611289172
1783002445698218800,0.12721875,-0.10013210683465003,-0.2900819568363949,-0.10348357268702238
1783002445708270800,0.137270751953125,0.030651743373274802,-0.1325631713727489,0.07522354675587266
1783002445718322700,0.14732275390625,-0.060384618335962294,-0.034873452721536156,0.21295381856821477
1783002445728374800,0.157374755859375,-0.30777649388313294,-0.048679019505716854,0.1313992421599105
1783002445738426600,0.167426513671875,-0.5637246008515358,0.0028203546503558752,-0.10529080477207899
1783002445748478700,0.177478759765625,-0.6690741500735282,0.016695369941554964,-0.2133822000481188
1783002445758531800,0.18753173828125,-0.5899854157894849,-0.0893284983454272,-0.1534335619766265
1783002445768583700,0.197583740234375,-0.5368652354985475,-0.13209358109962194,-0.1443683946525678
1783002445778635800,0.2076357421875,-0.46275662771463394,-0.07979845345597714,-0.011707827319949864
1783002445788687600,0.2176875,-0.22746026363074778,-0.16533205303046852,0.1919058246414177
1783002445798739700,0.22773974609375,-0.09202303465902804,-0.2011419828845188,0.04907819315744564
1783002445808791600,0.23779150390625,-0.02785188352167606,-0.08292020220570266,-0.2103293883487582
1783002445818844000,0.247843994140625,0.2812082204312086,0.04048347462303936,-0.11041603883132338
1783002445828896800,0.257896728515625,0.4254740680247545,0.09275967837050557,0.18936264296462757
1783002445838948600,0.267948486328125,0.346419236010313,0.043928537042997776,0.2199236941134557
1783002445849000700,0.278000732421875,0.32092005309462546,-0.024927557040192186,-0.016944814657978712
1783002445859052500,0.288052490234375,0.2236561951726675,-0.022320808607898653,-0.16364676682464777
1783002445869104600,0.298104736328125,0.24607670129537582,-0.02466510671172291,-0.13294301926949992
1783002445879156700,0.30815673828125,0.23942951836585996,-0.0556536442913115,-0.17124860186418517
1783002445889209900,0.3182099609375,0.15033143124282358,-0.047736660621687764,-0.25971788956439124
1783002445899261700,0.32826171875,0.11836159100830554,-0.06490249761920422,-0.20778397818226366
1783002445909313800,0.338313720703125,0.0010614917516708372,-0.08979995178207754,-0.03675512001598254
1783002445919365600,0.34836572265625,-0.031183073770999905,-0.1394964777672663,0.07017742408113553
1783002445929417700,0.358417724609375,-0.11462415804564952,-0.15762885824199765,0.054496327482350164
1783002445939469800,0.3684697265625,-0.20362287644743918,-0.13809388096034525,0.025719986059516666
1783002445949521700,0.378521728515625,-0.29669512789845465,-0.12457644693516194,0.07018926064940169
1783002445959574800,0.38857470703125,-0.34361528450548645,-0.16119984859656541,0.13752207242175937
1783002445969627400,0.39862744140625,-0.25228724637329575,-0.1585926252402365,0.14126778002241624
1783002445979679500,0.408679443359375,-0.17383622547090052,-0.1106422853352502,0.13585817606383935
1783002445989731600,0.418731689453125,-0.08731237275004386,-0.07635967464633285,0.18704552512867376
1783002445999783400,0.428783447265625,-0.050283495560288424,-0.061792621970362956,0.20231740160575135
1783002446009835500,0.43883544921875,-0.0998456911087036,-0.047163171582669014,0.17312433260818944
1783002446019888400,0.448888427734375,-0.08571312085986137,-0.02680993672069162,0.17581231131684033
1783002446029940500,0.4589404296875,-0.08136427800059318,0.03251275147218257,0.19190348655385894
1783002446039992600,0.46899267578125,-0.12235095290541648,0.01642517469804734,0.18908822820372878
1783002446050044400,0.47904443359375,-0.160722476875782,-0.0329470147036016,0.10050041042407974
1783002446060096500,0.489096435546875,-0.16631109066307545,-0.038515316355228424,0.059289662706106895
1783002446070148400,0.4991484375,-0.06967267116308212,-0.0547105547549203,0.07680528125567361
1783002446080200400,0.509200439453125,-0.05662555806338787,-0.11040504251327365,0.03814730502674356
1783002446090253600,0.519253662109375,-0.04624912547767162,-0.12950572003088892,-0.055962198783829804
1783002446100305700,0.5293056640625,-0.002573065358400345,-0.11919471736419945,-0.1517215704269707
1783002446110357500,0.539357421875,-0.04889817868173122,-0.15515523467008024,-0.14606179109960793
1783002446120409600,0.54940966796875,-0.1336824942588806,-0.14714976899940518,-0.13883176678083836
1783002446130461400,0.55946142578125,-0.05367956773936748,-0.08192918187435716,-0.14194536875672636
1783002446140513500,0.569513427734375,0.028397826966643332,-0.05727240459956228,-0.13011501103565096
1783002446150565400,0.5795654296875,-0.07054536234438419,-0.05932224980145692,-0.11044639743696898
1783002446160618500,0.589618408203125,-0.16252397333979607,-0.06727514503467828,-0.05577299635466188
1783002446170670600,0.599670654296875,-0.07014028867483138,-0.11215532024670391,-0.10387498315740376
1783002446180722400,0.609722412109375,-0.1731838990420103,-0.09515903112981468,-0.18548497954737395
1783002446190774500,0.6197744140625,-0.2263923421382904,-0.08739486340172588,-0.16433116889223456
1783002446200826400,0.629826416015625,-0.155948102080822,-0.08143354384452105,-0.12001622634753584
1783002446210878500,0.63987841796875,-0.2091600523084402,-0.07697945051249117,-0.10649513906054198
1783002446220931600,0.649931640625,-0.1604559348940849,-0.14009831611793488,-0.10709025540947914
1783002446230983400,0.6599833984375,-0.023429975426197052,-0.13618691482786088,-0.06544876985773444
1783002446241035500,0.670035400390625,0.10499474443495273,-0.1207288315963,0.06474759931843728
1783002446251087400,0.68008740234375,0.1292600016415119,-0.14611830705981702,0.13085001077931374
1783002446261139500,0.690139404296875,0.10173428133428096,-0.12478822652231901,0.1255341495187953
1783002446271191300,0.70019140625,0.09444880050122738,-0.07407057732846588,0.14739252824671564
1783002446281243600,0.71024365234375,0.020942250263690947,-0.05663772342521697,0.19358787771053612
1783002446291295500,0.72029541015625,-0.1280623162895441,-0.05039298381675034,0.17504143654219806
1783002446301348400,0.730348388671875,-0.24546353783309457,-0.04891651805602014,0.09864515621252358
1783002446311400400,0.740400390625,-0.2222141796708107,-0.07407434018813074,0.10749540214426814
1783002446321452300,0.750452392578125,-0.1509416720956564,-0.1355605265578255,0.11499401427134871
1783002446331504600,0.760504638671875,-0.17434943569004535,-0.14481920715998858,0.048460627514682705
1783002446341556500,0.770556396484375,-0.18926760335862636,-0.19927103791348635,-0.0738337728979066
1783002446351608600,0.780608642578125,-0.24937398927509782,-0.2303585423555225,-0.1445811606204137
1783002446361661400,0.790661376953125,-0.16908055537641048,-0.14457688630409538,-0.12857826645504683
1783002446371713300,0.80071337890625,-0.09292787454426288,-0.1083335334688425,-0.08004373345393687
1783002446381765400,0.810765380859375,-0.10377250916361808,-0.14101758638732134,-0.05847125899530947
1783002446391817500,0.8208173828125,-0.12179448806643485,-0.15592011809535325,-0.0496372700786218
1783002446401869600,0.83086962890625,-0.0630769261598587,-0.13935381789356469,-0.02844729213155806
1783002446411921400,0.84092138671875,0.03578384556472301,-0.07828041357584298,-0.037471835184283556
1783002446421973500,0.850973388671875,0.15246435161828994,-0.03674070789813995,-0.05969933948554098
1783002446432026400,0.8610263671875,0.21918518723845481,-0.025273411335796116,0.001242109015583992
1783002446442078500,0.871078369140625,0.22792788114249704,-0.004537278103455901,0.10366787974536418
1783002446452130600,0.881130615234375,0.09588263269662857,0.00831836754474789,0.13328757665716112
1783002446462182400,0.891182373046875,0.06476210276782512,0.04875215780716389,-0.013912278561666607
1783002446472234500,0.901234375,-0.009642857614159584,0.0335478666735813,-0.10423110311869531
1783002446482286300,0.911286376953125,-0.05881225445270538,-0.030020788525976238,-0.1393335788231343
1783002446492338400,0.92133837890625,-0.133047703486681,-0.0645459392664954,-0.07901680155899375
1783002446502391600,0.9313916015625,-0.23937808043956754,-0.06852105344254524,-0.014000650964863597
1783002446512443600,0.941443603515625,-0.19163024083673952,-0.11018993845786898,0.03171155462451279
1783002446522495500,0.95149560546875,-0.22052549593150614,-0.1038785998865962,0.10463215820025652
1783002446532547600,0.961547607421875,-0.2236947736173868,-0.05735880424138158,0.10995273216851055
1783002446542599400,0.971599365234375,-0.15124971513152122,0.01002466000597924,0.04677950602732599
1783002446552651500,0.981651611328125,-0.18170096749663353,0.018377514342218636,-0.030085049401223658
1783002446562703400,0.991703369140625,-0.1970037505686283,-0.03310465295072645,-0.04178498567566275
1783002446572756500,1.001756591796875,-0.17348609685897826,-0.08144552654325962,-0.055815922180935736
1783002446582808600,1.01180859375,-0.15310557213127612,-0.16225136694349349,-0.13064338229130953
1783002446592860400,1.0218603515625,-0.12402677716314792,-0.25218458971641955,-0.15418390541989355
1783002446602912500,1.03191259765625,-0.034542905592918394,-0.24715828598700462,-0.08647866187226026
1783002446612964400,1.04196435546875,0.04574292952120304,-0.17615586405750364,-0.05681742737367749
1783002446623016400,1.052016357421875,0.10664368068575858,-0.11560801798384636,-0.038704409186542034
1783002446633068500,1.062068603515625,0.0776730222672224,-0.09821176976393908,-0.011329422461614011
1783002446643121400,1.072121337890625,0.05683715498745441,-0.08386077099144458,-0.0032324425825849172
1783002446653173500,1.082173583984375,0.0030880291432142256,-0.09100972943063824,0.01250007367618382
1783002446663225300,1.092225341796875,-0.0054489130556583405,-0.09201518014613538,0.03654335869513452
1783002446673277400,1.10227734375,-0.0069172320425510405,-0.07535261649563908,0.07439348913989961
1783002446683329500,1.11232958984375,-0.07477204012870788,-0.09243862972259521,0.07314849404748529
1783002446693381600,1.122381591796875,-0.10536825392246246,-0.11571790809910744,0.040179852033965284
1783002446703433500,1.13243359375,-0.14202011449337004,-0.08164543302953242,0.07871555359009653
1783002446713486300,1.142486328125,-0.19318974523842333,-0.022621654717996716,0.13954864634592085
1783002446723538400,1.152538330078125,-0.29539164408445356,-0.016620258878730237,0.1715361318349838
1783002446733590300,1.16259033203125,-0.28408173004090786,-0.013347593883611262,0.1661036219248548
1783002446743642600,1.172642578125,-0.30526480332314965,-0.023668789150752125,0.16440748553145676
1783002446753694500,1.182694580078125,-0.3123825263738632,-0.05282466794308275,0.12798950678166002
1783002446763746600,1.19274658203125,-0.25301965230107304,-0.05699585268050432,0.10229567807670682
1783002446773798400,1.20279833984375,-0.15608897185623644,-0.0259504338145256,0.06308540172725915
1783002446783851300,1.212851318359375,-0.1445458335787058,-0.04489997589103877,0.011996581133455038
1783002446793903600,1.222903564453125,-0.12201602186262607,-0.10473784706443548,-0.02137231224402785
1783002446803955500,1.23295556640625,0.018334698113799095,-0.13171663754601032,-0.08142879460416734
1783002446814007600,1.243007568359375,0.024323124873638153,-0.15990977225340902,-0.06602887130063027
1783002446824059400,1.253059326171875,0.0076648355394601814,-0.18424900801163166,-0.07365582251511514
1783002446834111500,1.263111572265625,-0.03517477375566959,-0.15999372420981525,-0.004053732370212674
1783002446844163300,1.273163330078125,-0.04295768271684646,-0.10687588200643658,-0.10721815610546619
1783002446854215400,1.28321533203125,-0.0353226577937603,-0.04193206599615514,-0.18543759674169122
1783002446864268500,1.2932685546875,-0.010721300500631331,-0.04685640718843788,-0.1045435666013509
1783002446874320400,1.3033203125,0.02186053415238857,-0.06425345912594348,-0.07675057366006076
1783002446884372500,1.31337255859375,0.04030979855656624,-0.09526168778669089,-0.10273184100426733
1783002446894424300,1.32342431640625,0.019386837515234946,-0.10199296880308538,-0.07267744246963412
1783002446904476400,1.333476318359375,-0.06611117928922176,-0.12362272640690207,-0.11778262207657098
1783002446914528300,1.3435283203125,-0.07070376777648925,-0.15814064368903635,-0.11212178330328315
1783002446924580600,1.35358056640625,-0.07447627205252647,-0.16112597964275627,-0.04568049527686089
1783002446934633500,1.363633544921875,-0.1503746858626604,-0.1664640892677009,-0.038810609507374465
1783002446944685600,1.373685546875,-0.15939210505485535,-0.1998113553352654,-0.038201391567848623
1783002446954737400,1.3837373046875,-0.16174480566084384,-0.16185991994049398,-0.08285853514634073
1783002446964789500,1.39378955078125,-0.06039630877375602,-0.0847857403492555,-0.09504537815488874
1783002446974839800,1.40383984375,0.04897299748361111,-0.0481027539877221,0.03474014519806951
1783002446984892000,1.413891845703125,-0.025852234137058255,-0.010681808740459382,0.15669435387086122
1783002446994943700,1.42394384765625,-0.086347911632061,0.02405124912969768,0.1142318342598155
1783002447004996900,1.433996826171875,-0.060919455865025514,0.0315772972529754,0.09669467973187565
1783002447015048700,1.444048583984375,-0.12536240968108175,0.02811353013254702,0.09401548711787909
1783002447025101000,1.45410107421875,-0.15493629468977452,-0.005050232594273984,0.024814269391447305
1783002447035153000,1.46415283203125,-0.10653086796104907,-0.005891213463060557,-0.015588248949870466
1783002447045205000,1.474205078125,-0.09182663530409335,0.007552716934494674,0.04041797163877636
1783002447055256800,1.4842568359375,-0.10937515147626399,-0.037768845369480546,0.12912059317082167
1783002447065309000,1.494308837890625,-0.1003513025432825,-0.0306409297183156,0.11392317016944288
1783002447075360800,1.50436083984375,-0.01983458128273487,0.0006155015498399734,-0.01808605711497366
1783002447085414000,1.514413818359375,-0.05122340675890445,-0.03010371756907552,-0.04109696687888354
1783002447095466000,1.524466064453125,-0.11838380284011363,-0.06530205486342311,0.050136342174559825
1783002447105517800,1.534517822265625,-0.12994272320866584,-0.09727956694774328,0.040406609994545574
1783002447115570000,1.54456982421875,-0.10466975026428699,-0.18709979433286933,-0.08199716907665133
1783002447125621800,1.554621826171875,-0.15073007517158984,-0.25434549407735463,-0.1439263134408742
1783002447135673900,1.564673828125,-0.10458616363406181,-0.26318364771250635,-0.0605041895950213
1783002447145726000,1.574725830078125,0.0297018953025341,-0.23338395459130404,0.00695537209585309
1783002447155778800,1.58477880859375,-0.005643558844923973,-0.171072131052427,-0.007135185642167925
1783002447165831000,1.594830810546875,-0.019177578678727148,-0.12482417461853473,-0.07947579737287014
1783002447175882800,1.6048828125,0.04806114333570003,-0.05633695038035512,-0.12578081775624303
1783002447185934800,1.614934814453125,-0.07282675127983093,-0.0392098379580304,0.028617935990728437
1783002447195986700,1.624986572265625,-0.16777297990918158,-0.017656031667254865,0.1540139922130853
1783002447206039000,1.6350390625,-0.09253741392195224,-0.01390858876723796,0.13790080607365815
1783002447216091000,1.6450908203125,-0.17012392694950101,-0.018716281309910116,0.012329393284395336
1783002447226143000,1.65514306640625,-0.21555881343483924,-0.03899071531463414,-0.08982954320274293
1783002447236195800,1.66519580078125,-0.06618599809110164,-0.07425254629924893,-0.03924775881562382
1783002447246247700,1.67524755859375,0.026480010646581648,-0.06706581313293426,0.06722001731395721
1783002447256299800,1.6852998046875,0.054259413453936575,-0.09270261442102491,0.08928973723761736
1783002447266351900,1.695351806640625,0.045964463317394254,-0.10510145621243863,0.04086027204617858
1783002447276404000,1.705404052734375,0.04875497081875801,-0.10089085278008132,-0.01793941518589854
1783002447286455800,1.715455810546875,-0.0542366171002388,-0.08410860827267169,-0.00047561815511435265
1783002447296508000,1.7255078125,-0.2252156995743513,-0.09703845166824758,-0.03338847486078739
1783002447306560800,1.735560791015625,-0.27974633118510245,-0.12807002467196435,-0.05167787252813577
1783002447316612900,1.74561279296875,-0.33101006995439525,-0.1411920296387747,-0.020812486404180524
1783002447326665000,1.7556650390625,-0.3548801903635263,-0.1601843879437074,-0.0596359553931281
1783002447336716800,1.765716796875,-0.2665980957984924,-0.19000110526494682,-0.13909564188141374
1783002447346769000,1.775768798828125,-0.16182839229106902,-0.18228746214769778,-0.13332980836369096
1783002447356820700,1.78582080078125,-0.04479074336290359,-0.17189813354779035,-0.07208510259967296
1783002447366872800,1.795872802734375,0.1264022741228342,-0.13828907473888247,-0.04234777065757662
1783002447376924700,1.805924560546875,0.16611995200514793,-0.07463149914685636,0.057040933931246394
1783002447386977800,1.815977783203125,0.06569499970376491,-0.0356015112677589,0.1469641102341935
1783002447397030000,1.82602978515625,0.07062894897460938,-0.008364544774033129,0.08269143495112657
1783002447407081700,1.836081787109375,-0.020814239969849584,0.005436163171939552,-0.033314788570068775
1783002447417133800,1.8461337890625,-0.16292904700934885,-0.012044840721972285,0.03291066474858671
1783002447427185700,1.856185546875,-0.15037760847210882,0.002121595263853669,0.11989888357818126
1783002447437237800,1.86623779296875,-0.08856383411586284,0.04541665670890361,0.09778148858789354
1783002447447289900,1.876289794921875,-0.12905308089256287,0.024071488200128076,0.05063497587908059
1783002447457342000,1.886342041015625,-0.12248305485248565,-0.0265323618883267,0.04329999334849417
1783002447467394800,1.896394775390625,-0.04416998111605644,-0.04886175566148013,0.03874112446773797
1783002447477447000,1.906447021484375,-0.03394435517787933,-0.07540825567301362,0.004268361501581967
1783002447487498800,1.916498779296875,-0.13698445841372012,-0.0940500104419887,-0.06687043669130653
1783002447497550800,1.92655078125,-0.07270400168299675,-0.07300163292270154,-0.05190627445653081
1783002447507603000,1.93660302734375,-0.21362930667698382,-0.07386186648122967,-0.09426906002014875
1783002447517654800,1.94665478515625,-0.2729202845573425,-0.13286438280902801,-0.12562749035805462
1783002447527707000,1.956706787109375,-0.21599778937399386,-0.14088073519989847,-0.13362904703859238
1783002447537759700,1.966759765625,-0.1896224081456661,-0.18163433200120924,-0.09998276149183512
1783002447547811800,1.976811767578125,-0.06944120049476624,-0.22620303011126816,-0.04729001283273101
1783002447557864000,1.986864013671875,0.048914545294642446,-0.1827694735109806,-0.01646503178440034
1783002447567916000,1.996916015625,0.10278758977949619,-0.11060907718539237,-0.023778204341977832
1783002447577967900,2.0069677734375,0.10687164422273636,-0.04768463817350566,-0.0037759383421391247
1783002447588020000,2.01702001953125,0.140414432862401,0.009463299796171486,0.046411184171587225
1783002447598071800,2.02707177734375,0.05748772785067558,0.036766390328668054,0.1397049328861758
1783002447608124000,2.0371240234375,-0.19043138644099233,0.032393509006686506,0.21733634450137615
1783002447618177000,2.047177001953125,-0.25369886673688885,0.06655417381636798,0.23127357484120875
1783002447628228900,2.057228759765625,-0.29773090068697927,0.0857470231294632,0.23157599185388533
1783002447638281000,2.067281005859375,-0.3445417517006397,0.046870727974735196,0.1631122580891475
1783002447648332800,2.077332763671875,-0.24919746366441248,0.03536485296767205,0.0929536300400272
1783002447658385000,2.087385009765625,-0.2222837377756834,0.014177432303875684,0.15101828099582343
1783002447668436700,2.097436767578125,-0.17182897730171678,-0.07672061691321432,0.11324592849500477
1783002447678489000,2.107489013671875,-0.11903554474711417,-0.15203363205082715,-0.057784116981364785
1783002447688541000,2.117541015625,-0.12066402273178099,-0.16979590057153254,-0.017812939262017605
1783002447698593800,2.12759375,-0.06925064635872841,-0.22818631288297472,-0.05538165894951671
1783002447708646000,2.13764599609375,0.01529459976553917,-0.21955942737832665,-0.08134137204904109
1783002447718697700,2.14769775390625,0.040966801160573954,-0.22622652058470993,-0.1970807613275945
1783002447728749800,2.157749755859375,0.050150224569439884,-0.23389007748253643,-0.2153087841965258
1783002447738802000,2.167802001953125,0.08867080162167548,-0.2220069301282987,-0.21678488463107495
1783002447748854000,2.17785400390625,0.07577215708196162,-0.1947943674234673,-0.1439686182126403
1783002447758905900,2.18790576171875,0.010385784935951232,-0.13051365496441722,-0.13727408901005983
1783002447768958000,2.1979580078125,-0.04676292021870613,-0.07583776966407894,-0.11379892273526639
1783002447779010800,2.2080107421875,-0.1585439637929201,-0.11359532645456492,-0.08563618316613138
1783002447789062700,2.218062744140625,-0.12701426854133605,-0.07885393914747983,-0.2602513571202755
1783002447799115000,2.228114990234375,-0.03566226501166821,-0.03704319797605276,-0.23003300019558517
1783002447809166800,2.238166748046875,-0.018972996017336843,-0.09081891956627368,-0.009433854505978525
1783002447819219000,2.248218994140625,-0.01158580837547779,-0.1363786745402962,0.11131499696504324
1783002447829270800,2.258270751953125,-0.059360535985231395,-0.09588577450178563,0.12871420432701705
1783002447839323000,2.268322998046875,-0.09953414094150066,-0.05415861996058374,0.07643259375207126
1783002447849376000,2.2783759765625,-0.1022644426882267,-0.06908529972918331,-0.04478592105731368
1783002447859427800,2.288427734375,-0.1894581574946642,-0.08014434428419917,-0.040818478731065984
1783002447869480000,2.29847998046875,-0.1815793869435787,-0.11181995081249624,0.09165368988998233
1783002447879531800,2.30853173828125,-0.050046179673075675,-0.09084712274745106,0.14739866572655735
1783002447889583900,2.318583984375,-0.0009492635488510131,-0.0832931271713227,0.1037294737394899
1783002447899635700,2.3286357421875,0.029229017093777655,-0.10446746915783732,0.05876804998479783
1783002447909687800,2.338687744140625,0.09322247357666492,-0.09272442439403385,0.07707516597192735
1783002447919740000,2.348739990234375,0.0997241105556488,-0.092878701640293,0.11107578138168901
1783002447929792800,2.358792724609375,-0.008230652728676796,-0.10073960774112492,0.1377276779964566
1783002447939844900,2.368844970703125,-0.06848258459568023,-0.083899385968782,0.07704944700878114
1783002447949896700,2.378896728515625,-0.09765665663182735,-0.07547543915770948,0.01787884410507977
1783002447959948800,2.38894873046875,-0.11536533180177211,-0.10320391549542546,-0.03550192335080355
1783002447970001400,2.39900146484375,-0.1459995395183563,-0.12081124918274581,-0.11590027892868965
1783002447980053500,2.409053466796875,-0.08809855469167233,-0.1330606725661084,-0.15730360834300516
1783002447990105300,2.419105224609375,-0.07169394785761833,-0.1674382680620998,-0.03370663743186742
1783002448000157700,2.42915771484375,-0.03657937985658646,-0.16529975819606332,-0.007048420674167573
1783002448010210600,2.43921044921875,-0.007388941207528114,-0.09327785702571273,-0.040172874303907154
1783002448020262400,2.449262451171875,-0.064200961753726,-0.061681562811322505,-0.020570129015669226
1783002448030314500,2.459314453125,-0.20702420932352542,-0.0688840780686587,0.04776175853032619
1783002448040366300,2.469366455078125,-0.23647476021349428,-0.06016743192132562,0.0504966633869335
1783002448050418400,2.47941845703125,-0.2371878769189119,-0.028783063424564895,0.003339044762216508
1783002448060470500,2.489470458984375,-0.2846551460146904,-0.05543101451657712,0.06966138258408755
1783002448070522600,2.499522705078125,-0.19828502255082128,-0.10941709092184901,0.09189612034372985
1783002448080574500,2.509574462890625,-0.14504092361927032,-0.11115717605482786,0.020168124086037277
1783002448090626600,2.51962646484375,-0.06712298668026924,-0.1250421282181516,0.022671485209092495
1783002448100679400,2.529679443359375,0.023716391152143478,-0.12878818287868052,0.07820822512246668
1783002448110731300,2.539731201171875,0.12614976066648959,-0.0878965293135494,0.010248787618055939
1783002448120783600,2.54978369140625,0.11772387762665748,-0.060660001211240884,-0.04417133282292634
1783002448130835500,2.55983544921875,0.03520224628448486,-0.08396781156249344,0.035563700008019804
1783002448140887600,2.569887451171875,-0.034494974797964095,-0.12072981797698884,0.025839155459776518
1783002448150939400,2.579939453125,-0.15933482190966605,-0.1295994992615655,-0.07622676898166537
1783002448160991500,2.589991455078125,-0.2721592370569706,-0.12646215108390896,-0.03686798753961921
1783002448171044600,2.600044677734375,-0.2790852369278669,-0.15127711459510026,0.03397829398009926
1783002448181096400,2.610096435546875,-0.2982143002897501,-0.160875658143498,-0.02271484942678362
1783002448191148500,2.6201484375,-0.21968904510736464,-0.15807115864939986,-0.07678871371336281
1783002448201200400,2.630200439453125,-0.09950316128134727,-0.14641480578836052,-0.04335844553746283
1783002448211252500,2.64025244140625,-0.017059271350502968,-0.10521109059937298,-0.026179968254081903
1783002448221304300,2.65030419921875,0.11812076798975467,-0.052374220761843025,-0.04487568169999867
1783002448231356400,2.6603564453125,0.08830489091873168,-0.028930910930037496,0.031418343831598756
1783002448241408500,2.670408447265625,-0.03363923475146294,-0.04857826254498213,0.07217179450243712
1783002448251460600,2.680460693359375,-0.11036240894794463,-0.06123549954425543,0.09564195580855012
1783002448261513500,2.690513427734375,-0.17509996179640291,-0.02007653681244701,-0.011044358442537486
1783002448271565300,2.7005654296875,-0.18917466437816619,0.01412603091020137,-0.12769757463037967
1783002448281617400,2.710617431640625,-0.16542670904397963,-0.021610431848838926,0.0017135624522343277
1783002448291669200,2.720669189453125,-0.08988310002088547,-0.09405077762696891,0.13311108757909387
1783002448301721600,2.7307216796875,-0.08549041801989078,-0.11551701523214578,0.006185081843100488
1783002448311773400,2.7407734375,0.03780687582492828,-0.08059997909720987,-0.003109802583605051
1783002448321825500,2.750825439453125,0.07963584677278995,-0.046480888406932354,-0.013603431808203458
1783002448331877400,2.76087744140625,0.062407064074277874,-0.12382212143652141,0.1354499057902023
1783002448341930500,2.770930419921875,-0.127609311825037,-0.267412407856062,0.06441935374476015
1783002448351982600,2.780982666015625,-0.15353578024208545,-0.2467098480997607,-0.2183629110701382
1783002448362034400,2.791034423828125,0.026615619724988937,-0.2660251547487453,-0.18969434087071566
1783002448372086500,2.80108642578125,-0.09743395379185676,-0.360071365798451,-0.053350737643800675
1783002448382138400,2.811138427734375,-0.1336748954743147,-0.38780926755163814,0.0012500365937128661
1783002448392190500,2.8211904296875,0.13841536799967288,-0.2491861385527998,-0.06886299874801188
1783002448402242300,2.8312421875,0.22845453536510466,-0.11309811752215027,-0.0866158783858642
1783002448412294400,2.84129443359375,0.0971364321500063,-0.017797285035159437,-0.13725863571260125
1783002448422347500,2.851347412109375,-0.01447276198863983,0.01341448510736227,-0.21372462027762085
1783002448432399600,2.861399658203125,0.0737169781178236,0.06639794207504018,-0.05582326523717492
1783002448442451500,2.871451416015625,-0.11855565227568149,0.07315302409213036,0.22260259446650743
1783002448452503600,2.881503662109375,-0.31777298724055286,-0.00011688611162826419,0.19039156588725745
1783002448462555400,2.891555419921875,-0.3050029375165701,-0.03303363354112953,0.000709390378370881
1783002448472607500,2.901607421875,-0.34850539463460445,-0.03630869142273441,-0.11146901848297565
1783002448482659600,2.91165966796875,-0.33362989706397056,-0.102105471000541,-0.04647939056959003
1783002448492711400,2.92171142578125,-0.19693828411698341,-0.11547690241746604,0.1685831637809053
1783002448502764500,2.9317646484375,-0.020994272711873055,-0.04905574386361986,0.2747220732823014
1783002448512816400,2.94181640625,0.06848200007379054,0.018688662650622426,0.25244050070624796
1783002448522868500,2.951868408203125,-0.03877192146480083,0.022077610969170925,0.2358894346062094
1783002448532920300,2.96192041015625,-0.21921792046427727,-0.023481431618798523,0.33484752922542393
1783002448542972700,2.97197265625,-0.2736743177950382,-0.12017477791011333,0.2629925455871969
1783002448553024500,2.9820244140625,-0.3236544464945793,-0.14305627087438477,-0.09144768245648592
1783002448563076600,2.99207666015625,-0.3825181388735771,-0.1575100359016098,-0.2979403056539595
1783002448573128400,3.00212841796875,-0.2720896789520979,-0.20464076651940122,-0.21981457118317482
1783002448583181300,3.012181396484375,-0.11213818644881247,-0.16916127419611438,-0.020652619667351244
1783002448593233700,3.022233642578125,0.041138066074252126,-0.1467345757946372,0.07057531909123063
1783002448603285500,3.032285400390625,0.11333353371322154,-0.12079375005867332,0.0850206450836733
1783002448613337600,3.042337646484375,0.18476269315481184,-0.06828379235425963,-0.004146306024491787
1783002448623389400,3.052389404296875,0.1760644229143858,-0.039504546588286754,-0.015443579782173037
1783002448633441500,3.062441650390625,0.08606851016879082,0.024845888372417538,0.03425813383478671
1783002448643493400,3.072493408203125,-0.00653729281425476,0.052526415648870166,0.0847425587946549
1783002448653545500,3.08254541015625,-0.30405718109905716,-0.0785115554505959,-0.03239917156249285
1783002448663597600,3.09259765625,-0.34953239959478377,-0.17752729854118077,-0.19480989378616212
1783002448673650400,3.102650390625,-0.28294425044357774,-0.12246486160866915,-0.20335308306273073
1783002448683702500,3.11270263671875,-0.22401976778805255,-0.16870797747066243,-0.14082063904311506
1783002448693754400,3.12275439453125,-0.12292495340108871,-0.2495701329017058,-0.08599581025876105
1783002448703806500,3.132806396484375,0.02291501164138317,-0.22066508706528692,-0.021906346055492756
1783002448713858300,3.1428583984375,0.11697510508596896,-0.15409321319544686,0.07285038788374514
1783002448723910700,3.15291064453125,0.2660416309595108,-0.07644254889050499,0.08510203975681215
1783002448733962500,3.16296240234375,0.2379378185033798,0.04880628088088706,0.11327665242683142
1783002448744014600,3.1730146484375,0.0452478394806385,0.09126079984856769,0.1967309980418533
1783002448754067500,3.1830673828125,-0.11618658505678177,0.030363975940458476,0.2795605262894183
1783002448764119300,3.193119384765625,-0.15261924991905687,0.004327215549349785,0.15746391347125172
1783002448774171600,3.203171630859375,-0.18337796079814433,-0.08276634508455172,-0.1136485179465264
1783002448784223500,3.213223388671875,-0.24306816712915896,-0.18562115488136186,-0.19902126440349965
1783002448794275600,3.223275634765625,-0.22029753239452837,-0.2883174496482126,-0.05728778483178466
1783002448804327400,3.233327392578125,-0.15957330684065818,-0.2651457232994027,0.012394713605567813
1783002448814379500,3.243379638671875,-0.13721359099447727,-0.1686993375064805,-0.034387605433352286
1783002448824431400,3.253431396484375,-0.16543606139421463,-0.12417488039694725,-0.03759816497769206
1783002448834484500,3.263484375,-0.08990998802781104,-0.12568468217169865,-0.015457316046580672
1783002448844536600,3.27353662109375,0.014092238238453864,-0.06425347739225253,-0.020138130806572733
1783002448854588400,3.28358837890625,-0.011911971589922904,-0.030720716956257818,-0.0029991452833637595
1783002448864640500,3.293640625,0.013676643174886703,-0.08488277098294347,0.043199163322523236
1783002448874692400,3.3036923828125,0.07197334932088852,-0.05470069094803184,0.03320000308398157
1783002448884744400,3.313744384765625,0.12959960885941982,-0.025027857343200594,-0.04331654262449592
1783002448894796300,3.32379638671875,0.1582441040635109,-0.047247324468474836,-0.053127852140739555
1783002448904848600,3.3338486328125,0.18918986194729803,-0.06970401614941656,0.015367080479860304
1783002448914900500,3.343900390625,0.12659341278076172,-0.05844887363356538,0.0655889089807868
1783002448924953300,3.353953369140625,0.0034352351456880567,-0.030550712417904285,0.09814918938912451
1783002448935005400,3.36400537109375,-0.15678981360197067,-0.02915497461003251,0.09155329825542867
1783002448945057300,3.374057373046875,-0.3127846774339676,-0.05009857658059336,0.09923121247217058
1783002448955109400,3.384109375,-0.26558044318854807,-0.11434278382100165,0.014969167203456162
1783002448965161500,3.394161376953125,-0.33790392112135886,-0.16042575895152986,-0.08683744871467351
1783002448975213600,3.404213623046875,-0.3646960664570331,-0.23707893665172158,-0.0742165616704151
1783002448985265400,3.414265380859375,-0.2119832930356264,-0.2462376457444392,-0.08622286048028617
1783002448995317500,3.4243173828125,-0.17656126652061938,-0.21358245359426364,-0.04704802077040076
1783002449005370400,3.434370361328125,-0.021716157245635984,-0.19414704596325755,-0.08972213730551303
1783002449015422500,3.44442236328125,-0.04911562082469463,-0.12646258947532624,0.059806672317534684
1783002449025474600,3.454474609375,-0.12040040335953235,-0.12488733038208447,0.1326313777707517
1783002449035526400,3.4645263671875,-0.13801964668035507,-0.07472325995038263,0.0997369700372219
1783002449045578500,3.47457861328125,-0.2086807443588972,-0.021087102094478904,0.06141838183049112
1783002449055630300,3.48463037109375,-0.2324608483970165,-0.0038806499587837606,0.06189341546371579
1783002449065682400,3.494682373046875,-0.22761457740962504,-0.03075546860923059,0.09498374762814492
1783002449075734300,3.504734375,-0.1963145992606878,-0.05771294230814091,0.08516147832646966
1783002449085786600,3.51478662109375,-0.08873334546387195,-0.06278402589419857,0.08309881017562001
1783002449095839500,3.524839599609375,0.04746434648633003,-0.10216970447632484,0.079003028761968
1783002449105891600,3.5348916015625,0.03772212015092373,-0.10012365866671316,-0.05338456684816628
1783002449115943400,3.544943359375,-0.04182780190408229,-0.12579506547730415,-0.06353731021322309
1783002449125995500,3.55499560546875,0.014163549908995628,-0.14205069229472428,-0.009964892642758787
1783002449136047400,3.56504736328125,-0.03424538395106792,-0.06500319064785726,0.0089847590316087
1783002449146099500,3.575099365234375,-0.1674316191256046,-0.09243059254661203,0.01788797725960612
1783002449156151600,3.585151611328125,-0.22904314890801905,-0.15303626062157563,-0.02697795023135841
1783002449166203400,3.595203369140625,-0.24926935985684393,-0.08517737914850003,-0.06160835144463926
1783002449176256500,3.605256591796875,-0.15811200211644172,-0.0521857489850372,-0.03662709145583212
1783002449186308400,3.615308349609375,-0.0760831227272749,-0.07889486481291241,-0.038208369297906754
1783002449196360700,3.625360595703125,-0.05597790780961513,-0.08296203205343336,-0.08473561759721487
1783002449206412500,3.63541259765625,0.051529696229100225,-0.0565907059457153,-0.067063986502029
1783002449216464600,3.645464599609375,0.12224340087771415,-0.028582983408356084,-0.0354381373995915
1783002449226516500,3.6555166015625,0.08782558296918869,-0.0006256667508278042,-0.04059636041298508
1783002449236568600,3.665568603515625,0.030713118171691894,-0.01093223070441745,-0.07071523901857435
1783002449246620400,3.675620361328125,-0.049230771636962885,-0.06382917843242175,-0.04603614031411707
1783002449256673500,3.685673583984375,-0.130104635772109,-0.09762093686447479,0.044011794879660004
1783002449266725600,3.6957255859375,-0.16984394096434116,-0.13908620733278804,0.036074681737460194
1783002449276777500,3.705777587890625,-0.18981997654438018,-0.1460120154074393,-0.04811879180707037
1783002449286829600,3.71582958984375,-0.2525081956475973,-0.1483612180152442,-0.0425157111030072
1783002449296881400,3.72588134765625,-0.14844985527992247,-0.16116569059863686,-0.024072547646053134
1783002449306933500,3.73593359375,-0.12288871304392814,-0.1114288326030597,-0.018106186587549745
1783002449316985300,3.7459853515625,-0.0683136577695608,-0.08462852222723886,-0.023576690420508382
1783002449327037700,3.75603759765625,0.028757892450690267,-0.04689900422114879,-0.0073479516100138425
1783002449337089500,3.766089599609375,0.02029284644424915,0.0027536826223134993,0.09142623780965804
1783002449347142400,3.776142333984375,0.026035189488530158,0.009768986478168517,0.15054792353771626
1783002449357194500,3.786194580078125,-0.005619008925557136,0.040945676174154504,0.16576496455501763
1783002449367246300,3.796246337890625,-0.06819967600107192,0.06787136649531311,0.1296663539526984
1783002449377298700,3.806298583984375,-0.145755793890357,0.04829615766797214,0.20001235780008136
1783002449387350500,3.8163505859375,-0.18082301561832426,0.04289824414718896,0.22575082936435936
1783002449397402600,3.826402587890625,-0.1332902800709009,0.08119269342650659,0.11055617795437574
1783002449407454500,3.836454345703125,-0.08871931693851948,0.05474112342312001,0.031494149014167486
1783002449417506600,3.846506591796875,-0.14594167185127735,-0.05981167728621512,0.0008873407611623405
1783002449427558400,3.856558349609375,-0.0912409443706274,-0.14542050665454007,-0.021848222660087048
1783002449437611500,3.866611572265625,0.04914426239728927,-0.17115677712857721,-0.0415409477867186
1783002449447663600,3.87666357421875,0.06542728867828845,-0.22686549434168263,-0.06913461876362562
1783002449457715500,3.886715576171875,-0.009106851041316985,-0.2680269230252132,-0.09261025996245444
1783002449467767600,3.896767578125,-0.08042845845520497,-0.26241218841597436,-0.12915982920266686
1783002449477819400,3.9068193359375,-0.08919161062538623,-0.20044304083492606,-0.18949425172135234
1783002449487871500,3.91687158203125,-0.033920974302291865,-0.13855664876704105,-0.25300354141648856
1783002449497923300,3.92692333984375,-0.08241817096769809,-0.12548051963541657,-0.22320435975193975
1783002449507975700,3.9369755859375,-0.08767126919031143,-0.13024493015878832,-0.15043595106322316
1783002449518028500,3.947028564453125,-0.06346972486972809,-0.11814924516556784,-0.10653064876534044
1783002449528080400,3.957080322265625,-0.06190729785859585,-0.10694518438298255,-0.14268296231627464
1783002449538132500,3.967132568359375,-0.03785129948854446,-0.10504181671338156,-0.09578213146422057
1783002449548184300,3.977184326171875,-0.07153788051307201,-0.0890645501796156,0.008982713204994797
1783002449558236400,3.987236328125,-0.09991174208223819,-0.06849165838470217,0.049108496964164076
1783002449568288500,3.99728857421875,-0.1004950949281454,-0.03945500835813582,0.07945654468312859
1783002449578340600,4.007340576171875,-0.13981588244736193,-0.04663255813757423,0.08872519869003444
1783002449588392400,4.017392333984375,-0.13716682924330234,-0.06413422122702468,0.10878357879128306
1783002449598444500,4.027444580078125,-0.06624269671440124,-0.09672481914181262,0.11336454990599304
1783002449608497400,4.037497314453125,-0.0678869567900896,-0.107055202362407,0.07026263641286641
1783002449618549500,4.047549560546875,-0.041429157975316044,-0.13531883588959462,0.04074647294078022
1783002449628601600,4.0576015625,-0.02221709250509739,-0.10865561416321433,0.05805957292187958
1783002449638653400,4.0676533203125,-0.05845335801243782,-0.08449908716129138,0.05731277314256877
1783002449648705500,4.07770556640625,-0.11090133813023567,-0.08827368292971513,0.04754219749551266
1783002449658757400,4.08775732421875,-0.13636135807931424,-0.04829315742671024,0.06374561920166015
1783002449668809500,4.0978095703125,-0.11412848348319529,-0.03831703100388404,0.06716280723400414
1783002449678861300,4.107861328125,-0.14188216732740402,-0.05295259603853337,0.020687252589315176
1783002449688914400,4.11791455078125,-0.08769640363156794,-0.03676055880950298,0.015459727199375628
1783002449698966500,4.127966552734375,-0.05367489156424999,-0.038208643292542546,-0.00514660564083606
1783002449709018400,4.138018310546875,-0.008147066098451615,-0.047741939585004,-0.06787647192869335
1783002449719070500,4.148070556640625,0.04285071521103382,-0.04981184119423851,-0.14070921455789356
1783002449729122300,4.158122314453125,0.006454290705919265,-0.03594605952226557,-0.1043680273713544
1783002449739174400,4.16817431640625,-0.06052782619893551,-0.06514865896657575,-0.021901560282520948
1783002449749226500,4.1782265625,-0.06617606121897697,-0.1258996400966309,0.0008724354529753327
1783002449759278600,4.188278564453125,-0.19585107340216634,-0.15712138364389538,-0.040840069508366286
1783002449769330400,4.198330322265625,-0.2307014375090599,-0.17272106730323283,-0.08732095791529863
1783002449779383300,4.20838330078125,-0.1896060415327549,-0.16814824296236036,-0.05123396468553692
1783002449789435400,4.218435302734375,-0.2198182244449854,-0.16503555430192499,-0.0647781771197915
1783002449799487500,4.228487548828125,-0.09948562562465667,-0.12696020026654004,-0.11642360868304967
1783002449809539600,4.23853955078125,-0.06661386811435223,-0.07827055890210903,-0.00680847443845123
1783002449819591400,4.24859130859375,-0.07341419577896595,-0.07202698833742179,0.046884318108670414
1783002449829643500,4.2586435546875,-0.05567570999264717,-0.06531504220915958,0.01994037974476814
1783002449839695400,4.2686953125,-0.13108780159056185,-0.06705605892390012,0.03154920366965234
1783002449849747500,4.27874755859375,-0.19080548045039175,-0.06004650895539671,0.05924483718369156
1783002449859799300,4.28879931640625,-0.1259668053150177,-0.06094983730355743,0.043034035888686775
1783002449869852400,4.298852294921875,-0.08136077086925506,-0.04900240624118596,0.01447882640324533
1783002449879904500,4.308904541015625,-0.08859306021034717,-0.0877568285819143,0.0003387304350733757
1783002449889956400,4.318956298828125,-0.05502689069509506,-0.1125720660877414,0.01727444847114384
1783002449900008400,4.329008544921875,-0.0625888503819704,-0.08838915340239181,-0.01844111763034016
1783002449910060300,4.339060302734375,-0.07655190928280353,-0.07790516878897323,-0.08822645538765937
1783002449920112400,4.3491123046875,-0.15967793625891208,-0.06560725748823024,-0.02640603209491819
1783002449930164500,4.35916455078125,-0.2547521751821041,-0.09518603786774911,0.05955043253414333
1783002449940216600,4.369216552734375,-0.23765023373365401,-0.0922215346395038,0.03217734550535679
1783002449950268400,4.379268310546875,-0.2181879928946495,-0.0649085757335415,-0.038538697230815884
1783002449960321500,4.389321533203125,-0.18070494219660757,-0.06473286754018627,-0.07369991738516837
1783002449970374000,4.399373779296875,-0.11045184079706669,-0.07574802272112574,-0.002510631114058196
1783002449980426000,4.409426025390625,-0.06974690544307231,-0.0740945335927885,0.02220496367588639
1783002449990478000,4.41947802734375,-0.08935118510127067,-0.027864793235599063,0.02956529984343797
1783002450000530000,4.429530029296875,-0.0621446137458086,-0.014839515225088688,-0.07696125726867467
1783002450010582000,4.43958203125,-0.036548400196433066,0.024954082004225345,-0.1857115548448637
1783002450020633900,4.4496337890625,-0.02756663683950901,0.0345732938813162,-0.12954707495458423
1783002450030686000,4.45968603515625,-0.05202770887911319,-0.016177593145146964,0.07692925469521433
1783002450040737800,4.46973779296875,-0.007198387071490287,-0.010260610486590303,0.08302632946129888
1783002450050791000,4.479791015625,0.020978490620851515,0.017040027793915943,-0.03504844396226108
1783002450060843000,4.489843017578125,-0.09723813895881175,0.05254818908926099,-0.022541977077908813
1783002450070894800,4.499894775390625,-0.0919248349815607,0.09353844419065863,-0.04788319295290857
1783002450080947000,4.509947021484375,-0.047906245034933084,0.13479274792256765,-0.06930522609017789
1783002450090998800,4.519998779296875,-0.08441723583042621,0.08414515002393164,-0.04151599600855261
1783002450101051100,4.530051025390625,-0.008332359537482261,-0.00798508046977222,0.05561075499765575
1783002450111103000,4.54010302734375,-0.14487024322748182,-0.07282495204838924,0.08495689566507934
1783002450121155000,4.550155029296875,-0.01511632058918476,-0.06688571645882911,0.03940755248721689
1783002450131207000,4.56020703125,0.06020809272527694,-0.023502067981450818,0.037908838362060486
1783002450141260000,4.570260009765625,-0.06187748724222183,-0.07039065127328503,0.0334128421170637
1783002450151312000,4.580311767578125,-0.12323942617774009,-0.14662938012080265,0.01859203387573361
1783002450161364000,4.590364013671875,-0.11513853730857372,-0.17546927003283053,-0.01260634706225246
1783002450171416000,4.600416015625,-0.10327215842604637,-0.20746977940024808,-0.04131999851241708
1783002450181468000,4.610468017578125,-0.10424597189426421,-0.1848296757101081,-0.0030952991342172026
1783002450191520000,4.62052001953125,-0.10757716214358806,-0.1298898605102673,0.041444392077066
1783002450201571800,4.63057177734375,-0.08200023781657219,-0.06438655202027875,0.036761166164278984
1783002450211624000,4.6406240234375,-0.05464636694490909,-0.020280772413965312,0.029896139233000576
1783002450221675800,4.65067578125,-0.059006315720081325,-0.003579863214190118,0.08616035317070782
1783002450231729200,4.660729248046875,-0.1195528466194868,0.00473125717244111,0.16310385558698326
1783002450241781000,4.670781005859375,-0.06662438950836658,0.0011533941190922633,0.10215645226910709
1783002450251833000,4.6808330078125,-0.08217734794914722,0.009216905553359538,0.0736947297533974
1783002450261885000,4.690885009765625,-0.15105974551737308,-0.009803847728995606,0.07799008885975926
1783002450271936800,4.700936767578125,-0.17465455611646175,-0.018317838310543448,0.021188114783540365
1783002450281988900,4.71098876953125,-0.16646365087628365,-0.007651062742434441,-0.03344963046349585
1783002450292041000,4.721041015625,-0.12774667446911334,-0.03198556752661243,-0.05091134513504803
1783002450302093000,4.731093017578125,-0.10591478188931941,-0.09128648227909579,-0.013518530003726482
1783002450312146000,4.74114599609375,-0.0073345806717872615,-0.11902000011811033,-0.0395365491617471
1783002450322198000,4.751197998046875,-0.0019581483304500578,-0.15354701402215287,-0.012254318754188715
1783002450332249900,4.761249755859375,-0.04841361003518104,-0.19168025399092584,0.0011969912322238087
1783002450342302200,4.77130224609375,-0.007441548177599906,-0.1766551918817684,-0.03962824603319168
1783002450352354000,4.78135400390625,0.0237415255934,-0.12952164825238285,-0.0801032816214487
1783002450362406000,4.791406005859375,-0.06888765826523303,-0.1734763426499441,-0.02598031749613583
1783002450372458000,4.8014580078125,-0.08067746478021144,-0.20017679111417383,0.03973430022355169
1783002450382509800,4.811509765625,-0.047809214401245116,-0.17526757344827054,-0.010654372744262218
1783002450392562000,4.82156201171875,-0.09569090951681136,-0.11904482403211294,-0.016332856772094964
1783002450402613800,4.83161376953125,-0.1051794533520937,-0.10074613794661126,0.0030399887504056096
1783002450412667100,4.841667236328125,-0.08206395070254802,-0.09992598980329931,-0.03844440654348582
1783002450422719000,4.851718994140625,-0.11828384959697723,-0.058922998517914674,-0.05067468683496117
1783002450432771000,4.86177099609375,-0.09532733690142631,-0.039992727397452105,0.026452099726349113
1783002450442823000,4.871822998046875,-0.12281798589527607,-0.022402203281037508,0.06002243396006524
1783002450452875000,4.881875,-0.15627426529526708,-0.015004937203158623,-0.011740633611008524
1783002450462926800,4.8919267578125,-0.18571429479122162,-0.004786727386456914,0.0548226368272677
1783002450472979000,4.90197900390625,-0.21907821973264216,0.022473921376955693,0.15272892083860934
1783002450483031000,4.912031005859375,-0.2620978617697954,-0.0019350460160756484,0.09005673955474049
1783002450493083000,4.922082763671875,-0.23884207386672496,-0.050584953591739756,0.00855506237745285
1783002450503136000,4.932135986328125,-0.16803601475954055,-0.12837339153271168,-0.09697090285737067
1783002450513187800,4.942187744140625,-0.09654840312898158,-0.1867366783752106,-0.14481650374624877
1783002450523240200,4.952240234375,0.003375613912940025,-0.23433772991849108,-0.17099767757672815
1783002450533292000,4.9622919921875,0.061730772247910494,-0.2661884555516764,-0.11911003475543111
1783002450543344000,4.97234423828125,0.08278115906119346,-0.2522430053727701,-0.058825771521404384
1783002450553396000,4.98239599609375,0.033249358651041984,-0.1868253978382796,-0.03515519227236509
1783002450563448000,4.992447998046875,0.0442500606149435,-0.11144719024365767,-0.052882462544925506
1783002450573500000,5.0025,0.049203883630037304,-0.04524263358255848,-0.09451792021468282
1783002450583552000,5.012552001953125,-0.03259352509081363,-0.033296389830275434,-0.04194974778331816
1783002450593605000,5.022605224609375,-0.04452829303443431,-0.0717781190097332,0.06733111300561577
1783002450603657000,5.032656982421875,-0.06684066260755062,-0.07095002958856057,0.07488218597229569
1783002450613709000,5.042708984375,-0.06569792231321335,-0.05567406602483242,0.051731502411514516
1783002450623761000,5.052760986328125,-0.07688567128181457,-0.0477951036775019,0.03765066234990954
1783002450633813000,5.06281298828125,-0.1385620829939842,-0.0566909331834875,-0.005314911412447691
1783002450643864800,5.07286474609375,-0.20886545327603817,-0.06558949350267648,0.005622771785221994
1783002450653917200,5.082917236328125,-0.12731938896775244,-0.026992901205318047,0.0092230612995103
1783002450663969000,5.092968994140625,-0.13955986185967922,-0.02134161571166478,0.05857497509811073
1783002450674021000,5.103021240234375,-0.1955956373363733,-0.06147589330454357,0.07272281598132103
1783002450684074000,5.113073974609375,-0.11436229223906993,-0.0476828480752185,0.018858941183611748
1783002450694125800,5.123125732421875,-0.04575286639332771,-0.022204479618696496,0.009710990946926176
1783002450704178200,5.13317822265625,-0.04342120857536792,-0.05610856671826914,0.027031178255937992
1783002450714230000,5.14322998046875,-0.0401198289424181,-0.08458123988625593,-0.005069814077578485
1783002450724282000,5.1532822265625,-0.002658405554294586,-0.08705620603188872,-0.06262096255328506
1783002450734334000,5.163333984375,-0.055226212659478184,-0.14036510469480418,-0.06425400711521506
1783002450744386000,5.173385986328125,-0.13136603401005267,-0.16103853882132096,-0.061574997164309024
1783002450754438000,5.18343798828125,-0.13413316063582897,-0.16111576877599582,-0.04159994796495885
1783002450764490000,5.193489990234375,-0.1357008483439684,-0.16639770950060337,-0.0551473387369886
1783002450774542000,5.2035419921875,-0.12965864557027815,-0.1315019353494048,-0.05723908685185015
1783002450784595000,5.213594970703125,-0.08442892626821995,-0.10068460788456722,-0.03787332865726203
1783002450794647000,5.22364697265625,-0.055847559428215024,-0.05007111318493262,0.00300320040397346
1783002450804699000,5.233698974609375,-0.08688742533624172,-0.02417471111258492,0.00426068965177983
1783002450814751000,5.2437509765625,-0.13688625873625276,-0.024819329159054902,0.006085055534727871
1783002450824802800,5.253802734375,-0.10685177047848701,0.01652418722626753,-0.025594204255379734
1783002450834855200,5.263855224609375,-0.09431903664171695,0.012586025793431327,0.011643566444702446
1783002450844907000,5.273906982421875,-0.17301321865022182,-0.07225044922921806,0.038676753994636236
1783002450854959000,5.283958984375,-0.18831074102520942,-0.10112061554850078,0.027631445704028007
1783002450865011000,5.294010986328125,-0.08268471294939518,-0.08985633074496872,0.026815964602679012
1783002450875063800,5.304063720703125,-0.04968669871091842,-0.0795882447713986,0.034499833636172116
1783002450885116000,5.314115966796875,-0.057741410350799556,-0.07368503947644495,0.0961420873504132
1783002450895168000,5.32416796875,-0.04974398185610771,-0.045514481927035375,0.08837265892531722
1783002450905220000,5.33422021484375,-0.050668695485591886,0.019558029363676906,0.031184681206196545
1783002450915272000,5.34427197265625,-0.07666706009507179,0.017547776386654005,0.042729792245104904
1783002450925324000,5.354323974609375,-0.12497662523388862,-0.050535050035407765,0.07009560928288847
1783002450935376000,5.3643759765625,-0.1846376054704189,-0.08079699037349783,0.02624726133663207
1783002450945428000,5.374427978515625,-0.1454647019892931,-0.11182594216186553,-0.088734404909797
1783002450955479800,5.384479736328125,-0.08130231868028641,-0.15741397338230162,-0.156938610955514
1783002450965533000,5.394532958984375,-0.07901099287271499,-0.18288279769234358,-0.03211703015286475
1783002450975584500,5.40458447265625,-0.13289046709835528,-0.17512211882928386,0.032486192258819935
1783002450985636400,5.41463623046875,-0.12992927920520306,-0.11026435540094971,-0.029887992459163067
1783002450995688400,5.4246884765625,-0.057391281738877295,-0.025210095742042176,-0.1443717921860516
1783002451005740300,5.434740234375,-0.08063947085738181,-0.004467587567842565,-0.14615798148307949
1783002451015792400,5.44479248046875,-0.08335282146930693,-0.033293380455859,-0.057496970603056245
1783002451025844500,5.454844482421875,-0.02931143468022346,-0.01286323529961519,0.07746738015990703
1783002451035896600,5.464896484375,-0.04981353996098041,0.0001515829656738788,0.061111653968878084
1783002451045948400,5.474948486328125,-0.0911620339155197,-0.0032161125022917986,-0.07832659080512822
1783002451056000500,5.48500048828125,-0.07827507981359959,0.042692629439337174,-0.09638619830459355
1783002451066053400,5.495053466796875,-0.07545651526153087,0.0586170195749728,-0.02352623887490481
1783002451076105500,5.50510546875,-0.10791033962070941,0.04119954590394627,0.05466090692691505
1783002451086157600,5.515157470703125,-0.19256021516323088,-0.014276344367396086,0.051678128256462515
1783002451096209400,5.52520947265625,-0.12126432671248911,-0.03050225646656472,-0.04158975536450744
1783002451106261500,5.535261474609375,0.06796294463574885,0.008402812691498547,-0.0649064431419596
1783002451116313300,5.545313232421875,0.5312316135257482,0.06356677833630238,-0.07652955132052303
1783002451126365400,5.555365478515625,1.9826164167523384,0.4810961481340229,0.23626473419200628
1783002451136417300,5.565417236328125,-0.7359826172202825,0.3903375439202413,0.29402525110207495
1783002451146469600,5.5754697265625,-0.3042798839390278,-0.46794908179119227,0.11886449902914464
1783002451156522500,5.5855224609375,-0.36265725410580635,-0.351414706210047,-0.052710284315794706
1783002451166574600,5.59557470703125,-0.726753601104021,0.07032677855710498,-0.24168624778408557
1783002451176626400,5.60562646484375,-0.4526385538041591,-0.14220990144442766,-0.33503808336146174
1783002451186678500,5.615678466796875,-0.6390729795634746,-0.4011298638304695,-0.33156949393544344
1783002451196730400,5.62573046875,-0.735588064944744,-0.455239530082792,-0.33978414537739005
1783002451206782500,5.635782470703125,-0.6123112293660641,-0.4471059810530394,-0.399516400751844
1783002451216834600,5.64583447265625,-0.1485539001762867,-0.09299049145169555,-0.08698624606821685
1783002451226886400,5.655886474609375,0.3634340836971998,0.038917814475204794,0.15309022843167186
