time,seconds_elapsed,z,y,x
1783002445639163600,0.06816357421875,-1.0371246337890625,-0.06219482421875,-0.028900146484375
1783002445649215700,0.0782158203125,-1.0347137451171875,-0.0692901611328125,-0.040435791015625
1783002445659267600,0.088267578125,-1.02392578125,-0.07769775390625,-0.056854248046875
1783002445669319700,0.098319580078125,-1.016693115234375,-0.085662841796875,-0.0719146728515625
1783002445679371800,0.108371826171875,-1.0122528076171875,-0.0921478271484375,-0.06805419921875
1783002445689424600,0.118424560546875,-1.010772705078125,-0.0889739990234375,-0.058349609375
1783002445699476700,0.128476806640625,-0.99627685546875,-0.0746612548828125,-0.043426513671875
1783002445709528600,0.138528564453125,-0.99847412109375,-0.0616455078125,-0.0279693603515625
1783002445719580700,0.14858056640625,-1.0218658447265625,-0.06158447265625,-0.0307464599609375
1783002445729632500,0.158632568359375,-1.0487213134765625,-0.05859375,-0.0537261962890625
1783002445739684900,0.168684814453125,-1.065185546875,-0.0527801513671875,-0.0675811767578125
1783002445749736700,0.17873681640625,-1.0601654052734375,-0.060943603515625,-0.0612030029296875
1783002445759789800,0.188789794921875,-1.053253173828125,-0.06781005859375,-0.0535430908203125
1783002445769841700,0.198841552734375,-1.048675537109375,-0.0615692138671875,-0.0421142578125
1783002445779893800,0.208893798828125,-1.027923583984375,-0.0660858154296875,-0.0147857666015625
1783002445789945900,0.21894580078125,-1.009002685546875,-0.0730133056640625,-0.0159759521484375
1783002445799997700,0.228997802734375,-1.004669189453125,-0.0641021728515625,-0.043182373046875
1783002445810049800,0.2390498046875,-0.978759765625,-0.0506134033203125,-0.041473388671875
1783002445820102700,0.2491025390625,-0.9548187255859375,-0.044525146484375,-0.0113067626953125
1783002445830154800,0.25915478515625,-0.9608612060546875,-0.0489044189453125,0.0008544921875
1783002445840206600,0.26920654296875,-0.9646453857421875,-0.0580291748046875,-0.020660400390625
1783002445850259000,0.279259033203125,-0.97271728515625,-0.0610504150390625,-0.04217529296875
1783002445860310800,0.289310791015625,-0.974609375,-0.0601654052734375,-0.0423126220703125
1783002445870363000,0.29936279296875,-0.9717254638671875,-0.0637359619140625,-0.0433349609375
1783002445880414700,0.309414794921875,-0.981048583984375,-0.0628509521484375,-0.0532073974609375
1783002445890467600,0.319467529296875,-0.9846649169921875,-0.062652587890625,-0.052032470703125
1783002445900519700,0.329519775390625,-0.9951934814453125,-0.063720703125,-0.0362701416015625
1783002445910571800,0.33957177734375,-1.0007781982421875,-0.0683441162109375,-0.02276611328125
1783002445920623900,0.349623779296875,-1.006683349609375,-0.0706024169921875,-0.022216796875
1783002445930675700,0.35967578125,-1.0168609619140625,-0.0691986083984375,-0.0265960693359375
1783002445940727800,0.369727783203125,-1.0255889892578125,-0.0666656494140625,-0.0239715576171875
1783002445950780700,0.37978076171875,-1.033966064453125,-0.069122314453125,-0.0166015625
1783002445960833500,0.38983349609375,-1.0261993408203125,-0.0695343017578125,-0.0140380859375
1783002445970885600,0.3998857421875,-1.0179901123046875,-0.064697265625,-0.0151214599609375
1783002445980937500,0.4099375,-1.0093994140625,-0.05950927734375,-0.0109405517578125
1783002445990989600,0.419989501953125,-1.003326416015625,-0.0576629638671875,-0.0075836181640625
1783002446001041400,0.43004150390625,-1.0074005126953125,-0.0556488037109375,-0.01080322265625
1783002446011093500,0.440093505859375,-1.0080413818359375,-0.05517578125,-0.0121917724609375
1783002446021146600,0.450146728515625,-1.0058746337890625,-0.0496673583984375,-0.0107269287109375
1783002446031198500,0.460198486328125,-1.0099945068359375,-0.049652099609375,-0.01043701171875
1783002446041250600,0.47025048828125,-1.0131683349609375,-0.0553131103515625,-0.017486572265625
1783002446051302400,0.480302490234375,-1.0164794921875,-0.056243896484375,-0.02423095703125
1783002446061354500,0.4903544921875,-1.00738525390625,-0.057373046875,-0.0227813720703125
1783002446071406300,0.50040625,-1.003814697265625,-0.0617523193359375,-0.0247955322265625
1783002446081458700,0.510458740234375,-1.00396728515625,-0.0654449462890625,-0.034423828125
1783002446091511600,0.520511474609375,-0.9989471435546875,-0.0639495849609375,-0.044586181640625
1783002446101563400,0.5305634765625,-1.0008087158203125,-0.0667724609375,-0.0478057861328125
1783002446111615500,0.540615478515625,-1.0102386474609375,-0.0687713623046875,-0.04620361328125
1783002446121667300,0.550667236328125,-1.0074005126953125,-0.062896728515625,-0.0477447509765625
1783002446131719700,0.5607197265625,-0.9951934814453125,-0.059661865234375,-0.0468902587890625
1783002446141771500,0.570771484375,-1.0013885498046875,-0.060333251953125,-0.0468902587890625
1783002446151823600,0.58082373046875,-1.014129638671875,-0.060516357421875,-0.0411529541015625
1783002446161876500,0.59087646484375,-1.007049560546875,-0.064849853515625,-0.043731689453125
1783002446171928300,0.60092822265625,-1.010986328125,-0.0644683837890625,-0.052581787109375
1783002446181980400,0.61098046875,-1.022613525390625,-0.06280517578125,-0.0529937744140625
1783002446192032500,0.621032470703125,-1.014190673828125,-0.06256103515625,-0.04693603515625
1783002446202084600,0.631084716796875,-1.017852783203125,-0.0612640380859375,-0.0445098876953125
1783002446212136400,0.641136474609375,-1.0171661376953125,-0.0673828125,-0.04345703125
1783002446222189300,0.651189208984375,-1.00384521484375,-0.06964111328125,-0.04083251953125
1783002446232241400,0.661241455078125,-0.990142822265625,-0.0668182373046875,-0.0279083251953125
1783002446242293200,0.671293212890625,-0.9840850830078125,-0.06866455078125,-0.018829345703125
1783002446252345600,0.681345703125,-0.987579345703125,-0.0677947998046875,-0.0191497802734375
1783002446262397400,0.6913974609375,-0.98779296875,-0.0620880126953125,-0.0189361572265625
1783002446272449500,0.701449462890625,-0.992950439453125,-0.059844970703125,-0.0155181884765625
1783002446282501400,0.71150146484375,-1.0071563720703125,-0.0595703125,-0.0157470703125
1783002446292554500,0.721554443359375,-1.02081298828125,-0.0601348876953125,-0.0253143310546875
1783002446302606600,0.731606689453125,-1.022796630859375,-0.0626373291015625,-0.0273590087890625
1783002446312658400,0.741658447265625,-1.01373291015625,-0.070556640625,-0.0269317626953125
1783002446322710500,0.75171044921875,-1.0147552490234375,-0.0733642578125,-0.031890869140625
1783002446332762400,0.761762451171875,-1.015350341796875,-0.0783538818359375,-0.0449676513671875
1783002446342814500,0.771814453125,-1.022308349609375,-0.084442138671875,-0.0543212890625
1783002446352866300,0.7818662109375,-1.0174407958984375,-0.0786895751953125,-0.0547637939453125
1783002446362919700,0.791919677734375,-1.0076446533203125,-0.0735321044921875,-0.0498046875
1783002446372971500,0.801971435546875,-1.0069122314453125,-0.076934814453125,-0.045654296875
1783002446383023600,0.812023681640625,-1.010040283203125,-0.0796051025390625,-0.0453643798828125
1783002446393075500,0.822075439453125,-1.0052642822265625,-0.0790252685546875,-0.0428619384765625
1783002446403127600,0.83212744140625,-0.996856689453125,-0.0734405517578125,-0.042083740234375
1783002446413179400,0.842179443359375,-0.9837188720703125,-0.06732177734375,-0.0453033447265625
1783002446423231500,0.8522314453125,-0.976593017578125,-0.0645751953125,-0.04022216796875
1783002446433284600,0.86228466796875,-0.973175048828125,-0.0611572265625,-0.0311279296875
1783002446443336400,0.87233642578125,-0.984619140625,-0.0585174560546875,-0.0239715576171875
1783002446453388500,0.882388427734375,-0.9908447265625,-0.0544891357421875,-0.036529541015625
1783002446463440400,0.8924404296875,-0.9958038330078125,-0.0536651611328125,-0.0487060546875
1783002446473492500,0.902492431640625,-1.0031585693359375,-0.060333251953125,-0.053558349609375
1783002446483544600,0.912544677734375,-1.0077972412109375,-0.06597900390625,-0.050872802734375
1783002446493596700,0.9225966796875,-1.0201873779296875,-0.0660552978515625,-0.04315185546875
1783002446503649500,0.9326494140625,-1.0186920166015625,-0.069915771484375,-0.039764404296875
1783002446513701400,0.942701416015625,-1.017822265625,-0.0701904296875,-0.03302001953125
1783002446523753500,0.95275341796875,-1.021881103515625,-0.065673828125,-0.0306396484375
1783002446533805300,0.962805419921875,-1.013824462890625,-0.0574798583984375,-0.0354156494140625
1783002446543857700,0.972857666015625,-1.0149078369140625,-0.0537109375,-0.04376220703125
1783002446553909500,0.982909423828125,-1.0177001953125,-0.05792236328125,-0.0458984375
1783002446563961600,0.992961669921875,-1.0160980224609375,-0.06304931640625,-0.0460968017578125
1783002446574014500,1.003014404296875,-1.0136260986328125,-0.0709991455078125,-0.0518646240234375
1783002446584066300,1.01306640625,-1.011199951171875,-0.0811004638671875,-0.05743408203125
1783002446594118700,1.02311865234375,-1.0037078857421875,-0.08343505859375,-0.0504913330078125
1783002446604170500,1.03317041015625,-0.9945831298828125,-0.07708740234375,-0.046905517578125
1783002446614222600,1.04322265625,-0.9874267578125,-0.0691070556640625,-0.045318603515625
1783002446624274400,1.0532744140625,-0.988616943359375,-0.0661773681640625,-0.0430145263671875
1783002446634326500,1.063326416015625,-0.9912109375,-0.0639801025390625,-0.042236328125
1783002446644379400,1.07337939453125,-0.995697021484375,-0.063323974609375,-0.041168212890625
1783002446654431500,1.083431396484375,-0.9990386962890625,-0.063232421875,-0.0394439697265625
1783002446664483600,1.093483642578125,-0.9971160888671875,-0.0609283447265625,-0.035491943359375
1783002446674535400,1.103535400390625,-1.004150390625,-0.060821533203125,-0.03448486328125
1783002446684587500,1.11358740234375,-1.00762939453125,-0.0631103515625,-0.0379638671875
1783002446694639400,1.123639404296875,-1.0113677978515625,-0.060302734375,-0.036163330078125
1783002446704691500,1.13369140625,-1.0157318115234375,-0.0532684326171875,-0.0303192138671875
1783002446714744600,1.14374462890625,-1.0255279541015625,-0.0510101318359375,-0.0262451171875
1783002446724796400,1.15379638671875,-1.02783203125,-0.050750732421875,-0.02655029296875
1783002446734848500,1.1638486328125,-1.02764892578125,-0.0509796142578125,-0.02691650390625
1783002446744900400,1.173900390625,-1.0303497314453125,-0.054107666015625,-0.0296783447265625
1783002446754952400,1.183952392578125,-1.025482177734375,-0.0560760498046875,-0.033111572265625
1783002446765004300,1.19400439453125,-1.01593017578125,-0.0531158447265625,-0.035400390625
1783002446775056400,1.204056396484375,-1.0118865966796875,-0.05389404296875,-0.0411376953125
1783002446785109500,1.214109619140625,-1.0122222900390625,-0.060333251953125,-0.043365478515625
1783002446795161600,1.22416162109375,-0.99920654296875,-0.0649871826171875,-0.050323486328125
1783002446805213400,1.23421337890625,-0.9937744140625,-0.067718505859375,-0.049774169921875
1783002446815265500,1.244265625,-0.9969635009765625,-0.071685791015625,-0.0509490966796875
1783002446825317400,1.2543173828125,-0.9996795654296875,-0.070831298828125,-0.0455169677734375
1783002446835369500,1.264369384765625,-1.0027008056640625,-0.06646728515625,-0.0501556396484375
1783002446845421600,1.274421630859375,-1.0008697509765625,-0.0587310791015625,-0.0627899169921875
1783002446855474400,1.284474365234375,-1.0001678466796875,-0.057586669921875,-0.0556488037109375
1783002446865526500,1.294526611328125,-0.995941162109375,-0.05841064453125,-0.0498809814453125
1783002446875578400,1.304578369140625,-0.9942474365234375,-0.060821533203125,-0.05194091796875
1783002446885630500,1.31463037109375,-0.9946746826171875,-0.0613250732421875,-0.0494537353515625
1783002446895682600,1.3246826171875,-1.0021820068359375,-0.0625152587890625,-0.0521240234375
1783002446905734700,1.334734619140625,-1.0060272216796875,-0.0665283203125,-0.0545501708984375
1783002446915786500,1.344786376953125,-1.004058837890625,-0.0679168701171875,-0.0474853515625
1783002446925838600,1.354838623046875,-1.0120697021484375,-0.0681915283203125,-0.0457916259765625
1783002446935891500,1.364891357421875,-1.0141143798828125,-0.070953369140625,-0.0450439453125
1783002446945943600,1.374943603515625,-1.01434326171875,-0.06915283203125,-0.0482330322265625
1783002446955995600,1.38499560546875,-1.0081024169921875,-0.0605926513671875,-0.05084228515625
1783002446966046000,1.3950458984375,-0.9938812255859375,-0.055419921875,-0.0406646728515625
1783002446976097800,1.405097900390625,-0.9979705810546875,-0.051849365234375,-0.026031494140625
1783002446986150000,1.41514990234375,-1.00665283203125,-0.0477752685546875,-0.0270538330078125
1783002446996201700,1.42520166015625,-1.0041351318359375,-0.04656982421875,-0.031707763671875
1783002447006254800,1.4352548828125,-1.008697509765625,-0.0460357666015625,-0.0305023193359375
1783002447016307000,1.445306884765625,-1.014251708984375,-0.0484619140625,-0.03717041015625
1783002447026358800,1.45535888671875,-1.009735107421875,-0.0488739013671875,-0.0419769287109375
1783002447036411000,1.465410888671875,-1.0078125,-0.046600341796875,-0.0390472412109375
1783002447046462700,1.475462646484375,-1.0082550048828125,-0.049285888671875,-0.02874755859375
1783002447056514800,1.485514892578125,-1.00982666015625,-0.05010986328125,-0.0276031494140625
1783002447066567000,1.49556689453125,-1.001495361328125,-0.0464935302734375,-0.0393829345703125
1783002447076619800,1.505619873046875,-1.001708984375,-0.0480804443359375,-0.0472259521484375
1783002447086672000,1.515671875,-1.0083160400390625,-0.053192138671875,-0.037933349609375
1783002447096723700,1.5257236328125,-1.011810302734375,-0.0557098388671875,-0.035888671875
1783002447106775800,1.53577587890625,-1.0090179443359375,-0.063690185546875,-0.045928955078125
1783002447116828000,1.545827880859375,-1.0120086669921875,-0.071319580078125,-0.055999755859375
1783002447126880000,1.5558798828125,-1.0120391845703125,-0.0724639892578125,-0.04913330078125
1783002447136931800,1.565931884765625,-0.99761962890625,-0.0696258544921875,-0.0408782958984375
1783002447146984000,1.57598388671875,-0.9965057373046875,-0.062957763671875,-0.03985595703125
1783002447157036800,1.586036865234375,-1.0017242431640625,-0.058197021484375,-0.046600341796875
1783002447167088600,1.596088623046875,-0.99383544921875,-0.0513916015625,-0.053985595703125
1783002447177141000,1.60614111328125,-1.0005035400390625,-0.0491180419921875,-0.04351806640625
1783002447187192800,1.61619287109375,-1.0153961181640625,-0.0478973388671875,-0.0275726318359375
1783002447197245000,1.626244873046875,-1.0092315673828125,-0.046844482421875,-0.0260009765625
1783002447207296800,1.636296875,-1.0117034912109375,-0.04754638671875,-0.0363311767578125
1783002447217348900,1.646348876953125,-1.0218505859375,-0.0474395751953125,-0.048583984375
1783002447227401700,1.656401611328125,-1.00848388671875,-0.0508575439453125,-0.0465240478515625
1783002447237453800,1.666453857421875,-0.997100830078125,-0.049835205078125,-0.0351715087890625
1783002447247506000,1.676505859375,-0.993377685546875,-0.051300048828125,-0.030792236328125
1783002447257557800,1.686557861328125,-0.9928436279296875,-0.05328369140625,-0.03448486328125
1783002447267609900,1.69660986328125,-0.9934539794921875,-0.0536346435546875,-0.042877197265625
1783002447277661700,1.70666162109375,-0.999267578125,-0.0522003173828125,-0.04296875
1783002447287713800,1.7167138671875,-1.01776123046875,-0.05279541015625,-0.0454254150390625
1783002447297765600,1.726765625,-1.0253753662109375,-0.0565185546875,-0.0490875244140625
1783002447307819000,1.736819091796875,-1.030303955078125,-0.0579986572265625,-0.045928955078125
1783002447317870800,1.746870849609375,-1.034759521484375,-0.059661865234375,-0.047454833984375
1783002447327923000,1.7569228515625,-1.0280914306640625,-0.0623626708984375,-0.05401611328125
1783002447337974800,1.766974853515625,-1.0172882080078125,-0.0623779296875,-0.05584716796875
1783002447348027000,1.77702685546875,-1.0062713623046875,-0.0606842041015625,-0.04791259765625
1783002447358079000,1.787078857421875,-0.9897308349609375,-0.0582275390625,-0.044708251953125
1783002447368130800,1.797130859375,-0.9797515869140625,-0.052093505859375,-0.0364532470703125
1783002447378184000,1.807183837890625,-0.9901885986328125,-0.0478973388671875,-0.0261993408203125
1783002447388235800,1.81723583984375,-0.99090576171875,-0.0449981689453125,-0.029296875
1783002447398288000,1.827287841796875,-0.996978759765625,-0.043792724609375,-0.04290771484375
1783002447408339700,1.837339599609375,-1.01202392578125,-0.0448150634765625,-0.04144287109375
1783002447418392000,1.84739208984375,-1.015533447265625,-0.04443359375,-0.030548095703125
1783002447428444000,1.85744384765625,-1.007720947265625,-0.03948974609375,-0.0304718017578125
1783002447438496000,1.86749609375,-1.01007080078125,-0.038909912109375,-0.035736083984375
1783002447448547800,1.8775478515625,-1.0118408203125,-0.0432891845703125,-0.0368499755859375
1783002447458600700,1.8876005859375,-1.005859375,-0.0462188720703125,-0.037750244140625
1783002447468653000,1.897653076171875,-0.998382568359375,-0.0471038818359375,-0.0391998291015625
1783002447478705000,1.907704833984375,-1.012481689453125,-0.0500640869140625,-0.0488433837890625
1783002447488757000,1.917757080078125,-1.006134033203125,-0.048736572265625,-0.0475006103515625
1783002447498808800,1.927808837890625,-1.01507568359375,-0.048492431640625,-0.0509490966796875
1783002447508861000,1.93786083984375,-1.0271759033203125,-0.0540924072265625,-0.0540618896484375
1783002447518912800,1.947912841796875,-1.020721435546875,-0.057525634765625,-0.0552825927734375
1783002447528966000,1.9579658203125,-1.019134521484375,-0.06060791015625,-0.0525970458984375
1783002447539018000,1.96801806640625,-1.00860595703125,-0.06597900390625,-0.0465240478515625
1783002447549069800,1.97806982421875,-0.996185302734375,-0.0637359619140625,-0.0424957275390625
1783002447559122000,1.988121826171875,-0.9883880615234375,-0.05535888671875,-0.0425872802734375
1783002447569173800,1.998173828125,-0.9874420166015625,-0.04833984375,-0.04180908203125
1783002447579225900,2.008225830078125,-0.9850616455078125,-0.04205322265625,-0.03717041015625
1783002447589277700,2.018277587890625,-0.9877471923828125,-0.0382843017578125,-0.0288543701171875
1783002447599330000,2.028330078125,-1.0121612548828125,-0.0389404296875,-0.020477294921875
1783002447609383000,2.0383828125,-1.02447509765625,-0.036590576171875,-0.0176544189453125
1783002447619434800,2.048434814453125,-1.0255126953125,-0.0323944091796875,-0.0177764892578125
1783002447629486800,2.05848681640625,-1.034698486328125,-0.035552978515625,-0.022552490234375
1783002447639538700,2.06853857421875,-1.0258026123046875,-0.037261962890625,-0.0301971435546875
1783002447649591000,2.078591064453125,-1.0215301513671875,-0.0384368896484375,-0.027374267578125
1783002447659643000,2.088642822265625,-1.017303466796875,-0.04669189453125,-0.023956298828125
1783002447669695000,2.098695068359375,-1.0113983154296875,-0.0577545166015625,-0.0431060791015625
1783002447679746800,2.108746826171875,-1.010528564453125,-0.060302734375,-0.0416259765625
1783002447689799700,2.118799560546875,-1.00726318359375,-0.067138671875,-0.04412841796875
1783002447699851800,2.128851806640625,-0.99853515625,-0.06842041015625,-0.04547119140625
1783002447709904000,2.13890380859375,-0.9943389892578125,-0.0683441162109375,-0.056549072265625
1783002447719956000,2.1489560546875,-0.9936981201171875,-0.068878173828125,-0.060791015625
1783002447730007800,2.1590078125,-0.9900054931640625,-0.0678558349609375,-0.061676025390625
1783002447740060000,2.169059814453125,-0.9898223876953125,-0.064910888671875,-0.0550384521484375
1783002447750111700,2.17911181640625,-0.994720458984375,-0.0589447021484375,-0.0530853271484375
1783002447760163800,2.189163818359375,-1.0019073486328125,-0.0521240234375,-0.0526123046875
1783002447770217000,2.199217041015625,-1.01171875,-0.0540313720703125,-0.0465850830078125
1783002447780268800,2.209268798828125,-1.0138397216796875,-0.0537567138671875,-0.0614471435546875
1783002447790321000,2.21932080078125,-1.0038299560546875,-0.046905517578125,-0.0648345947265625
1783002447800372700,2.229372802734375,-1.0002899169921875,-0.0512847900390625,-0.0446624755859375
1783002447810424800,2.2394248046875,-0.9996337890625,-0.05670166015625,-0.0278472900390625
1783002447820476700,2.2494765625,-1.002655029296875,-0.0549163818359375,-0.0257720947265625
1783002447830528800,2.25952880859375,-1.0082550048828125,-0.04937744140625,-0.0283966064453125
1783002447840580900,2.269580810546875,-1.0081787109375,-0.0498199462890625,-0.0404052734375
1783002447850634000,2.279634033203125,-1.0148162841796875,-0.0510101318359375,-0.044952392578125
1783002447860685800,2.289685791015625,-1.0194244384765625,-0.053863525390625,-0.0316314697265625
1783002447870737700,2.299737548828125,-1.0059967041015625,-0.05303955078125,-0.02288818359375
1783002447880789800,2.309789794921875,-0.999298095703125,-0.0503692626953125,-0.0248870849609375
1783002447890841900,2.319841796875,-0.9963531494140625,-0.051971435546875,-0.0304107666015625
1783002447900894000,2.32989404296875,-0.99072265625,-0.05126953125,-0.029754638671875
1783002447910945800,2.33994580078125,-0.98675537109375,-0.0502471923828125,-0.02728271484375
1783002447920998000,2.349997802734375,-0.9967193603515625,-0.051177978515625,-0.023712158203125
1783002447931050800,2.36005078125,-1.004150390625,-0.05023193359375,-0.0290679931640625
1783002447941102800,2.370102783203125,-1.007904052734375,-0.048248291015625,-0.03607177734375
1783002447951155000,2.380155029296875,-1.0092010498046875,-0.0503692626953125,-0.0418243408203125
1783002447961207000,2.39020703125,-1.013092041015625,-0.0522613525390625,-0.048675537109375
1783002447971259600,2.400259765625,-1.009063720703125,-0.052459716796875,-0.0555419921875
1783002447981311500,2.4103115234375,-1.005584716796875,-0.054595947265625,-0.045501708984375
1783002447991363600,2.420363525390625,-1.00372314453125,-0.055755615234375,-0.0386199951171875
1783002448001415400,2.43041552734375,-0.9992828369140625,-0.048858642578125,-0.0422515869140625
1783002448011468300,2.44046826171875,-1.0026702880859375,-0.044403076171875,-0.04217529296875
1783002448021520400,2.450520263671875,-1.016357421875,-0.0451812744140625,-0.0362396240234375
1783002448031572500,2.460572509765625,-1.0232391357421875,-0.04541015625,-0.0330963134765625
1783002448041624600,2.47062451171875,-1.0211639404296875,-0.042694091796875,-0.0392608642578125
1783002448051676400,2.480676513671875,-1.0276947021484375,-0.0436859130859375,-0.0343780517578125
1783002448061728500,2.490728515625,-1.020904541015625,-0.0493927001953125,-0.02880859375
1783002448071780400,2.5007802734375,-1.0145721435546875,-0.0503997802734375,-0.0340576171875
1783002448081832400,2.51083251953125,-1.00787353515625,-0.0503997802734375,-0.0372161865234375
1783002448091885600,2.520885498046875,-0.99853515625,-0.05084228515625,-0.0298004150390625
1783002448101937400,2.5309375,-0.9879608154296875,-0.046844482421875,-0.034393310546875
1783002448111989500,2.540989501953125,-0.98486328125,-0.043304443359375,-0.042388916015625
1783002448122041300,2.551041259765625,-0.993133544921875,-0.0445556640625,-0.037628173828125
1783002448132093400,2.561093505859375,-0.999969482421875,-0.0493316650390625,-0.034698486328125
1783002448142145300,2.571145263671875,-1.01104736328125,-0.050933837890625,-0.045867919921875
1783002448152197400,2.581197265625,-1.0245819091796875,-0.0509185791015625,-0.0461578369140625
1783002448162249500,2.59124951171875,-1.026885986328125,-0.0527801513671875,-0.037445068359375
1783002448172302600,2.601302490234375,-1.028472900390625,-0.0539703369140625,-0.040069580078125
1783002448182354400,2.6113544921875,-1.024688720703125,-0.0530853271484375,-0.046661376953125
1783002448192406500,2.621406494140625,-1.0108642578125,-0.0518951416015625,-0.0447845458984375
1783002448202458400,2.631458251953125,-1.00323486328125,-0.0482330322265625,-0.0411834716796875
1783002448212510500,2.641510498046875,-0.9894256591796875,-0.043060302734375,-0.0431976318359375
1783002448222562600,2.6515625,-0.98675537109375,-0.0400238037109375,-0.0379486083984375
1783002448232614400,2.661614501953125,-0.999359130859375,-0.04156494140625,-0.0326385498046875
1783002448242666500,2.67166650390625,-1.0080108642578125,-0.0435333251953125,-0.0307159423828125
1783002448252719400,2.68171923828125,-1.014617919921875,-0.0402984619140625,-0.03778076171875
1783002448262771500,2.691771484375,-1.0182952880859375,-0.0350799560546875,-0.0529022216796875
1783002448272823600,2.701823486328125,-1.0152587890625,-0.0362396240234375,-0.0453948974609375
1783002448282875600,2.711875732421875,-1.010528564453125,-0.0422821044921875,-0.027801513671875
1783002448292927500,2.721927490234375,-1.007415771484375,-0.0452880859375,-0.036163330078125
1783002448302979600,2.7319794921875,-0.998138427734375,-0.0417633056640625,-0.041534423828125
1783002448313031400,2.742031494140625,-0.99078369140625,-0.03704833984375,-0.042999267578125
1783002448323083500,2.75208349609375,-0.9906768798828125,-0.040771484375,-0.032379150390625
1783002448333136600,2.76213671875,-1.0058441162109375,-0.0569915771484375,-0.02880859375
1783002448343188500,2.7721884765625,-1.0174713134765625,-0.0585784912109375,-0.0601043701171875
1783002448353240600,2.782240478515625,-0.99853515625,-0.0582122802734375,-0.0653839111328125
1783002448363292400,2.79229248046875,-1.0028076171875,-0.0672607421875,-0.0532379150390625
1783002448373344500,2.802344482421875,-1.015533447265625,-0.0735321044921875,-0.0452423095703125
1783002448383396400,2.812396240234375,-0.99090576171875,-0.0618133544921875,-0.0518341064453125
1783002448393448700,2.82244873046875,-0.974517822265625,-0.04522705078125,-0.055816650390625
1783002448403500500,2.83250048828125,-0.9840545654296875,-0.0323028564453125,-0.05987548828125
1783002448413552600,2.842552734375,-0.999725341796875,-0.0262451171875,-0.068511962890625
1783002448423605500,2.85260546875,-0.9921112060546875,-0.02081298828125,-0.061126708984375
1783002448433657300,2.8626572265625,-1.0033721923828125,-0.01776123046875,-0.030517578125
1783002448443709400,2.87270947265625,-1.0285491943359375,-0.02484130859375,-0.0259857177734375
1783002448453761500,2.882761474609375,-1.0299835205078125,-0.0304718017578125,-0.0443267822265625
1783002448463813600,2.892813720703125,-1.0325775146484375,-0.0302581787109375,-0.058380126953125
1783002448473865500,2.902865478515625,-1.03399658203125,-0.0352020263671875,-0.057159423828125
1783002448483917600,2.91291748046875,-1.0229949951171875,-0.0383148193359375,-0.0362396240234375
1783002448493969400,2.922969482421875,-1.00469970703125,-0.031646728515625,-0.021392822265625
1783002448504022300,2.933022216796875,-0.992279052734375,-0.0232086181640625,-0.0209808349609375
1783002448514074600,2.94307470703125,-0.9976806640625,-0.0214385986328125,-0.0259246826171875
1783002448524126500,2.95312646484375,-1.0170135498046875,-0.0240936279296875,-0.0186920166015625
1783002448534178600,2.963178466796875,-1.02606201171875,-0.0342559814453125,-0.0188751220703125
1783002448544230400,2.97323046875,-1.0290679931640625,-0.03851318359375,-0.0505828857421875
1783002448554282500,2.983282470703125,-1.037139892578125,-0.0386199951171875,-0.077606201171875
1783002448564334300,2.993334228515625,-1.030487060546875,-0.042449951171875,-0.07379150390625
1783002448574386400,3.003386474609375,-1.014068603515625,-0.040435791015625,-0.0532989501953125
1783002448584439600,3.013439453125,-0.998046875,-0.0365447998046875,-0.038238525390625
1783002448594491400,3.023491455078125,-0.98797607421875,-0.0345306396484375,-0.035919189453125
1783002448604543500,3.03354345703125,-0.98309326171875,-0.02960205078125,-0.0414276123046875
1783002448614595300,3.04359521484375,-0.977813720703125,-0.0274658203125,-0.0487823486328125
1783002448624647400,3.0536474609375,-0.989227294921875,-0.0222320556640625,-0.0435943603515625
1783002448634699500,3.063699462890625,-0.994659423828125,-0.0176544189453125,-0.038970947265625
1783002448644751600,3.073751708984375,-1.02239990234375,-0.0271148681640625,-0.0457305908203125
1783002448654803500,3.083803466796875,-1.03607177734375,-0.0413055419921875,-0.064300537109375
1783002448664856300,3.093856201171875,-1.028656005859375,-0.0374298095703125,-0.0681915283203125
1783002448674908400,3.103908447265625,-1.0234222412109375,-0.0379638671875,-0.0610198974609375
1783002448684960300,3.113960205078125,-1.013946533203125,-0.04736328125,-0.05487060546875
1783002448695012600,3.1240126953125,-1.0003509521484375,-0.0463714599609375,-0.047271728515625
1783002448705064400,3.134064453125,-0.9890899658203125,-0.0395355224609375,-0.0378265380859375
1783002448715116500,3.144116455078125,-0.9749908447265625,-0.0321807861328125,-0.0337982177734375
1783002448725168400,3.15416845703125,-0.9719390869140625,-0.0194091796875,-0.0332794189453125
1783002448735220500,3.164220458984375,-0.988433837890625,-0.01171875,-0.027557373046875
1783002448745273600,3.174273681640625,-1.008056640625,-0.0165863037109375,-0.018402099609375
1783002448755325400,3.184325439453125,-1.01385498046875,-0.0194854736328125,-0.025604248046875
1783002448765377500,3.19437744140625,-1.0155487060546875,-0.0258026123046875,-0.052337646484375
1783002448775429400,3.204429443359375,-1.022918701171875,-0.035491943359375,-0.0675201416015625
1783002448785481500,3.2144814453125,-1.022186279296875,-0.0458984375,-0.05560302734375
1783002448795533300,3.224533203125,-1.01690673828125,-0.0470733642578125,-0.0440826416015625
1783002448805585400,3.23458544921875,-1.0122528076171875,-0.0375518798828125,-0.04730224609375
1783002448815637500,3.244637451171875,-1.015625,-0.0322723388671875,-0.0500640869140625
1783002448825689600,3.254689697265625,-1.0106353759765625,-0.033294677734375,-0.0479736328125
1783002448835742500,3.264742431640625,-0.9989776611328125,-0.0297698974609375,-0.04876708984375
1783002448845794600,3.274794677734375,-0.9984130859375,-0.02392578125,-0.0481414794921875
1783002448855846400,3.284846435546875,-0.9994964599609375,-0.0286407470703125,-0.0442657470703125
1783002448865898500,3.2948984375,-0.9924774169921875,-0.027008056640625,-0.0431671142578125
1783002448875950600,3.30495068359375,-0.9870147705078125,-0.0207977294921875,-0.049957275390625
1783002448886002400,3.31500244140625,-0.98260498046875,-0.0209503173828125,-0.0543212890625
1783002448896054500,3.325054443359375,-0.9804534912109375,-0.0219573974609375,-0.0476837158203125
1783002448906106400,3.3351064453125,-0.982391357421875,-0.0205230712890625,-0.0438079833984375
1783002448916159500,3.345159423828125,-0.9953460693359375,-0.0164794921875,-0.0402374267578125
1783002448926211300,3.35521142578125,-1.0096893310546875,-0.015472412109375,-0.0429229736328125
1783002448936263700,3.365263671875,-1.0284881591796875,-0.0157012939453125,-0.04302978515625
1783002448946315500,3.3753154296875,-1.027496337890625,-0.020751953125,-0.0493011474609375
1783002448956367600,3.38536767578125,-1.0287017822265625,-0.0251617431640625,-0.0621490478515625
1783002448966419500,3.39541943359375,-1.0389251708984375,-0.0313720703125,-0.061767578125
1783002448976471600,3.405471435546875,-1.022216796875,-0.0339508056640625,-0.0634918212890625
1783002448986523400,3.4155234375,-1.0183563232421875,-0.0298004150390625,-0.058868408203125
1783002448996575500,3.425575439453125,-1.0047607421875,-0.0279541015625,-0.0620574951171875
1783002449006628600,3.435628662109375,-1.00030517578125,-0.0217437744140625,-0.0526885986328125
1783002449016680400,3.445680419921875,-1.0106048583984375,-0.0205078125,-0.04022216796875
1783002449026732500,3.455732666015625,-1.0115203857421875,-0.018218994140625,-0.04388427734375
1783002449036784400,3.465784423828125,-1.0179595947265625,-0.0128173828125,-0.04815673828125
1783002449046836500,3.47583642578125,-1.0219268798828125,-0.011016845703125,-0.049713134765625
1783002449056888600,3.485888671875,-1.0220947265625,-0.0130462646484375,-0.0460205078125
1783002449066940700,3.495940673828125,-1.01947021484375,-0.016326904296875,-0.0459442138671875
1783002449076992500,3.505992431640625,-1.0110015869140625,-0.0165557861328125,-0.0467681884765625
1783002449087045400,3.51604541015625,-0.996551513671875,-0.02001953125,-0.04425048828125
1783002449097097500,3.526097412109375,-0.99237060546875,-0.0205078125,-0.0562896728515625
1783002449107149300,3.5361494140625,-1.0018463134765625,-0.0223388671875,-0.0613555908203125
1783002449117201700,3.54620166015625,-0.9986114501953125,-0.0263671875,-0.0559234619140625
1783002449127253500,3.55625341796875,-0.998992919921875,-0.0209503173828125,-0.0540771484375
1783002449137305600,3.5663056640625,-1.0125732421875,-0.0198211669921875,-0.053131103515625
1783002449147357400,3.576357421875,-1.0206756591796875,-0.028289794921875,-0.0564727783203125
1783002449157409500,3.586409423828125,-1.0242156982421875,-0.0236053466796875,-0.0611724853515625
1783002449167462700,3.596462646484375,-1.0175628662109375,-0.0175018310546875,-0.059600830078125
1783002449177514500,3.606514404296875,-1.0074005126953125,-0.019439697265625,-0.05694580078125
1783002449187566600,3.616566650390625,-1.0051422119140625,-0.0201263427734375,-0.0619964599609375
1783002449197618400,3.626618408203125,-0.997161865234375,-0.017608642578125,-0.06103515625
1783002449207670500,3.63667041015625,-0.9855194091796875,-0.0148162841796875,-0.058441162109375
1783002449217722400,3.646722412109375,-0.9894256591796875,-0.01214599609375,-0.05712890625
1783002449227774500,3.6567744140625,-0.992584228515625,-0.0125885009765625,-0.0611572265625
1783002449237826600,3.66682666015625,-1.0022125244140625,-0.01898193359375,-0.060546875
1783002449247878700,3.676878662109375,-1.009033203125,-0.023468017578125,-0.0526580810546875
1783002449257931500,3.686931640625,-1.0158843994140625,-0.02838134765625,-0.0496826171875
1783002449267983400,3.6969833984375,-1.01531982421875,-0.0298919677734375,-0.059051513671875
1783002449278035500,3.707035400390625,-1.0247955322265625,-0.0291900634765625,-0.06060791015625
1783002449288087300,3.71708740234375,-1.01605224609375,-0.0307464599609375,-0.0576324462890625
1783002449298139600,3.7271396484375,-1.0110931396484375,-0.0258636474609375,-0.0565643310546875
1783002449308191500,3.73719140625,-1.008056640625,-0.0218353271484375,-0.0553436279296875
1783002449318243600,3.74724365234375,-0.9972076416015625,-0.0187225341796875,-0.055511474609375
1783002449328295400,3.75729541015625,-0.995635986328125,-0.0133819580078125,-0.046234130859375
1783002449338348300,3.767348388671875,-0.9965667724609375,-0.01239013671875,-0.0382080078125
1783002449348400600,3.777400634765625,-0.997222900390625,-0.010498046875,-0.0361785888671875
1783002449358452500,3.787452392578125,-1.003692626953125,-0.0068511962890625,-0.0401153564453125
1783002449368504600,3.797504638671875,-1.0110931396484375,-0.00732421875,-0.0369110107421875
1783002449378556400,3.807556396484375,-1.016845703125,-0.0088348388671875,-0.030853271484375
1783002449388608500,3.8176083984375,-1.0139007568359375,-0.004302978515625,-0.041351318359375
1783002449398660400,3.827660400390625,-1.007843017578125,-0.0040740966796875,-0.0500946044921875
1783002449408712400,3.83771240234375,-1.0115509033203125,-0.0139007568359375,-0.0540924072265625
1783002449418764500,3.8477646484375,-1.0110321044921875,-0.0246734619140625,-0.0558929443359375
1783002449428817400,3.8578173828125,-0.996246337890625,-0.0279083251953125,-0.05828857421875
1783002449438869500,3.867869384765625,-0.99053955078125,-0.032958984375,-0.0609130859375
1783002449448921300,3.87792138671875,-0.997222900390625,-0.0382080078125,-0.0651397705078125
1783002449458973400,3.887973388671875,-1.00518798828125,-0.0377044677734375,-0.068572998046875
1783002449469025300,3.898025390625,-1.0082855224609375,-0.0326385498046875,-0.0746917724609375
1783002449479077600,3.90807763671875,-1.00262451171875,-0.0243377685546875,-0.08135986328125
1783002449489129500,3.91812939453125,-1.0044708251953125,-0.0207672119140625,-0.0811767578125
1783002449499181600,3.928181640625,-1.0087432861328125,-0.02069091796875,-0.0732269287109375
1783002449509233400,3.9382333984375,-1.0045013427734375,-0.018768310546875,-0.0670623779296875
1783002449519286300,3.948286376953125,-1.0057525634765625,-0.01690673828125,-0.0683746337890625
1783002449529338400,3.95833837890625,-1.00177001953125,-0.0165863037109375,-0.0681610107421875
1783002449539390500,3.968390380859375,-1.0050048828125,-0.01422119140625,-0.056060791015625
1783002449549442600,3.978442626953125,-1.008270263671875,-0.01239013671875,-0.05108642578125
1783002449559494400,3.988494384765625,-1.0083465576171875,-0.00921630859375,-0.0483551025390625
1783002449569546500,3.99854638671875,-1.011962890625,-0.0087890625,-0.0469512939453125
1783002449579598300,4.008598388671875,-1.0132904052734375,-0.010009765625,-0.0455322265625
1783002449589650400,4.018650390625,-1.0068511962890625,-0.012939453125,-0.04425048828125
1783002449599703600,4.02870361328125,-1.0045928955078125,-0.0136871337890625,-0.047760009765625
1783002449609755400,4.03875537109375,-1.0037078857421875,-0.0157623291015625,-0.0517120361328125
1783002449619807500,4.048807373046875,-1.000579833984375,-0.0145721435546875,-0.0510101318359375
1783002449629859300,4.058859375,-1.003265380859375,-0.010711669921875,-0.05029296875
1783002449639911400,4.068911376953125,-1.0084075927734375,-0.0110626220703125,-0.0522613525390625
1783002449649963300,4.07896337890625,-1.0124359130859375,-0.00762939453125,-0.051116943359375
1783002449660015600,4.089015625,-1.0098876953125,-0.0054931640625,-0.0503692626953125
1783002449670067500,4.0990673828125,-1.0124359130859375,-0.0062408447265625,-0.0543670654296875
1783002449680119600,4.10911962890625,-1.0092315673828125,-0.0052032470703125,-0.0558319091796875
1783002449690172400,4.11917236328125,-1.004119873046875,-0.003662109375,-0.05633544921875
1783002449700224500,4.129224609375,-1.0013275146484375,-0.00469970703125,-0.06134033203125
1783002449710276400,4.1392763671875,-0.99444580078125,-0.0041656494140625,-0.0696868896484375
1783002449720328400,4.149328369140625,-0.99627685546875,-0.0030059814453125,-0.0679779052734375
1783002449730380500,4.159380615234375,-1.0036773681640625,-0.004058837890625,-0.061279296875
1783002449740432400,4.169432373046875,-1.0047607421875,-0.010345458984375,-0.0556182861328125
1783002449750484500,4.179484375,-1.01422119140625,-0.0141754150390625,-0.0598907470703125
1783002449760536300,4.189536376953125,-1.0231781005859375,-0.015869140625,-0.0645599365234375
1783002449770588400,4.19958837890625,-1.01763916015625,-0.01513671875,-0.0632781982421875
1783002449780641500,4.2096416015625,-1.021087646484375,-0.013885498046875,-0.0615692138671875
1783002449790693600,4.219693603515625,-1.0120697021484375,-0.01080322265625,-0.067779541015625
1783002449800745500,4.229745361328125,-1.0046844482421875,-0.0053253173828125,-0.0602569580078125
1783002449810797600,4.239797607421875,-1.0064697265625,-0.003997802734375,-0.0503692626953125
1783002449820849400,4.249849365234375,-1.0036773681640625,-0.0035858154296875,-0.0532379150390625
1783002449830901500,4.259901611328125,-1.009552001953125,-0.003570556640625,-0.0526885986328125
1783002449840953600,4.26995361328125,-1.017364501953125,-0.0030670166015625,-0.04986572265625
1783002449851005400,4.28000537109375,-1.0135345458984375,-0.0028839111328125,-0.0503082275390625
1783002449861057500,4.2900576171875,-1.006805419921875,-0.00115966796875,-0.053009033203125
1783002449871110400,4.3001103515625,-1.007659912109375,-0.00390625,-0.055145263671875
1783002449881162500,4.31016259765625,-1.0045928955078125,-0.006927490234375,-0.0545196533203125
1783002449891214300,4.32021435546875,-1.004425048828125,-0.00531005859375,-0.055633544921875
1783002449901266700,4.3302666015625,-1.005645751953125,-0.0038299560546875,-0.063446044921875
1783002449911318500,4.340318603515625,-1.011627197265625,-0.002716064453125,-0.061798095703125
1783002449921370600,4.35037060546875,-1.023162841796875,-0.0052337646484375,-0.0505523681640625
1783002449931422500,4.36042236328125,-1.0234832763671875,-0.00732421875,-0.051605224609375
1783002449941474600,4.370474609375,-1.02105712890625,-0.004119873046875,-0.057891845703125
1783002449951526400,4.3805263671875,-1.018402099609375,-0.0038299560546875,-0.063385009765625
1783002449961579500,4.39057958984375,-1.0115814208984375,-0.00457763671875,-0.0569000244140625
1783002449971632000,4.400632080078125,-1.006103515625,-0.0051422119140625,-0.05279541015625
1783002449981684000,4.41068408203125,-1.007415771484375,-0.000946044921875,-0.05096435546875
1783002449991735800,4.42073583984375,-1.0057525634765625,0.00067138671875,-0.0584716796875
1783002450001788000,4.430787841796875,-1.002960205078125,0.00390625,-0.069915771484375
1783002450011839700,4.44083984375,-1.00091552734375,0.006378173828125,-0.0704498291015625
1783002450021892000,4.45089208984375,-1.00323486328125,0.0016937255859375,-0.0491790771484375
1783002450031944000,4.46094384765625,-1.0015411376953125,0.0006561279296875,-0.04278564453125
1783002450041997000,4.4709970703125,-0.9952392578125,0.0038909912109375,-0.0551910400390625
1783002450052049000,4.481048828125,-1.0054779052734375,0.0081329345703125,-0.0575714111328125
1783002450062101000,4.49110107421875,-1.009307861328125,0.0120849609375,-0.0576629638671875
1783002450072153000,4.501153076171875,-1.0037078857421875,0.0178070068359375,-0.060882568359375
1783002450082205200,4.511205078125,-1.0065765380859375,0.015228271484375,-0.059051513671875
1783002450092257000,4.521257080078125,-1.0007781982421875,0.006744384765625,-0.0507965087890625
1783002450102308900,4.531308837890625,-1.0100250244140625,-0.001312255859375,-0.044403076171875
1783002450112361000,4.54136083984375,-1.0056915283203125,-0.0024871826171875,-0.049224853515625
1783002450122412800,4.551412841796875,-0.9912261962890625,0.0011749267578125,-0.0508270263671875
1783002450132466200,4.561466064453125,-1.0022125244140625,-0.000457763671875,-0.050689697265625
1783002450142518000,4.57151806640625,-1.0102996826171875,-0.009613037109375,-0.0526275634765625
1783002450152570000,4.581570068359375,-1.010467529296875,-0.01300048828125,-0.0552520751953125
1783002450162622000,4.5916220703125,-1.0093994140625,-0.0161590576171875,-0.0594482421875
1783002450172674000,4.601674072265625,-1.0085601806640625,-0.01513671875,-0.0572052001953125
1783002450182726000,4.611725830078125,-1.00958251953125,-0.0092010498046875,-0.052154541015625
1783002450192778000,4.621778076171875,-1.0075225830078125,-0.0026702880859375,-0.0510711669921875
1783002450202830000,4.631830078125,-1.0047454833984375,0.002593994140625,-0.053070068359375
1783002450212882000,4.6418818359375,-1.0032501220703125,0.00482177734375,-0.048919677734375
1783002450222935000,4.65193505859375,-1.00970458984375,0.0054779052734375,-0.04052734375
1783002450232987000,4.66198681640625,-1.006988525390625,0.0056915283203125,-0.0439453125
1783002450243039000,4.6720390625,-1.0050048828125,0.0060882568359375,-0.0496368408203125
1783002450253090800,4.6820908203125,-1.0124664306640625,0.0055084228515625,-0.0481719970703125
1783002450263143200,4.69214306640625,-1.01568603515625,0.00360107421875,-0.0532379150390625
1783002450273195000,4.702195068359375,-1.0162506103515625,0.0048065185546875,-0.0586090087890625
1783002450283247000,4.7122470703125,-1.0120086669921875,0.0035858154296875,-0.062103271484375
1783002450293299000,4.722298828125,-1.01025390625,-0.0027923583984375,-0.0581512451171875
1783002450303351000,4.73235107421875,-1.0015716552734375,-0.00714111328125,-0.0597991943359375
1783002450313404200,4.742404052734375,-0.9974212646484375,-0.0102996826171875,-0.0582733154296875
1783002450323456000,4.7524560546875,-1.0025482177734375,-0.014984130859375,-0.05621337890625
1783002450333508000,4.762508056640625,-1.0015411376953125,-0.0153045654296875,-0.0586700439453125
1783002450343560000,4.772559814453125,-0.99493408203125,-0.0095672607421875,-0.0643463134765625
1783002450353612000,4.782612060546875,-1.003021240234375,-0.01171875,-0.06134033203125
1783002450363664000,4.792663818359375,-1.007537841796875,-0.0150299072265625,-0.0537261962890625
1783002450373716000,4.802716064453125,-1.0033721923828125,-0.0132293701171875,-0.0561370849609375
1783002450383768000,4.81276806640625,-1.0066986083984375,-0.006805419921875,-0.0597076416015625
1783002450393820200,4.822820068359375,-1.0099945068359375,-0.003021240234375,-0.0561065673828125
1783002450403873000,4.832873046875,-1.0065460205078125,-0.003509521484375,-0.05963134765625
1783002450413924900,4.8429248046875,-1.0100250244140625,0.0005035400390625,-0.0621795654296875
1783002450423977000,4.85297705078125,-1.0088958740234375,0.0021820068359375,-0.0564727783203125
1783002450434028800,4.86302880859375,-1.0092926025390625,0.00335693359375,-0.0504302978515625
1783002450444081200,4.8730810546875,-1.014129638671875,0.00457763671875,-0.0567626953125
1783002450454133000,4.883133056640625,-1.0162811279296875,0.004364013671875,-0.055328369140625
1783002450464185000,4.89318505859375,-1.019805908203125,0.0073089599609375,-0.042816162109375
1783002450474237000,4.90323681640625,-1.024200439453125,0.0060272216796875,-0.0462493896484375
1783002450484289000,4.9132890625,-1.024261474609375,0.0018463134765625,-0.054473876953125
1783002450494342100,4.923342041015625,-1.017059326171875,-0.0056610107421875,-0.0648345947265625
1783002450504394000,4.93339404296875,-1.0103759765625,-0.0121612548828125,-0.0710906982421875
1783002450514446000,4.943446044921875,-1.0005950927734375,-0.01715087890625,-0.073577880859375
1783002450524498000,4.953497802734375,-0.9932403564453125,-0.0211639404296875,-0.070343017578125
1783002450534550000,4.963550048828125,-0.98968505859375,-0.0213775634765625,-0.0631103515625
1783002450544601900,4.973601806640625,-0.9938201904296875,-0.016021728515625,-0.0606842041015625
1783002450554654000,4.983654052734375,-0.9951019287109375,-0.00762939453125,-0.060882568359375
1783002450564706000,4.9937060546875,-0.99224853515625,-0.0008544921875,-0.0657501220703125
1783002450574758100,5.003758056640625,-0.999755859375,0.0032958984375,-0.0632781982421875
1783002450584811000,5.01381103515625,-1.002899169921875,0.0000457763671875,-0.0518035888671875
1783002450594862800,5.02386279296875,-1.0045623779296875,-0.0003662109375,-0.0479888916015625
1783002450604915000,5.0339150390625,-1.0052947998046875,0.0020599365234375,-0.0508880615234375
1783002450614966800,5.043966796875,-1.0056304931640625,0.0034332275390625,-0.051666259765625
1783002450625019100,5.05401904296875,-1.0101776123046875,0.004058837890625,-0.05633544921875
1783002450635071000,5.064071044921875,-1.0193939208984375,0.0026702880859375,-0.056793212890625
1783002450645123000,5.074123046875,-1.0136871337890625,0.005950927734375,-0.0561981201171875
1783002450655175000,5.0841748046875,-1.0107269287109375,0.0082550048828125,-0.052398681640625
1783002450665227000,5.09422705078125,-1.0179290771484375,0.003997802734375,-0.048828125
1783002450675278800,5.10427880859375,-1.012908935546875,0.0039825439453125,-0.0531005859375
1783002450685332000,5.11433203125,-1.0039520263671875,0.0075531005859375,-0.0555419921875
1783002450695384000,5.124384033203125,-1.0025787353515625,0.0053253173828125,-0.0536041259765625
1783002450705436000,5.134435791015625,-1.0030517578125,0.0015869140625,-0.05560302734375
1783002450715488000,5.144488037109375,-0.9991302490234375,0.0019073486328125,-0.061859130859375
1783002450725539800,5.154539794921875,-1.0017547607421875,-0.0029296875,-0.06365966796875
1783002450735592000,5.164592041015625,-1.010406494140625,-0.006134033203125,-0.0630645751953125
1783002450745644000,5.17464404296875,-1.01214599609375,-0.0060577392578125,-0.0613555908203125
1783002450755696000,5.184696044921875,-1.011688232421875,-0.0065765380859375,-0.061492919921875
1783002450765748000,5.194748046875,-1.0127105712890625,-0.0038909912109375,-0.0621337890625
1783002450775800800,5.20480078125,-1.0077667236328125,-0.00018310546875,-0.06097412109375
1783002450785853000,5.21485302734375,-1.0042724609375,0.004425048828125,-0.056396484375
1783002450795904800,5.22490478515625,-1.0060882568359375,0.0080413818359375,-0.0560150146484375
1783002450805957000,5.23495703125,-1.0114898681640625,0.007537841796875,-0.0552978515625
1783002450816009000,5.245009033203125,-1.0106658935546875,0.0101165771484375,-0.0586090087890625
1783002450826061000,5.25506103515625,-1.0074462890625,0.012054443359375,-0.0563201904296875
1783002450836113000,5.26511279296875,-1.0134124755859375,0.00396728515625,-0.052490234375
1783002450846165000,5.2751650390625,-1.0189361572265625,-0.0014190673828125,-0.0529632568359375
1783002450856216800,5.285216796875,-1.0095062255859375,-0.0004119873046875,-0.053466796875
1783002450866270000,5.29527001953125,-1.00335693359375,0.000732421875,-0.053619384765625
1783002450876322000,5.305322021484375,-1.004302978515625,0.00164794921875,-0.0485076904296875
1783002450886374000,5.315373779296875,-1.0038299560546875,0.00360107421875,-0.045989990234375
1783002450896426000,5.325426025390625,-1.0028228759765625,0.010345458984375,-0.0529022216796875
1783002450906477800,5.335477783203125,-1.0062713623046875,0.012725830078125,-0.053192138671875
1783002450916530000,5.345530029296875,-1.0082550048828125,0.0063018798828125,-0.0492706298828125
1783002450926581800,5.355581787109375,-1.0169525146484375,0.00225830078125,-0.052398681640625
1783002450936634000,5.365634033203125,-1.01458740234375,-0.000640869140625,-0.0617523193359375
1783002450946686000,5.37568603515625,-1.0077667236328125,-0.0058746337890625,-0.0729217529296875
1783002450956738000,5.385738037109375,-1.0057525634765625,-0.009979248046875,-0.0633392333984375
1783002450966790400,5.395790283203125,-1.0105438232421875,-0.010650634765625,-0.0531158447265625
1783002450976842500,5.405842529296875,-1.013092041015625,-0.0060272216796875,-0.0567626953125
1783002450986894300,5.415894287109375,-1.0054931640625,0.002685546875,-0.068389892578125
1783002450996946700,5.42594677734375,-1.0051727294921875,0.0074005126953125,-0.0709991455078125
1783002451006998500,5.43599853515625,-1.0081939697265625,0.0048828125,-0.064208984375
1783002451017050600,5.446050537109375,-1.002410888671875,0.0061492919921875,-0.0496063232421875
1783002451027102500,5.4561025390625,-1.001922607421875,0.0087432861328125,-0.0465087890625
1783002451037154600,5.466154541015625,-1.0073394775390625,0.0076751708984375,-0.0592193603515625
1783002451047206400,5.476206298828125,-1.0068359375,0.011383056640625,-0.06573486328125
1783002451057259500,5.486259521484375,-1.006011962890625,0.0136566162109375,-0.058624267578125
1783002451067311600,5.4963115234375,-1.0079498291015625,0.0122833251953125,-0.050262451171875
1783002451077363500,5.506363525390625,-1.0162353515625,0.007568359375,-0.0477142333984375
1783002451087415600,5.51641552734375,-1.0151824951171875,0.0040740966796875,-0.0550994873046875
1783002451097467400,5.52646728515625,-0.9944000244140625,0.0080413818359375,-0.0598297119140625
1783002451107519500,5.53651953125,-0.98382568359375,0.0087738037109375,-0.055938720703125
1783002451117571600,5.546571533203125,-0.7714691162109375,0.044525146484375,-0.029022216796875
1783002451127623700,5.556623779296875,-1.0261383056640625,0.0582275390625,-0.0120849609375
1783002451137675500,5.566675537109375,-1.055419921875,-0.0279541015625,-0.028350830078125
1783002451147727600,5.5767275390625,-1.01983642578125,-0.0465240478515625,-0.049224853515625
1783002451157780500,5.586780517578125,-1.0733642578125,0.005401611328125,-0.068603515625
1783002451167832300,5.596832275390625,-1.049346923828125,-0.000701904296875,-0.0818634033203125
1783002451177884700,5.606884765625,-1.0570220947265625,-0.029296875,-0.0815277099609375
1783002451187936500,5.6169365234375,-1.0748291015625,-0.0342254638671875,-0.07977294921875
1783002451197988600,5.626988525390625,-1.064727783203125,-0.0312347412109375,-0.0853271484375
1783002451208040400,5.63704052734375,-1.031524658203125,-0.0012054443359375,-0.0649261474609375
1783002451218092500,5.647092529296875,-0.96881103515625,0.0288543701171875,-0.032379150390625
1783002451228144400,5.657144287109375,-0.960052490234375,0.009857177734375,-0.0242767333984375
