time,seconds_elapsed,z,y,x
1783002445639163600,0.06816357421875,0.191200852394104,-0.148427814245224,-0.02845134772360325
1783002445649215700,0.0782158203125,0.1792728155851364,-0.09396430850028992,-0.00418329332023859
1783002445659267600,0.088267578125,0.15344122052192688,-0.042986348271369934,0.01733691245317459
1783002445669319700,0.098319580078125,0.1091214269399643,-0.017109211534261703,0.013259346596896648
1783002445679371800,0.108371826171875,0.05372687801718712,-0.0334588922560215,-0.005278118886053562
1783002445689424600,0.118424560546875,0.013464409857988358,-0.0766255334019661,-0.003174754325300455
1783002445699476700,0.128476806640625,-0.01768445409834385,-0.12559467554092407,0.021649634465575218
1783002445709528600,0.138528564453125,-0.026676084846258163,-0.15554244816303253,0.029037510976195335
1783002445719580700,0.14858056640625,-0.025019066408276558,-0.12570147216320038,0.008809736929833889
1783002445729632500,0.158632568359375,-0.03783765807747841,-0.01555472519248724,-0.03652339056134224
1783002445739684900,0.168684814453125,-0.059354402124881744,0.1593041718006134,-0.07126832008361816
1783002445749736700,0.17873681640625,-0.08422992378473282,0.3320535719394684,-0.08769922703504562
1783002445759789800,0.188789794921875,-0.08939512819051743,0.4264000356197357,-0.10112688690423965
1783002445769841700,0.198841552734375,-0.08950617909431458,0.4090748429298401,-0.08957435935735703
1783002445779893800,0.208893798828125,-0.08834051340818405,0.36729463934898376,-0.06083565205335617
1783002445789945900,0.21894580078125,-0.07256394624710083,0.3197963833808899,-0.04651637002825737
1783002445799997700,0.228997802734375,-0.04465881362557411,0.25841957330703735,-0.013999172486364841
1783002445810049800,0.2390498046875,-0.01611904799938202,0.17514625191688538,0.05402515083551407
1783002445820102700,0.2491025390625,-0.016655409708619118,0.05416816473007202,0.1355181485414505
1783002445830154800,0.25915478515625,-0.036132171750068665,-0.055150870233774185,0.17258988320827484
1783002445840206600,0.26920654296875,-0.041723210364580154,-0.10503534227609634,0.16492663323879242
1783002445850259000,0.279259033203125,-0.03952903300523758,-0.1256130486726761,0.12940645217895508
1783002445860310800,0.289310791015625,-0.03740862384438515,-0.09121593087911606,0.08350421488285065
1783002445870363000,0.29936279296875,-0.03734550625085831,-0.03375290334224701,0.010571683757007122
1783002445880414700,0.309414794921875,-0.031862858682870865,0.013258547522127628,-0.06055202707648277
1783002445890467600,0.319467529296875,-0.03431429713964462,0.019478093832731247,-0.10327339172363281
1783002445900519700,0.329519775390625,-0.0530560277402401,-0.018198978155851364,-0.10498420894145966
1783002445910571800,0.33957177734375,-0.0705958753824234,-0.03769118711352348,-0.06879504024982452
1783002445920623900,0.349623779296875,-0.07046884298324585,-0.043597277253866196,-0.035172369331121445
1783002445930675700,0.35967578125,-0.0638229176402092,-0.03543682023882866,-0.016040485352277756
1783002445940727800,0.369727783203125,-0.059112321585416794,-0.024527180939912796,-0.022877085953950882
1783002445950780700,0.37978076171875,-0.06244713068008423,0.011709386482834816,-0.04122307151556015
1783002445960833500,0.38983349609375,-0.054130345582962036,0.03766268864274025,-0.06456541270017624
1783002445970885600,0.3998857421875,-0.040711209177970886,0.03741714730858803,-0.07320524007081985
1783002445980937500,0.4099375,-0.029228458181023598,0.021523933857679367,-0.0644247978925705
1783002445990989600,0.419989501953125,-0.018940402194857597,-0.012648151256144047,-0.038035798817873
1783002446001041400,0.43004150390625,-0.01305375061929226,-0.04087313264608383,0.0026168220210820436
1783002446011093500,0.440093505859375,-0.0065343319438397884,-0.04230351373553276,0.04442765191197395
1783002446021146600,0.450146728515625,0.003947337158024311,-0.04090269282460213,0.07145421206951141
1783002446031198500,0.460198486328125,0.01787886582314968,-0.01732812449336052,0.067562535405159
1783002446041250600,0.47025048828125,0.03256779536604881,0.002380333375185728,0.03437688201665878
1783002446051302400,0.480302490234375,0.044496893882751465,0.010786068625748158,-0.0010841728653758764
1783002446061354500,0.4903544921875,0.04290592297911644,-0.0004996090428903699,-0.02365313097834587
1783002446071406300,0.50040625,0.038248587399721146,-0.016947291791439056,-0.01966851018369198
1783002446081458700,0.510458740234375,0.032578714191913605,-0.02839595451951027,-0.0002490055630914867
1783002446091511600,0.520511474609375,0.024350613355636597,-0.03309270739555359,0.017417872324585915
1783002446101563400,0.5305634765625,0.005001682788133621,-0.03973063454031944,0.019361447542905807
1783002446111615500,0.540615478515625,0.0008841694798320532,-0.06085482984781265,0.0327928327023983
1783002446121667300,0.550667236328125,-0.0004697816038969904,-0.0564504936337471,0.0620921328663826
1783002446131719700,0.5607197265625,-0.0034557178150862455,-0.04698428511619568,0.0775911957025528
1783002446141771500,0.570771484375,-0.013801832683384418,-0.07461724430322647,0.057069942355155945
1783002446151823600,0.58082373046875,-0.031448204070329666,-0.07430326193571091,0.0314045287668705
1783002446161876500,0.59087646484375,-0.053154297173023224,-0.021313278004527092,-0.0019917781464755535
1783002446171928300,0.60092822265625,-0.05475299432873726,0.006371346767991781,-0.02682788483798504
1783002446181980400,0.61098046875,-0.05914641171693802,0.034575287252664566,-0.015743808820843697
1783002446192032500,0.621032470703125,-0.05757434666156769,0.059427641332149506,0.014786935411393642
1783002446202084600,0.631084716796875,-0.0539628341794014,0.06933939456939697,0.03873461112380028
1783002446212136400,0.641136474609375,-0.05025331676006317,0.07961732894182205,0.04465961456298828
1783002446222189300,0.651189208984375,-0.04992947727441788,0.07752009481191635,0.035958800464868546
1783002446232241400,0.661241455078125,-0.061044979840517044,0.05432023108005524,0.00583711639046669
1783002446242293200,0.671293212890625,-0.07000012695789337,0.003835218260064721,-0.030343525111675262
1783002446252345600,0.681345703125,-0.06675399839878082,-0.05391969159245491,-0.04675232619047165
1783002446262397400,0.6913974609375,-0.0600670650601387,-0.0922982394695282,-0.02118757739663124
1783002446272449500,0.701449462890625,-0.044080641120672226,-0.10834325104951859,0.011288607493042946
1783002446282501400,0.71150146484375,-0.01858966238796711,-0.11304505914449692,0.04882053658366203
1783002446292554500,0.721554443359375,0.016281768679618835,-0.12081190198659897,0.08876315504312515
1783002446302606600,0.731606689453125,0.034811243414878845,-0.11288713663816452,0.13388189673423767
1783002446312658400,0.741658447265625,0.038358572870492935,-0.09475606679916382,0.1503218561410904
1783002446322710500,0.75171044921875,0.03977857157588005,-0.08353084325790405,0.13477885723114014
1783002446332762400,0.761762451171875,0.030181072652339935,-0.06586849689483643,0.09648366272449493
1783002446342814500,0.771814453125,0.004041879437863827,-0.037321537733078,0.07864154875278473
1783002446352866300,0.7818662109375,-0.03978309780359268,0.0025837989524006844,0.09656435251235962
1783002446362919700,0.791919677734375,-0.0733112320303917,0.03602724149823189,0.1111249253153801
1783002446372971500,0.801971435546875,-0.07779546082019806,0.0409969687461853,0.09678087383508682
1783002446383023600,0.812023681640625,-0.07152505218982697,0.02840474247932434,0.06672869622707367
1783002446393075500,0.822075439453125,-0.05520147085189819,0.020735638216137886,0.027512583881616592
1783002446403127600,0.83212744140625,-0.03933435678482056,0.02708541415631771,-0.021700501441955566
1783002446413179400,0.842179443359375,-0.032283104956150055,0.036069054156541824,-0.07032902538776398
1783002446423231500,0.8522314453125,-0.02858876809477806,0.028660940006375313,-0.11448929458856583
1783002446433284600,0.86228466796875,-0.022068817168474197,0.00035899411886930466,-0.14200080931186676
1783002446443336400,0.87233642578125,-0.023877369239926338,-0.02642308548092842,-0.12343964725732803
1783002446453388500,0.882388427734375,-0.020110594108700752,-0.02918531559407711,-0.06586609780788422
1783002446463440400,0.8924404296875,-0.009956227615475655,-0.01980033703148365,0.002005360322073102
1783002446473492500,0.902492431640625,-0.0004338289436418563,-0.016099607571959496,0.054543670266866684
1783002446483544600,0.912544677734375,-0.0046639940701425076,-0.027528297156095505,0.06509431451559067
1783002446493596700,0.9225966796875,-0.01438106968998909,-0.053648579865694046,0.04753156751394272
1783002446503649500,0.9326494140625,-0.021279988810420036,-0.06214166805148125,0.004457332659512758
1783002446513701400,0.942701416015625,-0.029347768053412437,-0.06922753900289536,-0.04824928939342499
1783002446523753500,0.95275341796875,-0.022710638120770454,-0.04640158638358116,-0.08441661298274994
1783002446533805300,0.962805419921875,-0.008756473660469055,0.0026021746452897787,-0.09653586149215698
1783002446543857700,0.972857666015625,0.010404970496892929,0.02792910300195217,-0.08001014590263367
1783002446553909500,0.982909423828125,0.018602978438138962,0.044020988047122955,-0.02835201285779476
1783002446563961600,0.992961669921875,0.006148706190288067,0.058343466371297836,0.02736957184970379
1783002446574014500,1.003014404296875,-0.00854555144906044,0.05036863312125206,0.05666540935635567
1783002446584066300,1.01306640625,-0.01949966512620449,0.032171253114938736,0.05306242033839226
1783002446594118700,1.02311865234375,-0.03198962286114693,0.010555971413850784,0.02099343203008175
1783002446604170500,1.03317041015625,-0.03880944848060608,-0.012539493851363659,-0.015745406970381737
1783002446614222600,1.04322265625,-0.039866454899311066,-0.026475815102458,-0.03678411245346069
1783002446624274400,1.0532744140625,-0.04201855510473251,-0.033013876527547836,-0.0556640625
1783002446634326500,1.063326416015625,-0.03650288283824921,-0.03277845308184624,-0.06397099047899246
1783002446644379400,1.07337939453125,-0.025549301877617836,-0.034500718116760254,-0.07178390771150589
1783002446654431500,1.083431396484375,-0.014859107322990894,-0.02317775785923004,-0.06751379370689392
1783002446664483600,1.093483642578125,-0.01998782344162464,-0.009380985051393509,-0.06258721649646759
1783002446674535400,1.103535400390625,-0.018686601892113686,-0.005075985100120306,-0.06848904490470886
1783002446684587500,1.11358740234375,-0.008175904862582684,-0.004310326185077429,-0.07534082978963852
1783002446694639400,1.123639404296875,-0.003963849041610956,-0.011402590200304985,-0.0706547275185585
1783002446704691500,1.13369140625,0.005407282151281834,-0.01678137667477131,-0.05727154389023781
1783002446714744600,1.14374462890625,0.014222611673176289,-0.03361628204584122,-0.03260667994618416
1783002446724796400,1.15379638671875,0.02251542918384075,-0.02520388923585415,-0.011212174780666828
1783002446734848500,1.1638486328125,0.03440884128212929,-0.015537414699792862,0.00649704784154892
1783002446744900400,1.173900390625,0.04711851105093956,-0.005575061310082674,0.017351293936371803
1783002446754952400,1.183952392578125,0.05901671573519707,0.018137458711862564,0.03213370218873024
1783002446765004300,1.19400439453125,0.06875509768724442,0.04499437287449837,0.045571211725473404
1783002446775056400,1.204056396484375,0.08067966252565384,0.043833766132593155,0.0608348548412323
1783002446785109500,1.214109619140625,0.07629583775997162,0.03931198641657829,0.07322867214679718
1783002446795161600,1.22416162109375,0.058932825922966,0.029623938724398613,0.08332285284996033
1783002446805213400,1.23421337890625,0.03966299071907997,-0.002293780678883195,0.08105490356683731
1783002446815265500,1.244265625,0.02167014218866825,-0.039263516664505005,0.07266701012849808
1783002446825317400,1.2543173828125,0.005364938173443079,-0.04242335632443428,0.053819555789232254
1783002446835369500,1.264369384765625,0.00688933115452528,-0.005858688149601221,0.026751985773444176
1783002446845421600,1.274421630859375,0.01512941811233759,0.03473800793290138,-0.005667473189532757
1783002446855474400,1.284474365234375,0.019050123170018196,0.0595240481197834,-0.03358139470219612
1783002446865526500,1.294526611328125,0.014271880500018597,0.062076687812805176,-0.05583663284778595
1783002446875578400,1.304578369140625,0.007721303030848503,0.04734940454363823,-0.0597514808177948
1783002446885630500,1.31463037109375,-0.006589991971850395,0.02845401130616665,-0.056546900421381
1783002446895682600,1.3246826171875,-0.023494407534599304,0.002722283359616995,-0.029622340574860573
1783002446905734700,1.334734619140625,-0.027894482016563416,-0.0017566210590302944,0.009969543665647507
1783002446915786500,1.344786376953125,-0.03219814971089363,-0.00433136522769928,0.03864779323339462
1783002446925838600,1.354838623046875,-0.04009176045656204,0.00253532943315804,0.03134780377149582
1783002446935891500,1.364891357421875,-0.04468784108757973,0.025597238913178444,-0.000303334032651037
1783002446945943600,1.374943603515625,-0.041787393391132355,0.04806846007704735,-0.04080042615532875
1783002446955995600,1.38499560546875,-0.041418012231588364,0.06443305313587189,-0.052385710179805756
1783002446966046000,1.3950458984375,-0.04079749807715416,0.0406733937561512,-0.039690688252449036
1783002446976097800,1.405097900390625,-0.04826793074607849,-0.007442736066877842,-0.02207707241177559
1783002446986150000,1.41514990234375,-0.0392182432115078,-0.04142307490110397,-0.0005150553770363331
1783002446996201700,1.42520166015625,-0.025957563892006874,-0.0414678156375885,0.012425243854522705
1783002447006254800,1.4352548828125,-0.011091000400483608,-0.025144236162304878,-0.0025803367607295513
1783002447016307000,1.445306884765625,0.0006165218073874712,0.01082867942750454,-0.03653563931584358
1783002447026358800,1.45535888671875,0.009633186273276806,0.039556730538606644,-0.06307990103960037
1783002447036411000,1.465410888671875,0.009189503267407417,0.04002411663532257,-0.07549821585416794
1783002447046462700,1.475462646484375,0.011829761788249016,0.007655522786080837,-0.06886961311101913
1783002447056514800,1.485514892578125,0.022307436913251877,-0.013373595662415028,-0.03615374490618706
1783002447066567000,1.49556689453125,0.030224481597542763,-0.01543648075312376,0.005988384131342173
1783002447076619800,1.505619873046875,0.0354330912232399,-0.01961684413254261,0.0385708287358284
1783002447086672000,1.515671875,0.024749821051955223,-0.022612368687987328,0.05173642933368683
1783002447096723700,1.5257236328125,0.016682839021086693,0.0002620550512801856,0.04276290908455849
1783002447106775800,1.53577587890625,0.015460182912647724,0.03778013586997986,-0.000690291344653815
1783002447116828000,1.545827880859375,0.008823851123452187,0.04312216863036156,-0.0505012571811676
1783002447126880000,1.5558798828125,-0.011380486190319061,0.036073848605155945,-0.07638078927993774
1783002447136931800,1.565931884765625,-0.02352423407137394,0.018637865781784058,-0.08240778744220734
1783002447146984000,1.57598388671875,-0.024882979691028595,-0.016472449526190758,-0.05456657335162163
1783002447157036800,1.586036865234375,-0.02532426454126835,-0.014153902418911457,-0.00626029260456562
1783002447167088600,1.596088623046875,-0.01774757169187069,-0.005872802808880806,0.039807599037885666
1783002447177141000,1.60614111328125,-0.021468007937073708,-0.030472422018647194,0.06196802854537964
1783002447187192800,1.61619287109375,-0.019299395382404327,-0.04301884025335312,0.06423144787549973
1783002447197245000,1.626244873046875,-0.013974937610328197,-0.0023363912478089333,0.04308488592505455
1783002447207296800,1.636296875,0.00612260727211833,0.03187191113829613,-0.016754744574427605
1783002447217348900,1.646348876953125,0.024525050073862076,0.06627462804317474,-0.07041610777378082
1783002447227401700,1.656401611328125,0.026067553088068962,0.07921119779348373,-0.08205252885818481
1783002447237453800,1.666453857421875,0.018759040161967278,0.04579012468457222,-0.06469803303480148
1783002447247506000,1.676505859375,0.0140758715569973,-0.013686783611774445,-0.030467627570033073
1783002447257557800,1.686557861328125,0.008623315952718258,-0.06842140108346939,0.00854501873254776
1783002447267609900,1.69660986328125,0.008294148370623589,-0.08331725746393204,0.03827787935733795
1783002447277661700,1.70666162109375,-0.001273257308639586,-0.08854930847883224,0.040950894355773926
1783002447287713800,1.7167138671875,-0.007760451175272465,-0.07303772866725922,0.0351950041949749
1783002447297765600,1.726765625,-0.008656338788568974,-0.03943076357245445,0.03405224159359932
1783002447307819000,1.736819091796875,-0.010134393349289894,0.005301821045577526,0.021973742172122
1783002447317870800,1.746870849609375,-0.01119113527238369,0.05632878467440605,0.000009321063771494664
1783002447327923000,1.7569228515625,-0.008916263468563557,0.10362652689218521,-0.01774570718407631
1783002447337974800,1.766974853515625,-0.012684103101491928,0.12363538891077042,-0.031498003751039505
1783002447348027000,1.77702685546875,-0.021949773654341698,0.10969080775976181,-0.026621757075190544
1783002447358079000,1.787078857421875,-0.023066703230142593,0.07059293985366821,-0.005218463949859142
1783002447368130800,1.797130859375,-0.027002856135368347,-0.005238703917711973,0.02166348323225975
1783002447378184000,1.807183837890625,-0.034024011343717575,-0.06685466319322586,0.043533362448215485
1783002447388235800,1.81723583984375,-0.03322906047105789,-0.0677630677819252,0.053113020956516266
1783002447398288000,1.827287841796875,-0.019475163891911507,-0.058106712996959686,0.039311185479164124
1783002447408339700,1.837339599609375,-0.013137905858457088,-0.043359991163015366,0.009073389694094658
1783002447418392000,1.84739208984375,-0.00404667342081666,-0.009973804466426373,-0.014719824306666851
1783002447428444000,1.85744384765625,0.0067601678892970085,0.021395036950707436,-0.03985100984573364
1783002447438496000,1.86749609375,0.02419987879693508,0.023149261251091957,-0.058521900326013565
1783002447448547800,1.8775478515625,0.03496597334742546,0.005694371182471514,-0.06461068242788315
1783002447458600700,1.8876005859375,0.03798360005021095,-0.0019475696608424187,-0.05939408391714096
1783002447468653000,1.897653076171875,0.037338584661483765,-0.029632726684212685,-0.04975477233529091
1783002447478705000,1.907704833984375,0.03221093490719795,-0.029649505391716957,-0.013711551204323769
1783002447488757000,1.917757080078125,0.024234499782323837,-0.007456052117049694,0.0361713208258152
1783002447498808800,1.927808837890625,0.014139787293970585,0.003632818115875125,0.07436797022819519
1783002447508861000,1.93786083984375,0.007017962168902159,0.03406502678990364,0.09266522526741028
1783002447518912800,1.947912841796875,-0.001202150946483016,0.05614875629544258,0.08954719454050064
1783002447528966000,1.9579658203125,-0.006755108013749123,0.051715657114982605,0.060328587889671326
1783002447539018000,1.96801806640625,-0.01737792417407036,0.039447806775569916,0.011842012405395508
1783002447549069800,1.97806982421875,-0.026573020964860916,0.02532133460044861,-0.03277206048369408
1783002447559122000,1.988121826171875,-0.032471124082803726,0.014840731397271156,-0.05748539790511131
1783002447569173800,1.998173828125,-0.03272439166903496,0.007159109693020582,-0.050104446709156036
1783002447579225900,2.008225830078125,-0.023503461852669716,0.006613161414861679,-0.013915282674133778
1783002447589277700,2.018277587890625,-0.016284696757793427,-0.01630999706685543,0.012687299400568008
1783002447599330000,2.028330078125,0.0012961605098098516,-0.04845727980136871,0.018820825964212418
1783002447609383000,2.0383828125,0.027091538533568382,-0.04066167399287224,0.012960273772478104
1783002447619434800,2.048434814453125,0.05402754992246628,-0.013769607990980148,-0.012660401873290539
1783002447629486800,2.05848681640625,0.07543137669563293,0.02780792862176895,-0.03550579771399498
1783002447639538700,2.06853857421875,0.08611118048429489,0.060383182018995285,-0.027355192229151726
1783002447649591000,2.078591064453125,0.0739637091755867,0.07031358033418655,0.02021871879696846
1783002447659643000,2.088642822265625,0.06958626955747604,0.07015857845544815,0.0768447145819664
1783002447669695000,2.098695068359375,0.06495849043130875,0.04758962243795395,0.11319419741630554
1783002447679746800,2.108746826171875,0.06006493419408798,0.02155376225709915,0.11930987983942032
1783002447689799700,2.118799560546875,0.05832429230213165,0.011566907167434692,0.10613522678613663
1783002447699851800,2.128851806640625,0.05120646208524704,0.015144597738981247,0.07117883861064911
1783002447709904000,2.13890380859375,0.0407804511487484,0.023577764630317688,0.02353728376328945
1783002447719956000,2.1489560546875,0.0215391144156456,0.02099156752228737,-0.016955547034740448
1783002447730007800,2.1590078125,-0.0017992316279560328,0.006354035809636116,-0.039679769426584244
1783002447740060000,2.169059814453125,-0.024219585582613945,-0.008868326433002949,-0.04458717629313469
1783002447750111700,2.17911181640625,-0.03170466795563698,-0.025533322244882584,-0.023854199796915054
1783002447760163800,2.189163818359375,-0.044491834938526154,-0.026259833946824074,-0.015683354809880257
1783002447770217000,2.199217041015625,-0.04047925025224686,0.006313023157417774,-0.01040656864643097
1783002447780268800,2.209268798828125,-0.03453214466571808,0.058338142931461334,0.0005107942852191627
1783002447790321000,2.21932080078125,-0.03387514129281044,0.07947192341089249,0.01203881949186325
1783002447800372700,2.229372802734375,-0.04544204846024513,0.04926581680774689,0.008496016263961792
1783002447810424800,2.2394248046875,-0.05479880049824715,-0.014758439734578133,0.0030652983114123344
1783002447820476700,2.2494765625,-0.05305656045675278,-0.06193820387125015,-0.005028314422816038
1783002447830528800,2.25952880859375,-0.04723462462425232,-0.042869701981544495,0.0041670482605695724
1783002447840580900,2.269580810546875,-0.03476996347308159,0.014503574930131435,0.0014759238110855222
1783002447850634000,2.279634033203125,-0.026457440108060837,0.03259949013590813,-0.009241169318556786
1783002447860685800,2.289685791015625,-0.020831245929002762,0.04229552671313286,-0.010519752278923988
1783002447870737700,2.299737548828125,-0.01667884550988674,0.04983573406934738,-0.021502895280718803
1783002447880789800,2.309789794921875,0.0011688614031299949,0.043014045804739,-0.030952589586377144
1783002447890841900,2.319841796875,0.011305118910968304,0.02431492693722248,-0.04243401065468788
1783002447900894000,2.32989404296875,0.015297463163733482,0.007580687757581472,-0.031078822910785675
1783002447910945800,2.33994580078125,0.009762615896761417,-0.025793779641389847,-0.017187243327498436
1783002447920998000,2.349997802734375,-0.0006969492533244193,-0.06005428358912468,-0.00800013542175293
1783002447931050800,2.36005078125,-0.0023212111555039883,-0.07443615049123764,-0.0017411747248843312
1783002447941102800,2.370102783203125,0.001614940818399191,-0.056001484394073486,0.00042876892257481813
1783002447951155000,2.380155029296875,0.0019347865600138903,-0.01588016375899315,-0.009838249534368515
1783002447961207000,2.39020703125,0.0014109427575021982,0.025645975023508072,-0.039377499371767044
1783002447971259600,2.400259765625,0.0012093414552509785,0.044206343591213226,-0.06415821611881256
1783002447981311500,2.4103115234375,-0.014451110735535622,0.03187590837478638,-0.07708998769521713
1783002447991363600,2.420363525390625,-0.025904834270477295,0.01842188462615013,-0.05739564821124077
1783002448001415400,2.43041552734375,-0.028959479182958603,0.0037907434161752462,-0.024047279730439186
1783002448011468300,2.44046826171875,-0.016024239361286163,-0.027105920016765594,0.018273279070854187
1783002448021520400,2.450520263671875,-0.010574080981314182,-0.0501427948474884,0.04857286065816879
1783002448031572500,2.460572509765625,-0.006115416996181011,-0.030111562460660934,0.05952750891447067
1783002448041624600,2.47062451171875,0.003305249148979783,-0.002027997048571706,0.052914079278707504
1783002448051676400,2.480676513671875,0.0019949739798903465,0.027418574318289757,0.028773058205842972
1783002448061728500,2.490728515625,0.0036828855518251657,0.0674179196357727,-0.00026551715563982725
1783002448071780400,2.5007802734375,0.018366489559412003,0.07153437286615372,-0.02871020883321762
1783002448081832400,2.51083251953125,0.03148974850773811,0.048703890293836594,-0.06337204575538635
1783002448091885600,2.520885498046875,0.03205673769116402,0.023096265271306038,-0.06700140237808228
1783002448101937400,2.5309375,0.03364531323313713,-0.0025947177782654762,-0.04897073656320572
1783002448111989500,2.540989501953125,0.0311624463647604,-0.034804318100214005,-0.008086422458291054
1783002448122041300,2.551041259765625,0.018021611496806145,-0.0584702342748642,0.03543868288397789
1783002448132093400,2.561093505859375,0.008177502080798149,-0.05813147872686386,0.057304300367832184
1783002448142145300,2.571145263671875,0.01251951977610588,-0.047029025852680206,0.05618710443377495
1783002448152197400,2.581197265625,0.00481313094496727,-0.029350964352488518,0.03760383278131485
1783002448162249500,2.59124951171875,0.003285275539383292,0.0035635759122669697,0.002567287301644683
1783002448172302600,2.601302490234375,0.00774793466553092,0.02888651005923748,-0.033494312316179276
1783002448182354400,2.6113544921875,0.018428808078169823,0.051175568252801895,-0.054174553602933884
1783002448192406500,2.621406494140625,0.023149527609348297,0.044978126883506775,-0.05143203213810921
1783002448202458400,2.631458251953125,0.018016284331679344,0.04055248573422432,-0.015445002354681492
1783002448212510500,2.641510498046875,0.009162605740129948,0.0274441409856081,0.034690868109464645
1783002448222562600,2.6515625,0.00011105381418019533,-0.018377674743533134,0.05074387043714523
1783002448232614400,2.661614501953125,-0.0054272557608783245,-0.07847243547439575,0.04241696372628212
1783002448242666500,2.67166650390625,-0.009880860336124897,-0.08559107035398483,0.012834572233259678
1783002448252719400,2.68171923828125,0.004516188520938158,-0.04595151171088219,-0.027654264122247696
1783002448262771500,2.691771484375,0.026041986420750618,0.010557303205132484,-0.050153449177742004
1783002448272823600,2.701823486328125,0.028053205460309982,0.026338929310441017,-0.05944521725177765
1783002448282875600,2.711875732421875,0.028620725497603416,0.03520645573735237,-0.08852560818195343
1783002448292927500,2.721927490234375,0.03690635412931442,0.007318366784602404,-0.10630380362272263
1783002448302979600,2.7319794921875,0.04451074078679085,-0.014852182939648628,-0.09063483029603958
1783002448313031400,2.742031494140625,0.030493194237351418,-0.044145889580249786,-0.042401254177093506
1783002448323083500,2.75208349609375,0.0023518374655395746,-0.03971012681722641,-0.007456851191818714
1783002448333136600,2.76213671875,0.0028458540327847004,-0.05107543617486954,0.013222328387200832
1783002448343188500,2.7721884765625,0.020384367555379868,-0.04565057530999184,0.04093758016824722
1783002448353240600,2.782240478515625,0.038003042340278625,-0.04286064952611923,0.06552601605653763
1783002448363292400,2.79229248046875,0.0433189794421196,-0.101877361536026,0.04415680840611458
1783002448373344500,2.802344482421875,0.026570091024041176,-0.13698741793632507,-0.0014780544443055987
1783002448383396400,2.812396240234375,-0.00646722037345171,-0.10258043557405472,-0.058582887053489685
1783002448393448700,2.82244873046875,-0.03489193692803383,-0.056712016463279724,-0.13405820727348328
1783002448403500500,2.83250048828125,-0.049921754747629166,-0.04210857301950455,-0.18765564262866974
1783002448413552600,2.842552734375,-0.06514864414930344,-0.021701034158468246,-0.17353610694408417
1783002448423605500,2.85260546875,-0.07959868758916855,-0.010102168656885624,-0.09480427205562592
1783002448433657300,2.8626572265625,-0.08345068246126175,-0.04133971780538559,-0.007078149355947971
1783002448443709400,2.87270947265625,-0.06807173043489456,-0.0519111342728138,0.05895839259028435
1783002448453761500,2.882761474609375,-0.04169232025742531,-0.011968245729804039,0.06692656874656677
1783002448463813600,2.892813720703125,-0.01251286268234253,0.030284669250249863,0.01913934014737606
1783002448473865500,2.902865478515625,0.002620816696435213,0.04113678261637688,-0.049556899815797806
1783002448483917600,2.91291748046875,0.0008844357798807323,0.03614921495318413,-0.090166375041008
1783002448493969400,2.922969482421875,-0.011320298537611961,0.01817873679101467,-0.09200768917798996
1783002448504022300,2.933022216796875,-0.017162209376692772,-0.007940481416881084,-0.06911302357912064
1783002448514074600,2.94307470703125,-0.017174193635582924,-0.07045019418001175,-0.028665199875831604
1783002448524126500,2.95312646484375,-0.015658587217330933,-0.114934042096138,0.01619867794215679
1783002448534178600,2.963178466796875,-0.005369731690734625,-0.0781797543168068,0.037641916424036026
1783002448544230400,2.97323046875,0.01757766120135784,0.017466075718402863,0.010083792731165886
1783002448554282500,2.983282470703125,0.03551911190152168,0.1190909668803215,-0.040286436676979065
1783002448564334300,2.993334228515625,0.03391801938414574,0.17951835691928864,-0.08239687234163284
1783002448574386400,3.003386474609375,0.011084608733654022,0.1771838366985321,-0.08370981365442276
1783002448584439600,3.013439453125,-0.010746387764811516,0.13087226450443268,-0.04013330489397049
1783002448594491400,3.023491455078125,-0.01414484716951847,0.05471757426857948,0.008126636035740376
1783002448604543500,3.03354345703125,0.0008317052270285785,-0.011655856855213642,0.04681650921702385
1783002448614595300,3.04359521484375,0.004462925251573324,-0.05799885466694832,0.06662909686565399
1783002448624647400,3.0536474609375,-0.014481204561889172,-0.08052466809749603,0.07641354948282242
1783002448634699500,3.063699462890625,-0.03891783952713013,-0.07045739144086838,0.061631940305233
1783002448644751600,3.073751708984375,-0.03200320526957512,-0.05133828893303871,0.03255714476108551
1783002448654803500,3.083803466796875,-0.0073804184794425964,0.013977601192891598,0.008213721215724945
1783002448664856300,3.093856201171875,-0.007492537144571543,0.0725807249546051,-0.008316786028444767
1783002448674908400,3.103908447265625,-0.020893031731247902,0.11407091468572617,-0.018066884949803352
1783002448684960300,3.113960205078125,-0.028115257620811462,0.11492898315191269,-0.027836957946419716
1783002448695012600,3.1240126953125,-0.03804592043161392,0.09247960150241852,-0.03401389345526695
1783002448705064400,3.134064453125,-0.0440412275493145,0.05000564455986023,-0.034098315984010696
1783002448715116500,3.144116455078125,-0.04345453158020973,0.01654515415430069,-0.0271285567432642
1783002448725168400,3.15416845703125,-0.028896629810333252,-0.04375014454126358,-0.019060509279370308
1783002448735220500,3.164220458984375,-0.012599415145814419,-0.11966781318187714,-0.018910573795437813
1783002448745273600,3.174273681640625,0.0004106594424229115,-0.14807841181755066,-0.01420290395617485
1783002448755325400,3.184325439453125,0.009975935332477093,-0.09361783415079117,-0.017349695786833763
1783002448765377500,3.19437744140625,0.022059496492147446,-0.004825115203857422,-0.04852013289928436
1783002448775429400,3.204429443359375,0.014878015965223312,0.05780923739075661,-0.07988790422677994
1783002448785481500,3.2144814453125,-0.004712729714810848,0.08032865822315216,-0.08128553628921509
1783002448795533300,3.224533203125,-0.028170118108391762,0.07302893698215485,-0.04059882462024689
1783002448805585400,3.23458544921875,-0.029474802315235138,0.024473916739225388,0.021139906719326973
1783002448815637500,3.244637451171875,-0.019235214218497276,-0.035835497081279755,0.08116995543241501
1783002448825689600,3.254689697265625,-0.00806165486574173,-0.058575961738824844,0.11565069854259491
1783002448835742500,3.264742431640625,-0.013044429011642933,-0.05415058508515358,0.10485770553350449
1783002448845794600,3.274794677734375,-0.01979980431497097,-0.054840344935655594,0.04534830525517464
1783002448855846400,3.284846435546875,-0.034025344997644424,-0.034207504242658615,-0.030413832515478134
1783002448865898500,3.2948984375,-0.039565518498420715,-0.006424077320843935,-0.1027894988656044
1783002448875950600,3.30495068359375,-0.023726368322968483,0.012468121014535427,-0.14161625504493713
1783002448886002400,3.31500244140625,-0.004350007511675358,0.001980859087780118,-0.15059004724025726
1783002448896054500,3.325054443359375,0.005858688149601221,-0.02484969049692154,-0.1296839565038681
1783002448906106400,3.3351064453125,0.001169394003227353,-0.07981786876916885,-0.11076699197292328
1783002448916159500,3.345159423828125,0.0017411747248843312,-0.13009275496006012,-0.08682224899530411
1783002448926211300,3.35521142578125,-0.0005733785801567137,-0.15913958847522736,-0.07642872631549835
1783002448936263700,3.365263671875,-0.007573231123387814,-0.13864628970623016,-0.06661871075630188
1783002448946315500,3.3753154296875,-0.00242134602740407,-0.06603920459747314,-0.05847902223467827
1783002448956367600,3.38536767578125,0.005881058517843485,-0.036855485290288925,-0.0688650831580162
1783002448966419500,3.39541943359375,0.010978348553180695,0.003997937310487032,-0.08558467775583267
1783002448976471600,3.405471435546875,0.008430236019194126,0.028789570555090904,-0.0893799439072609
1783002448986523400,3.4155234375,0.002805107505992055,0.04267848655581474,-0.0683915764093399
1783002448996575500,3.425575439453125,-0.011485414579510689,0.03978949040174484,-0.029763754457235336
1783002449006628600,3.435628662109375,-0.036724723875522614,-0.0067662931978702545,0.015673235058784485
1783002449016680400,3.445680419921875,-0.04655631631612778,-0.04761279374361038,0.06108465790748596
1783002449026732500,3.455732666015625,-0.03188229724764824,-0.05991073697805405,0.09090513736009598
1783002449036784400,3.465784423828125,-0.006422745529562235,-0.05062296241521835,0.10439058393239975
1783002449046836500,3.47583642578125,0.010654241777956486,-0.019508719444274902,0.08713410049676895
1783002449056888600,3.485888671875,0.021801967173814774,0.011149589903652668,0.053692255169153214
1783002449066940700,3.495940673828125,0.03159654140472412,0.03153262659907341,0.016892431303858757
1783002449076992500,3.505992431640625,0.03268364444375038,0.04451154172420502,-0.01269928365945816
1783002449087045400,3.51604541015625,0.022395852953195572,0.0653422549366951,-0.024381505325436592
1783002449097097500,3.526097412109375,0.009077650494873524,0.045585595071315765,-0.01503993570804596
1783002449107149300,3.5361494140625,0.005020591430366039,0.004683434963226318,0.032819464802742004
1783002449117201700,3.54620166015625,0.0037028591614216566,-0.023301061242818832,0.08062214404344559
1783002449127253500,3.55625341796875,-0.002180063631385565,-0.04748096689581871,0.09711270034313202
1783002449137305600,3.5663056640625,-0.0027896612882614136,-0.04988580197095871,0.07637307047843933
1783002449147357400,3.576357421875,0.008095743134617805,-0.024879783391952515,0.031190676614642143
1783002449157409500,3.586409423828125,0.009697102010250092,0.0065138256177306175,-0.006905843038111925
1783002449167462700,3.596462646484375,0.002283926820382476,0.04851453751325607,-0.029292374849319458
1783002449177514500,3.606514404296875,-0.00532632227987051,0.06426260620355606,-0.036564670503139496
1783002449187566600,3.616566650390625,0.0006024070316925645,0.03864007070660591,-0.038969770073890686
1783002449197618400,3.626618408203125,0.007888549007475376,0.01937849074602127,-0.023513315245509148
1783002449207670500,3.63667041015625,0.004868524614721537,-0.0027387947775423527,0.0018895127577707171
1783002449217722400,3.646722412109375,-0.009916014038026333,-0.008696818724274635,0.05236786603927612
1783002449227774500,3.6567744140625,-0.01660853810608387,-0.015693476423621178,0.10125524550676346
1783002449237826600,3.66682666015625,-0.017961423844099045,-0.02654346078634262,0.11417024582624435
1783002449247878700,3.676878662109375,-0.020675184205174446,-0.045395709574222565,0.09662400931119919
1783002449257931500,3.686931640625,-0.021498899906873703,-0.034866638481616974,0.06335420161485672
1783002449267983400,3.6969833984375,-0.022602779790759087,-0.020365193486213684,0.014506238512694836
1783002449278035500,3.707035400390625,-0.0229916013777256,0.007407050114125013,-0.026441460475325584
1783002449288087300,3.71708740234375,-0.018456771969795227,0.04574405401945114,-0.058513909578323364
1783002449298139600,3.7271396484375,-0.021336713805794716,0.06308043003082275,-0.07083955407142639
1783002449308191500,3.73719140625,-0.013019661419093609,0.07238258421421051,-0.05018700286746025
1783002449318243600,3.74724365234375,-0.013448962941765785,0.06226763501763344,-0.010036921128630638
1783002449328295400,3.75729541015625,-0.022227274253964424,0.03351455181837082,0.028317924588918686
1783002449338348300,3.767348388671875,-0.020966533571481705,0.0065460498444736,0.047019973397254944
1783002449348400600,3.777400634765625,0.0013305152533575892,-0.02064615674316883,0.04176901653409004
1783002449358452500,3.787452392578125,0.026982348412275314,-0.053353503346443176,0.01781095564365387
1783002449368504600,3.797504638671875,0.05078568309545517,-0.06859024614095688,-0.023270701989531517
1783002449378556400,3.807556396484375,0.08025462180376053,-0.06293795257806778,-0.045473210513591766
1783002449388608500,3.8176083984375,0.09815825521945953,-0.012593023478984833,-0.05090152844786644
1783002449398660400,3.827660400390625,0.10323318094015121,0.03893088921904564,-0.04405028373003006
1783002449408712400,3.83771240234375,0.10437807440757751,0.048114798963069916,-0.02959997020661831
1783002449418764500,3.8477646484375,0.0933629721403122,0.03087162971496582,-0.0013582120882347226
1783002449428817400,3.8578173828125,0.06925337016582489,0.00000852211542223813,0.03278804197907448
1783002449438869500,3.867869384765625,0.04545163735747337,-0.03831250220537186,0.03808160498738289
1783002449448921300,3.87792138671875,0.02485794574022293,-0.07501459121704102,0.006597449071705341
1783002449458973400,3.887973388671875,0.018557704985141754,-0.08925583958625793,-0.03593776002526283
1783002449469025300,3.898025390625,0.008881642483174801,-0.052895437926054,-0.06995564699172974
1783002449479077600,3.90807763671875,0.001136637176387012,0.012898754328489304,-0.08859644085168839
1783002449489129500,3.91812939453125,-0.0003281014505773783,0.03947550430893898,-0.08688803017139435
1783002449499181600,3.928181640625,-0.012101403437554836,0.04375360533595085,-0.07688678801059723
1783002449509233400,3.9382333984375,-0.02557593397796154,0.043295010924339294,-0.06475555896759033
1783002449519286300,3.948286376953125,-0.03466503694653511,0.04024169594049454,-0.05571253225207329
1783002449529338400,3.95833837890625,-0.03604428842663765,0.027217239141464233,-0.04710013419389725
1783002449539390500,3.968390380859375,-0.0380946546792984,0.0070461914874613285,-0.03192970156669617
1783002449549442600,3.978442626953125,-0.03255874291062355,-0.012837234884500504,-0.018265023827552795
1783002449559494400,3.988494384765625,-0.023310914635658264,-0.019102854654192924,-0.006632336415350437
1783002449569546500,3.99854638671875,-0.009427323937416077,-0.0223308727145195,-0.008510664105415344
1783002449579598300,4.008598388671875,-0.0014919028617441654,-0.010719755664467812,-0.023009978234767914
1783002449589650400,4.018650390625,0.0028567728586494923,0.000055660068028373644,-0.03596998378634453
1783002449599703600,4.02870361328125,0.0037151097785681486,-0.0018010957865044475,-0.04777337983250618
1783002449609755400,4.03875537109375,-0.0031459920573979616,-0.0019068233668804169,-0.04086620733141899
1783002449619807500,4.048807373046875,-0.007272826507687569,-0.0067966533824801445,-0.027112843468785286
1783002449629859300,4.058859375,-0.004858671221882105,-0.02317003346979618,-0.01817181333899498
1783002449639911400,4.068911376953125,0.010233196429908276,-0.03639502450823784,-0.01182097289711237
1783002449649963300,4.07896337890625,0.019240805879235268,-0.0338815338909626,-0.004472779110074043
1783002449660015600,4.089015625,0.021444305777549744,-0.013689979910850525,-0.010821222327649593
1783002449670067500,4.0990673828125,0.02197134494781494,0.004935902543365955,-0.02629605308175087
1783002449680119600,4.10911962890625,0.01756541058421135,0.025370070710778236,-0.042262233793735504
1783002449690172400,4.11917236328125,0.010124272666871548,0.03215154632925987,-0.05416203662753105
1783002449700224500,4.129224609375,0.012366387993097305,0.03664349764585495,-0.05571705847978592
1783002449710276400,4.1392763671875,0.019781161099672318,0.030614901334047318,-0.043305397033691406
1783002449720328400,4.149328369140625,0.019955065101385117,0.007498396094888449,-0.02522279880940914
1783002449730380500,4.159380615234375,0.010105364955961704,-0.014789066277444363,-0.0010439591715112329
1783002449740432400,4.169432373046875,-0.0010426276130601764,-0.015686018392443657,0.012286493554711342
1783002449750484500,4.179484375,-0.011630822904407978,-0.016636500135064125,-0.000589091214351356
1783002449760536300,4.189536376953125,-0.01763651706278324,-0.0020700751338154078,-0.03002181462943554
1783002449770588400,4.19958837890625,-0.025482457131147385,0.021106351166963577,-0.055693354457616806
1783002449780641500,4.2096416015625,-0.021869346499443054,0.03374331444501877,-0.06559951603412628
1783002449790693600,4.219693603515625,-0.01871989108622074,0.041085384786129,-0.041966360062360764
1783002449800745500,4.229745361328125,-0.02052231878042221,0.028624720871448517,-0.014478807337582111
1783002449810797600,4.239797607421875,-0.027308853343129158,0.01810949482023716,0.02087305672466755
1783002449820849400,4.249849365234375,-0.0280313678085804,0.019937755540013313,0.029586920514702797
1783002449830901500,4.259901611328125,-0.01998782344162464,0.011453190818428993,0.01426255889236927
1783002449840953600,4.26995361328125,-0.013129384256899357,0.0008921589469537139,-0.0013028184184804559
1783002449851005400,4.28000537109375,-0.006647516507655382,0.014327806420624256,-0.014723019674420357
1783002449861057500,4.2900576171875,-0.0025656893849372864,0.015920110046863556,-0.016948889940977097
1783002449871110400,4.3001103515625,-0.006225405260920525,0.005097024142742157,-0.02520735189318657
1783002449881162500,4.31016259765625,-0.009429454803466797,-0.009321330115199089,-0.025957830250263214
1783002449891214300,4.32021435546875,-0.017788849771022797,-0.016338227316737175,-0.009797769598662853
1783002449901266700,4.3302666015625,-0.021373199298977852,-0.0067686899565160275,0.01996918022632599
1783002449911318500,4.340318603515625,-0.025172730907797813,-0.0111647704616189,0.04278874397277832
1783002449921370600,4.35037060546875,-0.02592507377266884,-0.015748070552945137,0.05625874549150467
1783002449931422500,4.36042236328125,-0.02406831830739975,0.0009616674506105483,0.04573153704404831
1783002449941474600,4.370474609375,-0.014388793148100376,0.02557673305273056,0.027526699006557465
1783002449951526400,4.3805263671875,-0.017375795170664787,0.04145902767777443,0.006358829792588949
1783002449961579500,4.39057958984375,-0.02924576960504055,0.047442082315683365,-0.002944923471659422
1783002449971632000,4.400632080078125,-0.04385107755661011,0.03882409632205963,-0.000996554852463305
1783002449981684000,4.41068408203125,-0.056839581578969955,0.02726091630756855,0.00794181227684021
1783002449991735800,4.42073583984375,-0.05534235015511513,0.04215703904628754,0.017238907516002655
1783002450001788000,4.430787841796875,-0.05068634822964668,0.06731725484132767,0.023727966472506523
1783002450011839700,4.44083984375,-0.04694460704922676,0.04815554618835449,0.027030551806092262
1783002450021892000,4.45089208984375,-0.05534474924206734,0.0046935551799833775,0.009623332880437374
1783002450031944000,4.46094384765625,-0.05441423878073692,-0.028249748051166534,-0.010354103520512581
1783002450041997000,4.4709970703125,-0.04325825721025467,-0.04272136464715004,-0.03289616480469704
1783002450052049000,4.481048828125,-0.03885285556316376,-0.03617797791957855,-0.049975816160440445
1783002450062101000,4.49110107421875,-0.02780872769653797,0.008549812249839306,-0.04285851866006851
1783002450072153000,4.501153076171875,-0.014230068773031235,0.0389961339533329,-0.02858930081129074
1783002450082205200,4.511205078125,0.002029328839853406,0.03644669055938721,-0.010753843933343887
1783002450092257000,4.521257080078125,0.007250456139445305,0.012314989231526852,-0.028023112565279007
1783002450102308900,4.531308837890625,0.007832090370357037,-0.03468288108706474,-0.01908261515200138
1783002450112361000,4.54136083984375,0.0016162724932655692,-0.028303276747465134,0.015531822107732296
1783002450122412800,4.551412841796875,-0.006421946454793215,-0.01510012336075306,0.053333528339862823
1783002450132466200,4.561466064453125,-0.012924853712320328,-0.0200370904058218,0.0500117689371109
1783002450142518000,4.57151806640625,-0.01756700873374939,-0.028873194009065628,0.028124311938881874
1783002450152570000,4.581570068359375,-0.02407524175941944,-0.02046506106853485,-0.0057676080614328384
1783002450162622000,4.5916220703125,-0.02846519649028778,-0.013191701844334602,-0.034259434789419174
1783002450172674000,4.601674072265625,-0.034924693405628204,-0.008082693442702293,-0.045098502188920975
1783002450182726000,4.611725830078125,-0.037519942969083786,-0.002213353058323264,-0.03122076950967312
1783002450192778000,4.621778076171875,-0.03978895768523216,0.0024985778145492077,-0.013589312322437763
1783002450202830000,4.631830078125,-0.03665361925959587,0.0007997472421266139,0.012631372548639774
1783002450212882000,4.6418818359375,-0.02894296869635582,-0.01925492100417614,0.01865677535533905
1783002450222935000,4.65193505859375,-0.021734056994318962,-0.040939442813396454,0.013493704609572887
1783002450232987000,4.66198681640625,-0.022244319319725037,-0.03458274528384209,0.004790227860212326
1783002450243039000,4.6720390625,-0.0235841553658247,-0.022053636610507965,-0.006231530569493771
1783002450253090800,4.6820908203125,-0.021577730774879456,-0.010357033461332321,-0.01381088700145483
1783002450263143200,4.69214306640625,-0.010697651654481888,0.008580172434449196,-0.013398096896708012
1783002450273195000,4.702195068359375,0.011069429107010365,0.022416358813643456,-0.001618136651813984
1783002450283247000,4.7122470703125,0.023541279137134552,0.020785706117749214,0.02021525613963604
1783002450293299000,4.722298828125,0.015211976133286953,0.02010713331401348,0.04869616776704788
1783002450303351000,4.73235107421875,0.002429601736366749,0.02292768657207489,0.06084790453314781
1783002450313404200,4.742404052734375,-0.010486196726560593,0.006871754303574562,0.057310428470373154
1783002450323456000,4.7524560546875,-0.011683554388582706,-0.013671337626874447,0.03351987525820732
1783002450333508000,4.762508056640625,-0.013732856139540672,-0.0040765004232525826,0.015577894635498524
1783002450343560000,4.772559814453125,-0.011915248818695545,-0.002767557045444846,-0.011227354407310486
1783002450353612000,4.782612060546875,-0.022040586918592453,-0.01906423829495907,-0.03316674008965492
1783002450363664000,4.792663818359375,-0.028860144317150116,-0.014933675527572632,-0.05133908614516258
1783002450373716000,4.802716064453125,-0.033672742545604706,-0.0021204089280217886,-0.0688035637140274
1783002450383768000,4.81276806640625,-0.03688957542181015,0.008311193436384201,-0.06534731388092041
1783002450393820200,4.822820068359375,-0.03771115839481354,0.02207360975444317,-0.044984251260757446
1783002450403873000,4.832873046875,-0.027111245319247246,0.024710671976208687,-0.01792999729514122
1783002450413924900,4.8429248046875,-0.018911905586719513,0.009660882875323296,0.008779376745223999
1783002450423977000,4.85297705078125,-0.01937928982079029,-0.007705856580287218,0.03808320313692093
1783002450434028800,4.86302880859375,-0.0294971726834774,-0.019598735496401787,0.04892786219716072
1783002450444081200,4.8730810546875,-0.021501829847693443,-0.017117468640208244,0.0534517727792263
1783002450454133000,4.883133056640625,-0.014386129565536976,-0.017887653782963753,0.042028144001960754
1783002450464185000,4.89318505859375,-0.0044983453117311,-0.02263260819017887,0.02183685638010502
1783002450474237000,4.90323681640625,0.012064918875694275,-0.018988339230418205,0.009472331032156944
1783002450484289000,4.9132890625,0.02273727022111416,0.008925584144890308,0.0008620652370154858
1783002450494342100,4.923342041015625,0.037398237735033035,0.031011445447802544,-0.002174204681068659
1783002450504394000,4.93339404296875,0.031254325062036514,0.04764022305607796,0.00012756542128045112
1783002450514446000,4.943446044921875,0.005126052536070347,0.05456657335162163,0.007820372469723225
1783002450524498000,4.953497802734375,-0.015064969658851624,0.04061533510684967,0.021649900823831558
1783002450534550000,4.963550048828125,-0.03283464536070824,0.004975583869963884,0.02779914066195488
1783002450544601900,4.973601806640625,-0.04339940473437309,-0.024751419201493263,0.018188592046499252
1783002450554654000,4.983654052734375,-0.0386350117623806,-0.01942509599030018,-0.0009773800848051906
1783002450564706000,4.9937060546875,-0.03123488463461399,0.005248291417956352,-0.02713148668408394
1783002450574758100,5.003758056640625,-0.03567676991224289,0.020267188549041748,-0.03719264268875122
1783002450584811000,5.01381103515625,-0.042520031332969666,0.022582540288567543,-0.05295669287443161
1783002450594862800,5.02386279296875,-0.04375547170639038,0.01865890622138977,-0.06393876671791077
1783002450604915000,5.0339150390625,-0.04222628474235535,0.008145278319716454,-0.06812525540590286
1783002450614966800,5.043966796875,-0.030600786209106445,-0.00006817692337790504,-0.06383570283651352
1783002450625019100,5.05401904296875,-0.017258349806070328,-0.016175508499145508,-0.05355963110923767
1783002450635071000,5.064071044921875,-0.00999377854168415,-0.01906530372798443,-0.03523974493145943
1783002450645123000,5.074123046875,-0.0031915323343127966,-0.0007254450465552509,-0.003994208760559559
1783002450655175000,5.0841748046875,0.0016378440195694566,0.00884755328297615,0.013251356780529022
1783002450665227000,5.09422705078125,0.0052086105570197105,0.010957043617963791,0.004061587154865265
1783002450675278800,5.10427880859375,0.00950641930103302,0.02437245100736618,0.003850398352369666
1783002450685332000,5.11433203125,0.007768174633383751,0.0252800565212965,-0.0033039175905287266
1783002450695384000,5.124384033203125,0.008323709480464458,0.0041643851436674595,-0.006082393694669008
1783002450705436000,5.134435791015625,0.009212672710418701,-0.019108179956674576,-0.004870655480772257
1783002450715488000,5.144488037109375,0.008583101443946362,-0.01654621958732605,0.004065315239131451
1783002450725539800,5.154539794921875,0.0010074737947434187,-0.005887982901185751,0.00914289802312851
1783002450735592000,5.164592041015625,-0.006840062793344259,0.0024546354543417692,0.0026045716367661953
1783002450745644000,5.17464404296875,-0.015503858216106892,0.01810496859252453,-0.005486644338816404
1783002450755696000,5.184696044921875,-0.021168934181332588,0.021322865039110184,-0.011265704408288002
1783002450765748000,5.194748046875,-0.022057898342609406,0.01972789876163006,-0.01619548164308071
1783002450775800800,5.20480078125,-0.02365552820265293,0.01380955521017313,-0.006053365301340818
1783002450785853000,5.21485302734375,-0.026760241016745567,0.007537011988461018,0.003212837502360344
1783002450795904800,5.22490478515625,-0.03213796392083168,-0.004381432663649321,0.01173069141805172
1783002450805957000,5.23495703125,-0.02888384647667408,-0.011492871679365635,0.024566596373915672
1783002450816009000,5.245009033203125,-0.030297452583909035,0.009240370243787766,0.045574940741062164
1783002450826061000,5.25506103515625,-0.02534344047307968,0.021734323352575302,0.05445338785648346
1783002450836113000,5.26511279296875,-0.006683202926069498,0.006178800016641617,0.04199432209134102
1783002450846165000,5.2751650390625,-0.003972104750573635,-0.0041529336012899876,0.023849938064813614
1783002450856216800,5.285216796875,-0.0057614827528595924,0.0024639565963298082,0.005914081819355488
1783002450866270000,5.29527001953125,-0.008837433531880379,-0.00009986854274757206,-0.008069378323853016
1783002450876322000,5.305322021484375,-0.01022813655436039,-0.012021775357425213,-0.01721547171473503
1783002450886374000,5.315373779296875,-0.009463809430599213,-0.013525662012398243,-0.022516494616866112
1783002450896426000,5.325426025390625,0.00043223105603829026,-0.005044825840741396,-0.007195062469691038
1783002450906477800,5.335477783203125,0.010095510631799698,0.01224627997726202,-0.004261057823896408
1783002450916530000,5.345530029296875,0.021764418110251427,0.009643838740885258,0.0006074670236557722
1783002450926581800,5.355581787109375,0.027402596548199654,0.0035542547702789307,0.006045375484973192
1783002450936634000,5.365634033203125,0.01607191003859043,0.015905994921922684,0.024158332496881485
1783002450946686000,5.37568603515625,0.006968161091208458,0.016627712175250053,0.054244063794612885
1783002450956738000,5.385738037109375,-0.023370036855340004,0.0075668394565582275,0.0702320858836174
1783002450966790400,5.395790283203125,-0.041431330144405365,-0.00942306313663721,0.06862512975931168
1783002450976842500,5.405842529296875,-0.03688238561153412,0.004221909213811159,0.05495432764291763
1783002450986894300,5.415894287109375,-0.031010912731289864,0.04543086513876915,0.025463014841079712
1783002450996946700,5.42594677734375,-0.019001120701432228,0.05566832050681114,-0.012028699740767479
1783002451006998500,5.43599853515625,-0.01896117441356182,0.04094237461686134,-0.03359844163060188
1783002451017050600,5.446050537109375,-0.02810167521238327,0.018632806837558746,-0.03214408829808235
1783002451027102500,5.4561025390625,-0.03599368780851364,0.0073529877699911594,-0.021135378628969193
1783002451037154600,5.466154541015625,-0.02906866930425167,0.016703346744179726,0.007168963085860014
1783002451047206400,5.476206298828125,-0.02388775534927845,0.030001575127243996,0.03665415197610855
1783002451057259500,5.486259521484375,-0.015273494645953178,0.027779966592788696,0.04670092463493347
1783002451067311600,5.4963115234375,-0.0038072550669312477,0.012914999388158321,0.031244738027453423
1783002451077363500,5.506363525390625,0.005156146362423897,0.003043993143364787,0.012375709600746632
1783002451087415600,5.51641552734375,0.00899988692253828,0.04392378032207489,-0.004742290824651718
1783002451097467400,5.52646728515625,-0.009513343684375286,0.12931671738624573,-0.02972034551203251
1783002451107519500,5.53651953125,-0.06009822338819504,0.4327562153339386,0.08065010607242584
1783002451117571600,5.546571533203125,-0.15631955862045288,0.42087745666503906,0.1857115477323532
1783002451127623700,5.556623779296875,-0.1487543284893036,0.027108317241072655,0.15946662425994873
1783002451137675500,5.566675537109375,-0.029573604464530945,-0.137407124042511,0.14005005359649658
1783002451147727600,5.5767275390625,0.032946497201919556,-0.21227124333381653,0.05561079829931259
1783002451157780500,5.586780517578125,0.03840597718954086,-0.12838619947433472,-0.052807021886110306
1783002451167832300,5.596832275390625,0.04838217794895172,0.04891960695385933,-0.15963679552078247
1783002451177884700,5.606884765625,0.05938982218503952,0.11674978584051132,-0.26727885007858276
1783002451187936500,5.6169365234375,0.070636086165905,0.10696879029273987,-0.36400270462036133
1783002451197988600,5.626988525390625,0.07997819036245346,0.07785724848508835,-0.43674004077911377
1783002451208040400,5.63704052734375,0.04561968147754669,0.06407298892736435,-0.38692453503608704
1783002451218092500,5.647092529296875,0.024332502856850624,0.03473773971199989,-0.2533326745033264
1783002451228144400,5.657144287109375,0.009741577319800854,-0.016949422657489777,-0.07874993979930878
