time,seconds_elapsed,z,y,x
1783002445647957800,0.076957763671875,0.18695028126239777,-0.10414651781320572,-0.020655570551753044
1783002445658009900,0.087009765625,0.1606624722480774,-0.05252114310860634,0.006761672906577587
1783002445668061700,0.097061767578125,0.11947820335626602,-0.024843910709023476,0.010375895537436008
1783002445678113800,0.10711376953125,0.06470896303653717,-0.03162618353962898,-0.012518500909209251
1783002445688165600,0.11716552734375,0.02129119448363781,-0.0769968032836914,-0.01183654461055994
1783002445698218800,0.12721875,-0.007929008454084396,-0.12286043167114258,0.00943705253303051
1783002445708270800,0.137270751953125,-0.02214181236922741,-0.15898631513118744,0.022235427051782608
1783002445718322700,0.14732275390625,-0.019880788400769234,-0.1384837031364441,0.004976013675332069
1783002445728374800,0.157374755859375,-0.029775381088256836,-0.03782747685909271,-0.03857909515500069
1783002445738426600,0.167426513671875,-0.05165538191795349,0.1303602010011673,-0.07544603943824768
1783002445748478700,0.177478759765625,-0.07459264993667603,0.3087075650691986,-0.09302130341529846
1783002445758531800,0.18753173828125,-0.08363354951143265,0.4170606732368469,-0.11200804263353348
1783002445768583700,0.197583740234375,-0.08464260399341583,0.4122139513492584,-0.10114726424217224
1783002445778635800,0.2076357421875,-0.08343832194805145,0.365543395280838,-0.07019227743148804
1783002445788687600,0.2176875,-0.06989357620477676,0.3203047513961792,-0.05598536133766174
1783002445798739700,0.22773974609375,-0.043659307062625885,0.26341137290000916,-0.028021905571222305
1783002445808791600,0.23779150390625,-0.014007545076310635,0.18446606397628784,0.03811907023191452
1783002445818844000,0.247843994140625,-0.009719323366880417,0.06647711247205734,0.11850365996360779
1783002445828896800,0.257896728515625,-0.03087327629327774,-0.04659636691212654,0.1621934473514557
1783002445838948600,0.267948486328125,-0.037452347576618195,-0.10558351874351501,0.16027039289474487
1783002445849000700,0.278000732421875,-0.033616259694099426,-0.13077880442142487,0.12371169030666351
1783002445859052500,0.288052490234375,-0.029413262382149696,-0.10286461561918259,0.07862117886543274
1783002445869104600,0.298104736328125,-0.033669814467430115,-0.04211682826280594,0.012749087996780872
1783002445879156700,0.30815673828125,-0.025719746947288513,0.0038871504366397858,-0.06094403937458992
1783002445889209900,0.3182099609375,-0.027957819402217865,0.02011321857571602,-0.11098003387451172
1783002445899261700,0.32826171875,-0.045406587421894073,-0.01724693737924099,-0.11590102314949036
1783002445909313800,0.338313720703125,-0.06582416594028473,-0.04097263142466545,-0.08331934362649918
1783002445919365600,0.34836572265625,-0.07078296691179276,-0.047260887920856476,-0.04548062011599541
1783002445929417700,0.358417724609375,-0.06141277775168419,-0.039790086448192596,-0.024964388459920883
1783002445939469800,0.3684697265625,-0.05722229182720184,-0.02897418662905693,-0.03036847524344921
1783002445949521700,0.378521728515625,-0.05912771448493004,0.0002734051086008549,-0.046555884182453156
1783002445959574800,0.38857470703125,-0.05169909447431564,0.032816965132951736,-0.06854932755231857
1783002445969627400,0.39862744140625,-0.037038251757621765,0.036468446254730225,-0.0813375785946846
1783002445979679500,0.408679443359375,-0.028374988585710526,0.01929878070950508,-0.07612230628728867
1783002445989731600,0.418731689453125,-0.01475416962057352,-0.012556087225675583,-0.0476413331925869
1783002445999783400,0.428783447265625,-0.00584163423627615,-0.04347192496061325,-0.01224552746862173
1783002446009835500,0.43883544921875,-0.004201636649668217,-0.0459168516099453,0.03018326312303543
1783002446019888400,0.448888427734375,0.00781561154872179,-0.04472934827208519,0.05979042500257492
1783002446029940500,0.4589404296875,0.018970482051372528,-0.024418583139777184,0.06317426264286041
1783002446039992600,0.46899267578125,0.035551056265830994,-0.0037796185351908207,0.030514314770698547
1783002446050044400,0.47904443359375,0.04770374298095703,0.006307062692940235,-0.005985224153846502
1783002446060096500,0.489096435546875,0.047422513365745544,-0.001232612645253539,-0.030445026233792305
1783002446070148400,0.4991484375,0.043190132826566696,-0.018814269453287125,-0.027723604813218117
1783002446080200400,0.509200439453125,0.03834983706474304,-0.033684030175209045,-0.012871953658759594
1783002446090253600,0.519253662109375,0.029894927516579628,-0.03724195063114166,0.00816566962748766
1783002446100305700,0.5293056640625,0.013632334768772125,-0.040871307253837585,0.010179285891354084
1783002446110357500,0.539357421875,0.005803258158266544,-0.06315211206674576,0.02110975980758667
1783002446120409600,0.54940966796875,0.003977927379310131,-0.0627603605389595,0.0523475706577301
1783002446130461400,0.55946142578125,-0.0003576544113457203,-0.04949052631855011,0.0669533908367157
1783002446140513500,0.569513427734375,-0.005967070814222097,-0.07247493416070938,0.05180293321609497
1783002446150565400,0.5795654296875,-0.024215618148446083,-0.07941863685846329,0.025946512818336487
1783002446160618500,0.589618408203125,-0.04663969948887825,-0.03298749029636383,-0.00615017069503665
1783002446170670600,0.599670654296875,-0.04940051585435867,-0.0010101771913468838,-0.03327237814664841
1783002446180722400,0.609722412109375,-0.054281558841466904,0.02781108394265175,-0.025093812495470047
1783002446190774500,0.6197744140625,-0.054025039076805115,0.05300188437104225,0.003034500405192375
1783002446200826400,0.629826416015625,-0.049392469227313995,0.06343667954206467,0.027266070246696472
1783002446210878500,0.63987841796875,-0.04677335545420647,0.07587805390357971,0.0343933179974556
1783002446220931600,0.649931640625,-0.045629795640707016,0.07320290803909302,0.029804160818457603
1783002446230983400,0.6599833984375,-0.05316167324781418,0.057612162083387375,0.0044358279556035995
1783002446241035500,0.670035400390625,-0.06443484127521515,0.006062686908990145,-0.033383455127477646
1783002446251087400,0.68008740234375,-0.060862403362989426,-0.05106416717171669,-0.054206330329179764
1783002446261139500,0.690139404296875,-0.05686446651816368,-0.09215221554040909,-0.03474608063697815
1783002446271191300,0.70019140625,-0.04289110377430916,-0.1108272448182106,0.0017923284322023392
1783002446281243600,0.71024365234375,-0.018081627786159515,-0.11562839150428772,0.03428555652499199
1783002446291295500,0.72029541015625,0.0169119480997324,-0.1251383274793625,0.07399649918079376
1783002446301348400,0.730348388671875,0.03706435486674309,-0.11724179238080978,0.12157679349184036
1783002446311400400,0.740400390625,0.043840330094099045,-0.10109259188175201,0.14241603016853333
1783002446321452300,0.750452392578125,0.047802314162254333,-0.09122984111309052,0.130489319562912
1783002446331504600,0.760504638671875,0.03891851752996445,-0.07270273566246033,0.09239906072616577
1783002446341556500,0.770556396484375,0.012151617556810379,-0.04692946746945381,0.0694415494799614
1783002446351608600,0.780608642578125,-0.028525525704026222,-0.0055308109149336815,0.08256591856479645
1783002446361661400,0.790661376953125,-0.06418897956609726,0.026803160086274147,0.10232257843017578
1783002446371713300,0.80071337890625,-0.07311128079891205,0.03577375039458275,0.09088649600744247
1783002446381765400,0.810765380859375,-0.0669814795255661,0.025720585137605667,0.06432679295539856
1783002446391817500,0.8208173828125,-0.05221265181899071,0.01725212298333645,0.023743174970149994
1783002446401869600,0.83086962890625,-0.039376214146614075,0.021930230781435966,-0.022606749087572098
1783002446411921400,0.84092138671875,-0.028452293947339058,0.031094513833522797,-0.07294502854347229
1783002446421973500,0.850973388671875,-0.023819459602236748,0.026505623012781143,-0.11698998510837555
1783002446432026400,0.8610263671875,-0.017595728859305382,0.002500811591744423,-0.148381769657135
1783002446442078500,0.871078369140625,-0.019777124747633934,-0.031608689576387405,-0.13691551983356476
1783002446452130600,0.881130615234375,-0.01540357805788517,-0.031108424067497253,-0.08066380023956299
1783002446462182400,0.891182373046875,-0.005158663261681795,-0.025685962289571762,-0.010996839962899685
1783002446472234500,0.901234375,0.0008679567836225033,-0.019410409033298492,0.04430893436074257
1783002446482286300,0.911286376953125,-0.0005557690747082233,-0.029165834188461304,0.058119021356105804
1783002446492338400,0.92133837890625,-0.010193027555942535,-0.05498059093952179,0.041833922266960144
1783002446502391600,0.9313916015625,-0.01586742326617241,-0.06684763729572296,0.00032855477184057236
1783002446512443600,0.941443603515625,-0.024917909875512123,-0.073140949010849,-0.05150348320603371
1783002446522495500,0.95149560546875,-0.0196634940803051,-0.05475848540663719,-0.08553122729063034
1783002446532547600,0.961547607421875,-0.005049596074968576,-0.007185022812336683,-0.10594477504491806
1783002446542599400,0.971599365234375,0.013576818630099297,0.022294573485851288,-0.09266918152570724
1783002446552651500,0.981651611328125,0.021466966718435287,0.03748364374041557,-0.044124286621809006
1783002446562703400,0.991703369140625,0.01311982050538063,0.05492548272013664,0.01386258564889431
1783002446572756500,1.001756591796875,-0.0020872591994702816,0.048085011541843414,0.0478723905980587
1783002446582808600,1.01180859375,-0.015192940831184387,0.030024254694581032,0.04532747343182564
1783002446592860400,1.0218603515625,-0.02605600841343403,0.011047326028347015,0.015483232215046883
1783002446602912500,1.03191259765625,-0.0335213840007782,-0.012024970725178719,-0.01865875907242298
1783002446612964400,1.04196435546875,-0.03559114784002304,-0.031342845410108566,-0.04088541865348816
1783002446623016400,1.052016357421875,-0.035010043531656265,-0.037412989884614944,-0.062392570078372955
1783002446633068500,1.062068603515625,-0.03503920137882233,-0.035806939005851746,-0.0700681060552597
1783002446643121400,1.072121337890625,-0.021687977015972137,-0.039301805198192596,-0.08109679073095322
1783002446653173500,1.082173583984375,-0.009509257040917873,-0.029134182259440422,-0.07809998095035553
1783002446663225300,1.092225341796875,-0.015197236090898514,-0.015021292492747307,-0.07083088159561157
1783002446673277400,1.10227734375,-0.015611433424055576,-0.008005072362720966,-0.0751444399356842
1783002446683329500,1.11232958984375,-0.00259203789755702,-0.007709461264312267,-0.08302872627973557
1783002446693381600,1.122381591796875,-0.0003809039480984211,-0.012677587568759918,-0.08302905410528183
1783002446703433500,1.13243359375,0.008384091779589653,-0.02069290354847908,-0.06987516582012177
1783002446713486300,1.142486328125,0.017821863293647766,-0.035827361047267914,-0.0462479442358017
1783002446723538400,1.152538330078125,0.026711761951446533,-0.033074986189603806,-0.019892506301403046
1783002446733590300,1.16259033203125,0.03619607910513878,-0.019331475719809532,-0.0007070931605994701
1783002446743642600,1.172642578125,0.051634155213832855,-0.010256221517920494,0.007907168008387089
1783002446753694500,1.182694580078125,0.0607607401907444,0.009617003612220287,0.021365072578191757
1783002446763746600,1.19274658203125,0.072637639939785,0.037918150424957275,0.03497568890452385
1783002446773798400,1.20279833984375,0.08363611996173859,0.04089085012674332,0.05179798975586891
1783002446783851300,1.212851318359375,0.0816294252872467,0.03434852883219719,0.061801355332136154
1783002446793903600,1.222903564453125,0.06694331020116806,0.02851356752216816,0.07553055137395859
1783002446803955500,1.23295556640625,0.046683043241500854,0.0007090987637639046,0.07108893245458603
1783002446814007600,1.243007568359375,0.028141940012574196,-0.03943139687180519,0.06421857327222824
1783002446824059400,1.253059326171875,0.011110758408904076,-0.049098141491413116,0.04810990393161774
1783002446834111500,1.263111572265625,0.012270752340555191,-0.01792917586863041,0.02153507061302662
1783002446844163300,1.273163330078125,0.020838674157857895,0.026627106592059135,-0.011260958388447762
1783002446854215400,1.28321533203125,0.02303900755941868,0.053289853036403656,-0.03620266169309616
1783002446864268500,1.2932685546875,0.0215404462069273,0.06169772148132324,-0.062045179307460785
1783002446874320400,1.3033203125,0.013377184048295021,0.04617792367935181,-0.06782252341508865
1783002446884372500,1.31337255859375,-0.0012976322323083878,0.028888149186968803,-0.06652609258890152
1783002446894424300,1.32342431640625,-0.018408283591270447,0.0007665813900530338,-0.04190792515873909
1783002446904476400,1.333476318359375,-0.023406773805618286,-0.006217824760824442,-0.0025573214516043663
1783002446914528300,1.3435283203125,-0.02572260983288288,-0.006336703896522522,0.03024020418524742
1783002446924580600,1.35358056640625,-0.036745697259902954,-0.0042756833136081696,0.0263298861682415
1783002446934633500,1.363633544921875,-0.039772987365722656,0.018789011985063553,-0.006108250003308058
1783002446944685600,1.373685546875,-0.03717214614152908,0.041543591767549515,-0.04761761054396629
1783002446954737400,1.3837373046875,-0.03744088113307953,0.05843350291252136,-0.060073770582675934
1783002446964789500,1.39378955078125,-0.03522219508886337,0.041973840445280075,-0.05258602648973465
1783002446974839800,1.40383984375,-0.044749967753887177,-0.004850291181355715,-0.032223399728536606
1783002446984892000,1.413891845703125,-0.03549041971564293,-0.04602249711751938,-0.00914258137345314
1783002446994943700,1.42394384765625,-0.02152223512530327,-0.04716259241104126,0.0040405383333563805
1783002447004996900,1.433996826171875,-0.00738750584423542,-0.03243371471762657,-0.010349320247769356
1783002447015048700,1.444048583984375,0.0035943626426160336,0.0013851933181285858,-0.04046540707349777
1783002447025101000,1.45410107421875,0.012262685224413872,0.03330131247639656,-0.07034021615982056
1783002447035153000,1.46415283203125,0.014965049922466278,0.03702996298670769,-0.0859609842300415
1783002447045205000,1.474205078125,0.01727374456822872,0.008240660652518272,-0.07806843519210815
1783002447055256800,1.4842568359375,0.024998556822538376,-0.017073852941393852,-0.0456450879573822
1783002447065309000,1.494308837890625,0.032275643199682236,-0.020590821281075478,-0.00849984772503376
1783002447075360800,1.50436083984375,0.03965095430612564,-0.02342938259243965,0.028348281979560852
1783002447085414000,1.514413818359375,0.032823141664266586,-0.02770695462822914,0.041061948984861374
1783002447095466000,1.524466064453125,0.02245837077498436,-0.00792857725173235,0.03621203824877739
1783002447105517800,1.534517822265625,0.02270098403096199,0.03179193660616875,-0.002678103279322386
1783002447115570000,1.54456982421875,0.015998035669326782,0.041927825659513474,-0.0522586815059185
1783002447125621800,1.554621826171875,-0.004662501625716686,0.033625952899456024,-0.08527947962284088
1783002447135673900,1.564673828125,-0.019161805510520935,0.018179742619395256,-0.09208054840564728
1783002447145726000,1.574725830078125,-0.021885421127080917,-0.016954274848103523,-0.06899574398994446
1783002447155778800,1.58477880859375,-0.021336611360311508,-0.01809498853981495,-0.019354533404111862
1783002447165831000,1.594830810546875,-0.014106129296123981,-0.00952307227998972,0.027570897713303566
1783002447175882800,1.6048828125,-0.016561012715101242,-0.030152063816785812,0.050102598965168
1783002447185934800,1.614934814453125,-0.020833522081375122,-0.048824816942214966,0.06034830957651138
1783002447195986700,1.624986572265625,-0.012359672226011753,-0.013627967797219753,0.039474792778491974
1783002447206039000,1.6350390625,0.011119287461042404,0.02247304469347,-0.015695516020059586
1783002447216091000,1.6450908203125,0.026585528627038002,0.05776144191622734,-0.07424336671829224
1783002447226143000,1.65514306640625,0.03114113211631775,0.07588452100753784,-0.09369748830795288
1783002447236195800,1.66519580078125,0.02608971670269966,0.04744577035307884,-0.07761827111244202
1783002447246247700,1.67524755859375,0.01940811052918434,-0.00930805504322052,-0.04275403171777725
1783002447256299800,1.6852998046875,0.016523556783795357,-0.06556347757577896,-0.005883847363293171
1783002447266351900,1.695351806640625,0.011904570274055004,-0.08717343211174011,0.026572629809379578
1783002447276404000,1.705404052734375,0.002636995166540146,-0.09330233186483383,0.03369908034801483
1783002447286455800,1.715455810546875,-0.006164751946926117,-0.07940089702606201,0.028476886451244354
1783002447296508000,1.7255078125,-0.0029969513416290283,-0.050058431923389435,0.026090826839208603
1783002447306560800,1.735560791015625,-0.00714455870911479,-0.0038366089574992657,0.015773475170135498
1783002447316612900,1.74561279296875,-0.005500831175595522,0.04579850286245346,-0.006966512184590101
1783002447326665000,1.7556650390625,-0.004387629684060812,0.09504461288452148,-0.0265364833176136
1783002447336716800,1.765716796875,-0.008948095142841339,0.11899034678936005,-0.038159966468811035
1783002447346769000,1.775768798828125,-0.01612105406820774,0.11058114469051361,-0.035095199942588806
1783002447356820700,1.78582080078125,-0.016370024532079697,0.07291903346776962,-0.015565117821097374
1783002447366872800,1.795872802734375,-0.022839907556772232,0.00004322640597820282,0.012633230537176132
1783002447376924700,1.805924560546875,-0.02973562479019165,-0.06588592380285263,0.03481701761484146
1783002447386977800,1.815977783203125,-0.03158252686262131,-0.07354970276355743,0.04454953968524933
1783002447397030000,1.82602978515625,-0.01875244453549385,-0.0636058896780014,0.03308114781975746
1783002447407081700,1.836081787109375,-0.008177032694220543,-0.04925757646560669,0.006812526844441891
1783002447417133800,1.8461337890625,-0.0014589084312319756,-0.01883917860686779,-0.020991884171962738
1783002447427185700,1.856185546875,0.010228374041616917,0.014009049162268639,-0.04369080066680908
1783002447437237800,1.86623779296875,0.027088038623332977,0.0212966650724411,-0.06685162335634232
1783002447447289900,1.876289794921875,0.036639999598264694,0.0066572693176567554,-0.07533325999975204
1783002447457342000,1.886342041015625,0.040867939591407776,-0.004254499915987253,-0.06775902956724167
1783002447467394800,1.896394775390625,0.04160403832793236,-0.030846696346998215,-0.06134134531021118
1783002447477447000,1.906447021484375,0.03844212740659714,-0.0343402735888958,-0.02784329652786255
1783002447487498800,1.916498779296875,0.030655842274427414,-0.012306876480579376,0.020748473703861237
1783002447497550800,1.92655078125,0.02008795365691185,-0.0032978523522615433,0.06183263659477234
1783002447507603000,1.93660302734375,0.011961052194237709,0.026102380827069283,0.08570734411478043
1783002447517654800,1.94665478515625,0.004363488871604204,0.05122285336256027,0.08073364198207855
1783002447527707000,1.956706787109375,-0.0013220934197306633,0.04867873340845108,0.056619253009557724
1783002447537759700,1.966759765625,-0.011434949934482574,0.037240415811538696,0.009881783276796341
1783002447547811800,1.976811767578125,-0.02097971923649311,0.02444206364452839,-0.03656454384326935
1783002447557864000,1.986864013671875,-0.026794027537107468,0.009896615520119667,-0.06476341187953949
1783002447567916000,1.996916015625,-0.027858760207891464,0.0026429640129208565,-0.06028743088245392
1783002447577967900,2.0069677734375,-0.01911896839737892,0.0013849479146301746,-0.026036269962787628
1783002447588020000,2.01702001953125,-0.013652030378580093,-0.014304532669484615,0.0022941716015338898
1783002447598071800,2.02707177734375,0.0033545414917171,-0.051743969321250916,0.011471865698695183
1783002447608124000,2.0371240234375,0.028800778090953827,-0.047768935561180115,0.008094178512692451
1783002447618177000,2.047177001953125,0.05637655407190323,-0.020854884758591652,-0.016352806240320206
1783002447628228900,2.057228759765625,0.077351875603199,0.017323393374681473,-0.04281770437955856
1783002447638281000,2.067281005859375,0.09033555537462234,0.05327848345041275,-0.039374373853206635
1783002447648332800,2.077332763671875,0.08249308168888092,0.0641990453004837,0.007128681987524033
1783002447658385000,2.087385009765625,0.07462653517723083,0.06615128368139267,0.06157364696264267
1783002447668436700,2.097436767578125,0.0682581216096878,0.045121900737285614,0.10559836030006409
1783002447678489000,2.107489013671875,0.0643794909119606,0.019796036183834076,0.11191138625144958
1783002447688541000,2.117541015625,0.06263991445302963,0.0036647366359829903,0.10119295865297318
1783002447698593800,2.12759375,0.05704417824745178,0.0098063750192523,0.06709694862365723
1783002447708646000,2.13764599609375,0.046775031834840775,0.016861088573932648,0.020137159153819084
1783002447718697700,2.14769775390625,0.027642248198390007,0.01873370073735714,-0.025282423943281174
1783002447728749800,2.157749755859375,0.007067730650305748,0.002102792728692293,-0.046587713062763214
1783002447738802000,2.167802001953125,-0.019188934937119484,-0.010218238458037376,-0.05378991365432739
1783002447748854000,2.17785400390625,-0.029167799279093742,-0.028033189475536346,-0.03389503061771393
1783002447758905900,2.18790576171875,-0.03903625160455704,-0.030508577823638916,-0.02474788762629032
1783002447768958000,2.1979580078125,-0.03725326061248779,-0.0011530853807926178,-0.01981518045067787
1783002447779010800,2.2080107421875,-0.029515841975808144,0.04764797165989876,-0.008475558832287788
1783002447789062700,2.218062744140625,-0.03010093979537487,0.07593047618865967,0.006098057143390179
1783002447799115000,2.228114990234375,-0.04066776484251022,0.05147708207368851,0.0018574316054582596
1783002447809166800,2.238166748046875,-0.04727400466799736,-0.010580163449048996,-0.0045583900064229965
1783002447819219000,2.248218994140625,-0.05018769949674606,-0.061991870403289795,-0.014365366660058498
1783002447829270800,2.258270751953125,-0.04402275010943413,-0.05213870853185654,-0.007250731810927391
1783002447839323000,2.268322998046875,-0.03150342404842377,0.004177703522145748,-0.006286364980041981
1783002447849376000,2.2783759765625,-0.022468650713562965,0.026804450899362564,-0.013794881291687489
1783002447859427800,2.288427734375,-0.016262687742710114,0.03691274672746658,-0.021152395755052567
1783002447869480000,2.29847998046875,-0.011928925290703773,0.045048438012599945,-0.028081141412258148
1783002447879531800,2.30853173828125,0.002594257239252329,0.040720146149396896,-0.03987112641334534
1783002447889583900,2.318583984375,0.014106836169958115,0.024446099996566772,-0.05194803327322006
1783002447899635700,2.3286357421875,0.02030225470662117,0.005511146038770676,-0.040548283606767654
1783002447909687800,2.338687744140625,0.0158475860953331,-0.02461373433470726,-0.02529716119170189
1783002447919740000,2.348739990234375,0.0025745758321136236,-0.059016115963459015,-0.012501874938607216
1783002447929792800,2.358792724609375,0.004087517503648996,-0.07782629132270813,-0.011111171916127205
1783002447939844900,2.368844970703125,0.004406869411468506,-0.06524062156677246,-0.00689407903701067
1783002447949896700,2.378896728515625,0.006820492446422577,-0.02593476139008999,-0.01499195210635662
1783002447959948800,2.38894873046875,0.005080281291157007,0.014674060046672821,-0.04289725795388222
1783002447970001400,2.39900146484375,0.005303187761455774,0.041438028216362,-0.06823323667049408
1783002447980053500,2.409053466796875,-0.007543797604739666,0.030087292194366455,-0.08334099501371384
1783002447990105300,2.419105224609375,-0.020088084042072296,0.016406364738941193,-0.07305853068828583
1783002448000157700,2.42915771484375,-0.02503124251961708,-0.00011910125613212585,-0.037048786878585815
1783002448010210600,2.43921044921875,-0.014217477291822433,-0.02704658918082714,0.007246239110827446
1783002448020262400,2.449262451171875,-0.007282008416950703,-0.05552268400788307,0.03881314396858215
1783002448030314500,2.459314453125,0.00022570881992578506,-0.0383777879178524,0.051474347710609436
1783002448040366300,2.469366455078125,0.003880860982462764,-0.007886293344199657,0.045801565051078796
1783002448050418400,2.47941845703125,0.006603676825761795,0.02143191359937191,0.02271409146487713
1783002448060470500,2.489470458984375,0.006176841910928488,0.06034217029809952,-0.004907912574708462
1783002448070522600,2.499522705078125,0.021817853674292564,0.06952875107526779,-0.03439789265394211
1783002448080574500,2.509574462890625,0.032406874001026154,0.048933371901512146,-0.06639023870229721
1783002448090626600,2.51962646484375,0.03695102781057358,0.021747292950749397,-0.07705699652433395
1783002448100679400,2.529679443359375,0.03945170342922211,-0.0003633142914623022,-0.06105712428689003
1783002448110731300,2.539731201171875,0.03646363690495491,-0.036509864032268524,-0.019871871918439865
1783002448120783600,2.54978369140625,0.02508917637169361,-0.06147126853466034,0.020872456952929497
1783002448130835500,2.55983544921875,0.015527894720435143,-0.06208486109972,0.04906894266605377
1783002448140887600,2.569887451171875,0.015304227359592915,-0.052031319588422775,0.04992672801017761
1783002448150939400,2.579939453125,0.007104353979229927,-0.038082484155893326,0.03235119581222534
1783002448160991500,2.589991455078125,0.009385581128299236,-0.004091863054782152,-0.0008850358426570892
1783002448171044600,2.600044677734375,0.010535800829529762,0.02084917202591896,-0.03836982697248459
1783002448181096400,2.610096435546875,0.021303724497556686,0.04313100129365921,-0.06255751103162766
1783002448191148500,2.6201484375,0.026603415608406067,0.04367242008447647,-0.06418070197105408
1783002448201200400,2.630200439453125,0.022092925384640694,0.03566134721040726,-0.027647715061903
1783002448211252500,2.64025244140625,0.017662491649389267,0.025529086589813232,0.019671063870191574
1783002448221304300,2.65030419921875,0.0036419802345335484,-0.015303606167435646,0.042472194880247116
1783002448231356400,2.6603564453125,0.0014371492434293032,-0.07826685905456543,0.03919916972517967
1783002448241408500,2.670408447265625,-0.004675508011132479,-0.09265272319316864,0.007655682973563671
1783002448251460600,2.680460693359375,0.00703494343906641,-0.056391920894384384,-0.03213966637849808
1783002448261513500,2.690513427734375,0.028921427205204964,0.00046816468238830566,-0.05733923614025116
1783002448271565300,2.7005654296875,0.034346818923950195,0.023636868223547935,-0.06591780483722687
1783002448281617400,2.710617431640625,0.03295712172985077,0.03369114175438881,-0.09372174739837646
1783002448291669200,2.720669189453125,0.04089920222759247,0.004947376903146505,-0.11283285170793533
1783002448301721600,2.7307216796875,0.046473026275634766,-0.01602894999086857,-0.10549427568912506
1783002448311773400,2.7407734375,0.03691520914435387,-0.045978859066963196,-0.05888708680868149
1783002448321825500,2.750825439453125,0.011266837827861309,-0.041935913264751434,-0.01960039883852005
1783002448331877400,2.76087744140625,0.004197743255645037,-0.053865544497966766,0.004249804653227329
1783002448341930500,2.770930419921875,0.022040026262402534,-0.04995288699865341,0.03213098645210266
1783002448351982600,2.780982666015625,0.04153703153133392,-0.045467592775821686,0.057323962450027466
1783002448362034400,2.791034423828125,0.04913882166147232,-0.09856774657964706,0.04241276904940605
1783002448372086500,2.80108642578125,0.032983019948005676,-0.13930772244930267,-0.004881243221461773
1783002448382138400,2.811138427734375,-0.00016347970813512802,-0.11136449873447418,-0.05928216502070427
1783002448392190500,2.8211904296875,-0.02933521382510662,-0.06439460068941116,-0.13201336562633514
1783002448402242300,2.8312421875,-0.04568006098270416,-0.047799598425626755,-0.1917293667793274
1783002448412294400,2.84129443359375,-0.05873887985944748,-0.02936040610074997,-0.18844516575336456
1783002448422347500,2.851347412109375,-0.07368037104606628,-0.0140279121696949,-0.11461850255727768
1783002448432399600,2.861399658203125,-0.07885995507240295,-0.04310457035899162,-0.026546970009803772
1783002448442451500,2.871451416015625,-0.06485568732023239,-0.05827915668487549,0.046123750507831573
1783002448452503600,2.881503662109375,-0.039351657032966614,-0.02026013657450676,0.0622212253510952
1783002448462555400,2.891555419921875,-0.012746652588248253,0.023305632174015045,0.017955707386136055
1783002448472607500,2.901607421875,0.005864582024514675,0.036306120455265045,-0.04898630827665329
1783002448482659600,2.91165966796875,0.005833527073264122,0.032301709055900574,-0.09511509537696838
1783002448492711400,2.92171142578125,-0.0034718243405222893,0.018052998930215836,-0.10266781598329544
1783002448502764500,2.9317646484375,-0.014557396993041039,-0.007410959340631962,-0.08096607774496078
1783002448512816400,2.94181640625,-0.01096159778535366,-0.06557333469390869,-0.04176647961139679
1783002448522868500,2.951868408203125,-0.010645254515111446,-0.11704041808843613,0.0013102469965815544
1783002448532920300,2.96192041015625,-0.0023223431780934334,-0.0925486609339714,0.0268278568983078
1783002448542972700,2.97197265625,0.019404331222176552,0.001505345106124878,0.008658666163682938
1783002448553024500,2.9820244140625,0.03930214047431946,0.10233501344919205,-0.04264313727617264
1783002448563076600,2.99207666015625,0.04041110724210739,0.17296862602233887,-0.08798830211162567
1783002448573128400,3.00212841796875,0.016830148175358772,0.17659424245357513,-0.09303818643093109
1783002448583181300,3.012181396484375,-0.004093742463737726,0.1335219293832779,-0.055599145591259
1783002448593233700,3.022233642578125,-0.011165767908096313,0.06057794392108917,-0.005113336723297834
1783002448603285500,3.032285400390625,0.002370979869738221,-0.009248930960893631,0.03357529640197754
1783002448613337600,3.042337646484375,0.011690178886055946,-0.05649207532405853,0.055834271013736725
1783002448623389400,3.052389404296875,-0.0054327091202139854,-0.08439108729362488,0.0689779743552208
1783002448633441500,3.062441650390625,-0.03305768221616745,-0.07731986045837402,0.056157514452934265
1783002448643493400,3.072493408203125,-0.02946840040385723,-0.061718035489320755,0.03062247484922409
1783002448653545500,3.08254541015625,-0.006150561850517988,-0.0004938282072544098,0.00514161866158247
1783002448663597600,3.09259765625,-0.001931451726704836,0.06045452132821083,-0.014767790213227272
1783002448673650400,3.102650390625,-0.01373990811407566,0.10578444600105286,-0.026691827923059464
1783002448683702500,3.11270263671875,-0.025122692808508873,0.11145597696304321,-0.035297587513923645
1783002448693754400,3.12275439453125,-0.03184451162815094,0.091998390853405,-0.0394904688000679
1783002448703806500,3.132806396484375,-0.03962530568242073,0.04857143014669418,-0.04210799187421799
1783002448713858300,3.1428583984375,-0.042233869433403015,0.019998641684651375,-0.03598858043551445
1783002448723910700,3.15291064453125,-0.027140209451317787,-0.03943686932325363,-0.02711522951722145
1783002448733962500,3.16296240234375,-0.010552710853517056,-0.11623790860176086,-0.029498759657144547
1783002448744014600,3.1730146484375,0.004771260544657707,-0.15296681225299835,-0.02141287364065647
1783002448754067500,3.1830673828125,0.013845982030034065,-0.10968564450740814,-0.024561796337366104
1783002448764119300,3.193119384765625,0.02492479793727398,-0.019459858536720276,-0.05330084264278412
1783002448774171600,3.203171630859375,0.02474743127822876,0.04862438887357712,-0.0841439813375473
1783002448784223500,3.213223388671875,0.002793664112687111,0.0740797370672226,-0.09250903874635696
1783002448794275600,3.223275634765625,-0.019377684220671654,0.07013586163520813,-0.05640216916799545
1783002448804327400,3.233327392578125,-0.024748753756284714,0.025257954373955727,0.006083544343709946
1783002448814379500,3.243379638671875,-0.017295898869633675,-0.03385809808969498,0.06689469516277313
1783002448824431400,3.253431396484375,-0.00425130408257246,-0.0620400533080101,0.10728296637535095
1783002448834484500,3.263484375,-0.0070928968489170074,-0.06016945093870163,0.10317450761795044
1783002448844536600,3.27353662109375,-0.015655919909477234,-0.06266970932483673,0.04495922848582268
1783002448854588400,3.28358837890625,-0.029009008780121803,-0.04310452938079834,-0.028846552595496178
1783002448864640500,3.293640625,-0.03496923670172691,-0.017007559537887573,-0.10786044597625732
1783002448874692400,3.3036923828125,-0.021312277764081955,0.005536364857107401,-0.148416668176651
1783002448884744400,3.313744384765625,-0.0023776651360094547,0.0005116569809615612,-0.1598818004131317
1783002448894796300,3.32379638671875,0.0074608507566154,-0.02535695768892765,-0.14539127051830292
1783002448904848600,3.3338486328125,0.007702335715293884,-0.0770355612039566,-0.12301140278577805
1783002448914900500,3.343900390625,0.005862890277057886,-0.13042767345905304,-0.0990980863571167
1783002448924953300,3.353953369140625,0.005521806422621012,-0.16137804090976715,-0.08510465174913406
1783002448935005400,3.36400537109375,-0.0023768628016114235,-0.1483362764120102,-0.0755404382944107
1783002448945057300,3.374057373046875,0.0010349396616220474,-0.07953659445047379,-0.06805400550365448
1783002448955109400,3.384109375,0.01007397472858429,-0.04241771996021271,-0.07448474317789078
1783002448965161500,3.394161376953125,0.01707645133137703,-0.007035332731902599,-0.09377399832010269
1783002448975213600,3.404213623046875,0.017968878149986267,0.021295374259352684,-0.09702758491039276
1783002448985265400,3.414265380859375,0.007451864890754223,0.0372445173561573,-0.07956349104642868
1783002448995317500,3.4243173828125,-0.005880185402929783,0.04022565856575966,-0.042817726731300354
1783002449005370400,3.434370361328125,-0.031135374680161476,-0.005745438858866692,0.0012806635349988937
1783002449015422500,3.44442236328125,-0.04187403991818428,-0.04850408807396889,0.047868140041828156
1783002449025474600,3.454474609375,-0.02967040427029133,-0.06379632651805878,0.07827107608318329
1783002449035526400,3.4645263671875,-0.00440739281475544,-0.0566454716026783,0.09443087130784988
1783002449045578500,3.47457861328125,0.01265601348131895,-0.029897749423980713,0.08389007300138474
1783002449055630300,3.48463037109375,0.02404848299920559,0.003193624783307314,0.05175025016069412
1783002449065682400,3.494682373046875,0.033701345324516296,0.026023389771580696,0.011021249927580357
1783002449075734300,3.504734375,0.03721512109041214,0.03819749876856804,-0.015486523509025574
1783002449085786600,3.51478662109375,0.026422593742609024,0.05999506264925003,-0.03392495587468147
1783002449095839500,3.524839599609375,0.014489234425127506,0.04535513371229172,-0.022997738793492317
1783002449105891600,3.5348916015625,0.01154346764087677,0.0041406224481761456,0.015350090339779854
1783002449115943400,3.544943359375,0.005980657413601875,-0.02139216661453247,0.06495998799800873
1783002449125995500,3.55499560546875,0.004397217184305191,-0.04752928763628006,0.08835501968860626
1783002449136047400,3.56504736328125,-0.000639352947473526,-0.053105682134628296,0.0742594450712204
1783002449146099500,3.575099365234375,0.009519776329398155,-0.03322569653391838,0.02789926342666149
1783002449156151600,3.585151611328125,0.01394328661262989,-0.0030757838394492865,-0.010976762510836124
1783002449166203400,3.595203369140625,0.006036059465259314,0.03943349048495293,-0.03606585040688515
1783002449176256500,3.605256591796875,-0.00037523452192544937,0.057952314615249634,-0.04174211248755455
1783002449186308400,3.615308349609375,0.00547383539378643,0.03982852026820183,-0.04896321892738342
1783002449196360700,3.625360595703125,0.01004115678369999,0.018454255536198616,-0.03738086670637131
1783002449206412500,3.63541259765625,0.012348783202469349,-0.004737740848213434,-0.010868408717215061
1783002449216464600,3.645464599609375,-0.004595579579472542,-0.011913894675672054,0.03781018406152725
1783002449226516500,3.6555166015625,-0.008151961490511894,-0.018761884421110153,0.08802799880504608
1783002449236568600,3.665568603515625,-0.014309722930192947,-0.030445704236626625,0.10351374745368958
1783002449246620400,3.675620361328125,-0.014884168282151222,-0.047472890466451645,0.0908280462026596
1783002449256673500,3.685673583984375,-0.01672334596514702,-0.04322568327188492,0.05665223300457001
1783002449266725600,3.6957255859375,-0.01821707934141159,-0.02653081715106964,0.012274174019694328
1783002449276777500,3.705777587890625,-0.019318297505378723,-0.0015644808299839497,-0.02898298390209675
1783002449286829600,3.71582958984375,-0.016657233238220215,0.03741518408060074,-0.061662040650844574
1783002449296881400,3.72588134765625,-0.017360040917992592,0.05476674437522888,-0.07702022790908813
1783002449306933500,3.73593359375,-0.010240753181278706,0.06821302324533463,-0.06285227835178375
1783002449316985300,3.7459853515625,-0.008387459442019463,0.06148454546928406,-0.024069201201200485
1783002449327037700,3.75603759765625,-0.0178068857640028,0.03151366114616394,0.01623254455626011
1783002449337089500,3.766089599609375,-0.016928575932979584,0.007531627546995878,0.03697910159826279
1783002449347142400,3.776142333984375,0.000996225979179144,-0.01965521275997162,0.03627987205982208
1783002449357194500,3.786194580078125,0.02801080048084259,-0.0545215830206871,0.014522644691169262
1783002449367246300,3.796246337890625,0.05299421399831772,-0.0725540742278099,-0.028550999239087105
1783002449377298700,3.806298583984375,0.08181947469711304,-0.0689833015203476,-0.05025789141654968
1783002449387350500,3.8163505859375,0.09929952025413513,-0.024350710213184357,-0.060523390769958496
1783002449397402600,3.826402587890625,0.10667088627815247,0.03182574361562729,-0.051440417766571045
1783002449407454500,3.836454345703125,0.11003094166517258,0.04612511396408081,-0.041098520159721375
1783002449417506600,3.846506591796875,0.09925579279661179,0.02746221423149109,-0.014226162806153297
1783002449427558400,3.856558349609375,0.07534186542034149,0.0014920500107109547,0.01892288774251938
1783002449437611500,3.866611572265625,0.05116276070475578,-0.037987980991601944,0.02993452548980713
1783002449447663600,3.87666357421875,0.030021056532859802,-0.07596238702535629,0.0029114680364727974
1783002449457715500,3.886715576171875,0.024814842268824577,-0.09492861479520798,-0.039916422218084335
1783002449467767600,3.896767578125,0.01609252393245697,-0.06137090548872948,-0.07255326956510544
1783002449477819400,3.9068193359375,0.00829958263784647,0.0017654546536505222,-0.095831960439682
1783002449487871500,3.91687158203125,0.002711871173232794,0.033469751477241516,-0.09723841398954391
1783002449497923300,3.92692333984375,-0.0022948714904487133,0.040869612246751785,-0.0853617861866951
1783002449507975700,3.9369755859375,-0.018658766523003578,0.04039319232106209,-0.0747499018907547
1783002449518028500,3.947028564453125,-0.029011273756623268,0.03707995265722275,-0.06500007212162018
1783002449528080400,3.957080322265625,-0.03068736381828785,0.026882300153374672,-0.0560159906744957
1783002449538132500,3.967132568359375,-0.03224131837487221,0.005431335885077715,-0.0410279855132103
1783002449548184300,3.977184326171875,-0.02783525548875332,-0.015595550648868084,-0.028183255344629288
1783002449558236400,3.987236328125,-0.020364554598927498,-0.0226324200630188,-0.013228274881839752
1783002449568288500,3.99728857421875,-0.0090107973664999,-0.02766931802034378,-0.016440827399492264
1783002449578340600,4.007340576171875,0.002637335564941168,-0.0170784592628479,-0.029987262561917305
1783002449588392400,4.017392333984375,0.0076088253408670425,-0.005635184235870838,-0.040346674621105194
1783002449598444500,4.027444580078125,0.008363299071788788,-0.003170161973685026,-0.05319589376449585
1783002449608497400,4.037497314453125,0.0024518452119082212,-0.0038693449459969997,-0.05225737392902374
1783002449618549500,4.047549560546875,-0.0020094821229577065,-0.009802334941923618,-0.038806281983852386
1783002449628601600,4.0576015625,0.00025916658341884613,-0.024271555244922638,-0.026619713753461838
1783002449638653400,4.0676533203125,0.01256110705435276,-0.03895968571305275,-0.018837425857782364
1783002449648705500,4.07770556640625,0.02161535434424877,-0.0415535643696785,-0.013595735654234886
1783002449658757400,4.08775732421875,0.02492166869342327,-0.017763812094926834,-0.019905563443899155
1783002449668809500,4.0978095703125,0.028087303042411804,-0.002371356822550297,-0.03062170371413231
1783002449678861300,4.107861328125,0.021852577105164528,0.019748859107494354,-0.049913376569747925
1783002449688914400,4.11791455078125,0.014242326840758324,0.029386840760707855,-0.06121823191642761
1783002449698966500,4.127966552734375,0.01825011894106865,0.031239334493875504,-0.0645892545580864
1783002449709018400,4.138018310546875,0.02455531805753708,0.02956973761320114,-0.05193736031651497
1783002449719070500,4.148070556640625,0.025117777287960052,0.007760312408208847,-0.03591551631689072
1783002449729122300,4.158122314453125,0.014180839993059635,-0.01577160507440567,-0.010116561315953732
1783002449739174400,4.16817431640625,0.004791066981852055,-0.019343970343470573,0.0024351831525564194
1783002449749226500,4.1782265625,-0.006289882585406303,-0.021333495154976845,-0.005876846145838499
1783002449759278600,4.188278564453125,-0.0112654659897089,-0.007090909872204065,-0.03647203743457794
1783002449769330400,4.198330322265625,-0.021681752055883408,0.014257483184337616,-0.06138176470994949
1783002449779383300,4.20838330078125,-0.01965881511569023,0.029518991708755493,-0.07377159595489502
1783002449789435400,4.218435302734375,-0.01253589242696762,0.036025527864694595,-0.055253129452466965
1783002449799487500,4.228487548828125,-0.016037151217460632,0.0286464411765337,-0.026022540405392647
1783002449809539600,4.23853955078125,-0.020964063704013824,0.011563247069716454,0.008135049603879452
1783002449819591400,4.24859130859375,-0.022363821044564247,0.01605306938290596,0.0179075188934803
1783002449829643500,4.2586435546875,-0.018633801490068436,0.01000482589006424,0.007405534386634827
1783002449839695400,4.2686953125,-0.008414719253778458,-0.005550697445869446,-0.006422929931432009
1783002449849747500,4.27874755859375,-0.0019198325462639332,0.00713143777102232,-0.021688150241971016
1783002449859799300,4.28879931640625,0.0056824274361133575,0.011530713178217411,-0.027082916349172592
1783002449869852400,4.298852294921875,0.00007820455357432365,0.002334059216082096,-0.03351513296365738
1783002449879904500,4.308904541015625,-0.007669196929782629,-0.011233415454626083,-0.03488799184560776
1783002449889956400,4.318956298828125,-0.014654072001576424,-0.021591288968920708,-0.021273378282785416
1783002449900008400,4.329008544921875,-0.0155923031270504,-0.010504016652703285,0.008273327723145485
1783002449910060300,4.339060302734375,-0.02094515599310398,-0.014201771467924118,0.028761763125658035
1783002449920112400,4.3491123046875,-0.021382445469498634,-0.020086025819182396,0.04588136076927185
1783002449930164500,4.35916455078125,-0.02121863141655922,-0.00818612053990364,0.04090709239244461
1783002449940216600,4.369216552734375,-0.009299388155341148,0.018326446413993835,0.02375340647995472
1783002449950268400,4.379268310546875,-0.014019638299942017,0.0364011749625206,-0.0005106935277581215
1783002449960321500,4.389321533203125,-0.02330501563847065,0.04320288822054863,-0.01388988271355629
1783002449970374000,4.399373779296875,-0.03749210387468338,0.03839641436934471,-0.013207521289587021
1783002449980426000,4.409426025390625,-0.05128328502178192,0.025608448311686516,-0.001596672460436821
1783002449990478000,4.41947802734375,-0.05179831013083458,0.037508416920900345,0.012752608396112919
1783002450000530000,4.429530029296875,-0.04973462596535683,0.061028920114040375,0.015066363848745823
1783002450010582000,4.43958203125,-0.041875842958688736,0.046412307769060135,0.0181301049888134
1783002450020633900,4.4496337890625,-0.05064217001199722,0.005572200287133455,0.004783138632774353
1783002450030686000,4.45968603515625,-0.0483928918838501,-0.02776828221976757,-0.014472562819719315
1783002450040737800,4.46973779296875,-0.04241383075714111,-0.04565327614545822,-0.03907058387994766
1783002450050791000,4.479791015625,-0.0364028736948967,-0.042872875928878784,-0.057772595435380936
1783002450060843000,4.489843017578125,-0.025266598910093307,-0.0018061320297420025,-0.05360155180096626
1783002450070894800,4.499894775390625,-0.009960448369383812,0.032787203788757324,-0.036950383335351944
1783002450080947000,4.509947021484375,0.005556726362556219,0.029838286340236664,-0.0234428308904171
1783002450090998800,4.519998779296875,0.010216658934950829,0.017519015818834305,-0.03299418091773987
1783002450101051100,4.530051025390625,0.0104661975055933,-0.03743797540664673,-0.030817845836281776
1783002450111103000,4.54010302734375,0.005747808143496513,-0.03578636795282364,-0.0012813745997846127
1783002450121155000,4.550155029296875,-0.001833412330597639,-0.02159624546766281,0.037988003343343735
1783002450131207000,4.56020703125,-0.00679988507181406,-0.021829800680279732,0.04380716383457184
1783002450141260000,4.570260009765625,-0.012936074286699295,-0.03313092514872551,0.02550698257982731
1783002450151312000,4.580311767578125,-0.019846700131893158,-0.02622080408036709,-0.008757742121815681
1783002450161364000,4.590364013671875,-0.02165898308157921,-0.019359435886144638,-0.040857620537281036
1783002450171416000,4.600416015625,-0.027341436594724655,-0.013341713696718216,-0.05091611668467522
1783002450181468000,4.610468017578125,-0.032510098069906235,-0.006182339042425156,-0.041885338723659515
1783002450191520000,4.62052001953125,-0.033985257148742676,-0.0016515436582267284,-0.0257951058447361
1783002450201571800,4.63057177734375,-0.029783587902784348,-0.0022046822123229504,0.0017236033454537392
1783002450211624000,4.6406240234375,-0.02496366575360298,-0.01791509985923767,0.010917405597865582
1783002450221675800,4.65067578125,-0.018358759582042694,-0.041647862643003464,0.005577501840889454
1783002450231729200,4.660729248046875,-0.01817573606967926,-0.042603787034749985,-0.003499045502394438
1783002450241781000,4.670781005859375,-0.018071874976158142,-0.028067991137504578,-0.01188640482723713
1783002450251833000,4.6808330078125,-0.01946723461151123,-0.01716996729373932,-0.020178118720650673
1783002450261885000,4.690885009765625,-0.008054524660110474,0.0016601793467998505,-0.019901949912309647
1783002450271936800,4.700936767578125,0.012593663297593594,0.015784867107868195,-0.011103492230176926
1783002450281988900,4.71098876953125,0.027663426473736763,0.01875908486545086,0.009008434601128101
1783002450292041000,4.721041015625,0.024128546938300133,0.01488916389644146,0.03479810804128647
1783002450302093000,4.731093017578125,0.010441496968269348,0.021963052451610565,0.05783791467547417
1783002450312146000,4.74114599609375,-0.004728301428258419,0.00426087761297822,0.05164596438407898
1783002450322198000,4.751197998046875,-0.007931285537779331,-0.016663046553730965,0.028470603749155998
1783002450332249900,4.761249755859375,-0.008377333171665668,-0.009587722830474377,0.00674505066126585
1783002450342302200,4.77130224609375,-0.007160535082221031,-0.007291278801858425,-0.018525417894124985
1783002450352354000,4.78135400390625,-0.01614874228835106,-0.021485576406121254,-0.03543510288000107
1783002450362406000,4.791406005859375,-0.025076456367969513,-0.021894371137022972,-0.055946771055459976
1783002450372458000,4.8014580078125,-0.02890314720571041,-0.00899853091686964,-0.07293130457401276
1783002450382509800,4.811509765625,-0.03196791559457779,0.003124710638076067,-0.07670474052429199
1783002450392562000,4.82156201171875,-0.03424501419067383,0.016405098140239716,-0.058510348200798035
1783002450402613800,4.83161376953125,-0.024530868977308273,0.022037416696548462,-0.03025101311504841
1783002450412667100,4.841667236328125,-0.014498176984488964,0.007284673396497965,-0.001281697303056717
1783002450422719000,4.851718994140625,-0.01716240495443344,-0.01092895120382309,0.02396560087800026
1783002450432771000,4.86177099609375,-0.023485679179430008,-0.024403706192970276,0.04232874512672424
1783002450442823000,4.871822998046875,-0.019086934626102448,-0.022962938994169235,0.04724680259823799
1783002450452875000,4.881875,-0.011441398411989212,-0.021100956946611404,0.03587746247649193
1783002450462926800,4.8919267578125,-0.0023847874253988266,-0.02444162592291832,0.017749059945344925
1783002450472979000,4.90197900390625,0.015168269164860249,-0.025374529883265495,0.0009854715317487717
1783002450483031000,4.912031005859375,0.025060847401618958,0.0016608159057796001,-0.007468467112630606
1783002450493083000,4.922082763671875,0.040947504341602325,0.02271156571805477,-0.010134844109416008
1783002450503136000,4.932135986328125,0.036976996809244156,0.041512154042720795,-0.00939555000513792
1783002450513187800,4.942187744140625,0.016713369637727737,0.049821071326732635,-0.002810713369399309
1783002450523240200,4.952240234375,-0.0093882717192173,0.037957221269607544,0.011441193521022797
1783002450533292000,4.9622919921875,-0.023687081411480904,0.007707869168370962,0.02017371729016304
1783002450543344000,4.97234423828125,-0.03773445636034012,-0.027024811133742332,0.009647039696574211
1783002450553396000,4.98239599609375,-0.03491050750017166,-0.02703474648296833,-0.006911810953170061
1783002450563448000,4.992447998046875,-0.027823569253087044,-0.0008939562831073999,-0.03096548095345497
1783002450573500000,5.0025,-0.025604460388422012,0.012172047048807144,-0.046297356486320496
1783002450583552000,5.012552001953125,-0.03778709098696709,0.019412117078900337,-0.059460029006004333
1783002450593605000,5.022605224609375,-0.040885575115680695,0.013822140172123909,-0.06919436156749725
1783002450603657000,5.032656982421875,-0.038551315665245056,0.00520468270406127,-0.0765894278883934
1783002450613709000,5.042708984375,-0.028032030910253525,-0.002104484476149082,-0.07426630705595016
1783002450623761000,5.052760986328125,-0.013952430337667465,-0.018329260870814323,-0.062364108860492706
1783002450633813000,5.06281298828125,-0.007787874434143305,-0.025108296424150467,-0.04710355028510094
1783002450643864800,5.07286474609375,-0.0010189181193709373,-0.008626527152955532,-0.01734139584004879
1783002450653917200,5.082917236328125,0.003432720899581909,0.0032228808850049973,0.004772713407874107
1783002450663969000,5.092968994140625,0.009551066905260086,0.0053094676695764065,-0.0022782720625400543
1783002450674021000,5.103021240234375,0.015657953917980194,0.019596386700868607,-0.005253173410892487
1783002450684074000,5.113073974609375,0.013932226225733757,0.022101089358329773,-0.009880948811769485
1783002450694125800,5.123125732421875,0.012921299785375595,0.003570095170289278,-0.014768688008189201
1783002450704178200,5.13317822265625,0.016293926164507866,-0.020885445177555084,-0.015199054032564163
1783002450714230000,5.14322998046875,0.011850399896502495,-0.02453542873263359,-0.004324320703744888
1783002450724282000,5.1532822265625,0.005279050674289465,-0.011309904977679253,-0.0007602120749652386
1783002450734334000,5.163333984375,-0.0010670940391719341,-0.003382596652954817,-0.007291519083082676
1783002450744386000,5.173385986328125,-0.008742325007915497,0.009928148239850998,-0.012966448441147804
1783002450754438000,5.18343798828125,-0.018063746392726898,0.015483786351978779,-0.019468577578663826
1783002450764490000,5.193489990234375,-0.016649343073368073,0.015333584509789944,-0.023986630141735077
1783002450774542000,5.2035419921875,-0.018852442502975464,0.01063673198223114,-0.015873614698648453
1783002450784595000,5.213594970703125,-0.022602174431085587,0.005221993196755648,-0.005011645145714283
1783002450794647000,5.22364697265625,-0.02614458277821541,-0.006533771753311157,0.0015268344432115555
1783002450804699000,5.233698974609375,-0.02385666035115719,-0.015014873817563057,0.011903575621545315
1783002450814751000,5.2437509765625,-0.024128766730427742,0.003913561813533306,0.03550390154123306
1783002450824802800,5.253802734375,-0.020896488800644875,0.01798410713672638,0.04599861800670624
1783002450834855200,5.263855224609375,-0.0044045401737093925,0.0069761392660439014,0.03797048330307007
1783002450844907000,5.273906982421875,0.0036706968676298857,-0.008348222821950912,0.01655067875981331
1783002450854959000,5.283958984375,-0.0020526908338069916,-0.0005370927974581718,-0.0032779276371002197
1783002450865011000,5.294010986328125,-0.003346987534314394,-0.0022636200301349163,-0.013787027448415756
1783002450875063800,5.304063720703125,-0.005843237042427063,-0.015840701758861542,-0.02542070299386978
1783002450885116000,5.314115966796875,-0.004031754098832607,-0.016762156039476395,-0.030077505856752396
1783002450895168000,5.32416796875,0.005506123416125774,-0.009182224981486797,-0.0166761577129364
1783002450905220000,5.33422021484375,0.011651899665594101,0.00804603099822998,-0.010960747487843037
1783002450915272000,5.34427197265625,0.02457141876220703,0.0023254193365573883,-0.009437569417059422
1783002450925324000,5.354323974609375,0.033486347645521164,-0.00019046897068619728,-0.0024726041592657566
1783002450935376000,5.3643759765625,0.020236128941178322,0.011098690330982208,0.0157350841909647
1783002450945428000,5.374427978515625,0.011168332770466805,0.013231083750724792,0.04151048883795738
1783002450955479800,5.384479736328125,-0.01559613086283207,0.005159490276128054,0.06073605641722679
1783002450965533000,5.394532958984375,-0.035908859223127365,-0.01340513862669468,0.060580264776945114
1783002450975584500,5.40458447265625,-0.03238097205758095,-0.0049775028601288795,0.048476919531822205
1783002450985636400,5.41463623046875,-0.02758621796965599,0.03578910231590271,0.02396571636199951
1783002450995688400,5.4246884765625,-0.016967428848147392,0.053233563899993896,-0.014346841722726822
1783002451005740300,5.434740234375,-0.01243925467133522,0.038601625710725784,-0.04156940430402756
1783002451015792400,5.44479248046875,-0.022635266184806824,0.01876627840101719,-0.040072619915008545
1783002451025844500,5.454844482421875,-0.031971774995326996,0.005244343541562557,-0.0322253480553627
1783002451035896600,5.464896484375,-0.02494242787361145,0.010994026437401772,-0.006132074631750584
1783002451045948400,5.474948486328125,-0.020333562046289444,0.02355136349797249,0.026806969195604324
1783002451056000500,5.48500048828125,-0.01209488045424223,0.023382294923067093,0.037758417427539825
1783002451066053400,5.495053466796875,-0.0016033565625548363,0.010440131649374962,0.027461837977170944
1783002451076105500,5.50510546875,0.009766584262251854,-0.001440294086933136,0.006518606096506119
1783002451086157600,5.515157470703125,0.015088113024830818,0.031069446355104446,-0.009651575237512589
1783002451096209400,5.52520947265625,-0.0036758538335561752,0.11525633186101913,-0.03008117899298668
1783002451106261500,5.535261474609375,-0.04191485047340393,0.3513423800468445,0.027215931564569473
1783002451116313300,5.545313232421875,-0.1404566764831543,0.4574175775051117,0.17387206852436066
1783002451126365400,5.555365478515625,-0.15504202246665955,0.055745501071214676,0.155953511595726
1783002451136417300,5.565417236328125,-0.03828383609652519,-0.1245504692196846,0.13857117295265198
1783002451146469600,5.5754697265625,0.035178132355213165,-0.21268297731876373,0.060174379497766495
1783002451156522500,5.5855224609375,0.04481145739555359,-0.15335530042648315,-0.05025971680879593
1783002451166574600,5.59557470703125,0.05116602033376694,0.026620859280228615,-0.15566444396972656
1783002451176626400,5.60562646484375,0.06406021118164062,0.11035771667957306,-0.26333072781562805
1783002451186678500,5.615678466796875,0.07449421286582947,0.10657496005296707,-0.36439263820648193
1783002451196730400,5.62573046875,0.08993661403656006,0.07686994224786758,-0.4419630169868469
1783002451206782500,5.635782470703125,0.05396530032157898,0.062241993844509125,-0.40808549523353577
1783002451216834600,5.64583447265625,0.03123714216053486,0.035336222499608994,-0.2799820899963379
1783002451226886400,5.655886474609375,0.0169247817248106,-0.012421978637576103,-0.1088300347328186
