time,seconds_elapsed,z,y,x
1783002589217843500,0.070843505859375,-0.99444580078125,-0.090484619140625,0.0162811279296875
1783002589227894500,0.08089453125,-1.007415771484375,-0.0928802490234375,0.0009918212890625
1783002589237946600,0.090946533203125,-1.01934814453125,-0.0894012451171875,-0.0016326904296875
1783002589247998500,0.10099853515625,-1.027069091796875,-0.0973052978515625,0.0128021240234375
1783002589258049500,0.111049560546875,-0.9851837158203125,-0.0938262939453125,0.0230865478515625
1783002589268101400,0.121101318359375,-0.9570465087890625,-0.076019287109375,0.0153961181640625
1783002589278153700,0.13115380859375,-0.9859771728515625,-0.0695037841796875,0.01483154296875
1783002589288204500,0.14120458984375,-1.0228271484375,-0.079833984375,0.0076751708984375
1783002589298256600,0.151256591796875,-1.0154876708984375,-0.0879364013671875,0.023529052734375
1783002589308308500,0.16130859375,-0.999298095703125,-0.0790863037109375,0.0483245849609375
1783002589318359600,0.171359619140625,-1.0076141357421875,-0.0765380859375,0.0532379150390625
1783002589328411600,0.18141162109375,-1.0048675537109375,-0.0809326171875,0.0447998046875
1783002589338462500,0.19146240234375,-1.0006256103515625,-0.0805816650390625,0.0309906005859375
1783002589348514600,0.2015146484375,-1.014892578125,-0.07904052734375,0.02154541015625
1783002589358566400,0.21156640625,-1.0410003662109375,-0.081695556640625,0.0286407470703125
1783002589368617500,0.221617431640625,-1.0487518310546875,-0.0913543701171875,0.03466796875
1783002589378669600,0.231669677734375,-1.0107879638671875,-0.083740234375,0.0299835205078125
1783002589388721400,0.241721435546875,-0.9823455810546875,-0.0669708251953125,0.02081298828125
1783002589398772500,0.2517724609375,-0.9976654052734375,-0.0695037841796875,0.0186614990234375
1783002589408824300,0.26182421875,-1.0085601806640625,-0.080413818359375,0.0262451171875
1783002589418876700,0.271876708984375,-0.9900970458984375,-0.087738037109375,0.036895751953125
1783002589428927500,0.281927490234375,-0.983673095703125,-0.0890045166015625,0.0373077392578125
1783002589438979600,0.2919794921875,-0.98822021484375,-0.0916900634765625,0.0305023193359375
1783002589449031700,0.30203173828125,-0.9902191162109375,-0.0896453857421875,0.0280303955078125
1783002589459082500,0.31208251953125,-0.987701416015625,-0.0915985107421875,0.0252685546875
1783002589469134600,0.322134521484375,-0.990692138671875,-0.0934906005859375,0.02691650390625
1783002589479186400,0.3321865234375,-0.99658203125,-0.099700927734375,0.0277099609375
1783002589489237500,0.342237548828125,-0.9989013671875,-0.1008453369140625,0.0212554931640625
1783002589499289600,0.35228955078125,-1.003021240234375,-0.0969696044921875,0.01434326171875
1783002589509340400,0.36234033203125,-1.005859375,-0.0987396240234375,0.0145111083984375
1783002589519392500,0.372392578125,-0.9967193603515625,-0.1004638671875,0.0135955810546875
1783002589529444400,0.3824443359375,-0.99810791015625,-0.0961151123046875,0.0156707763671875
1783002589539495400,0.392495361328125,-1.0181884765625,-0.092864990234375,0.0180511474609375
1783002589549547500,0.402547607421875,-1.03350830078125,-0.0899200439453125,0.0327301025390625
1783002589559599600,0.412599609375,-1.0388336181640625,-0.0964813232421875,0.0376739501953125
1783002589569650700,0.422650634765625,-1.0424041748046875,-0.1004791259765625,0.0262908935546875
1783002589579702500,0.43270263671875,-1.03790283203125,-0.0989837646484375,0.01312255859375
1783002589589754600,0.442754638671875,-1.0018463134765625,-0.0935516357421875,0.0051727294921875
1783002589599805700,0.4528056640625,-0.9809417724609375,-0.092041015625,0.00537109375
1783002589609857500,0.462857421875,-0.976898193359375,-0.09765625,0.0102996826171875
1783002589619909600,0.47290966796875,-0.97821044921875,-0.093353271484375,0.02197265625
1783002589629960400,0.48296044921875,-0.9941558837890625,-0.09576416015625,0.0333404541015625
1783002589640012500,0.493012451171875,-0.9799041748046875,-0.1055755615234375,0.0333404541015625
1783002589650064400,0.503064453125,-0.982391357421875,-0.10198974609375,0.036590576171875
1783002589660115500,0.513115478515625,-1.0074615478515625,-0.0976104736328125,0.0453338623046875
1783002589670167600,0.52316748046875,-1.0066375732421875,-0.101348876953125,0.051513671875
1783002589680218400,0.53321826171875,-1.001953125,-0.102569580078125,0.0572967529296875
1783002589690270500,0.5432705078125,-1.01611328125,-0.104339599609375,0.056640625
1783002589700322600,0.553322509765625,-1.0122528076171875,-0.1043243408203125,0.038238525390625
1783002589710373600,0.56337353515625,-1.006500244140625,-0.096527099609375,0.02215576171875
1783002589720425700,0.57342578125,-0.9957275390625,-0.088775634765625,0.0252685546875
1783002589730477600,0.5834775390625,-0.98773193359375,-0.0864105224609375,0.038055419921875
1783002589740528600,0.593528564453125,-0.98675537109375,-0.0927886962890625,0.046173095703125
1783002589750580500,0.60358056640625,-0.9818267822265625,-0.097686767578125,0.04510498046875
1783002589760632600,0.613632568359375,-0.9962005615234375,-0.091766357421875,0.039276123046875
1783002589770683600,0.62368359375,-1.0120849609375,-0.0872344970703125,0.0333709716796875
1783002589780735500,0.633735595703125,-1.004150390625,-0.09075927734375,0.0364227294921875
1783002589790787600,0.64378759765625,-0.989593505859375,-0.0952606201171875,0.033843994140625
1783002589800838400,0.65383837890625,-0.989410400390625,-0.090362548828125,0.0347442626953125
1783002589810890500,0.663890380859375,-0.998748779296875,-0.091949462890625,0.039520263671875
1783002589820942600,0.673942626953125,-1.005462646484375,-0.1006622314453125,0.0401153564453125
1783002589830993700,0.68399365234375,-1.0099945068359375,-0.1042938232421875,0.034149169921875
1783002589841045500,0.69404541015625,-1.0117645263671875,-0.1041259765625,0.0225830078125
1783002589851096600,0.7040966796875,-1.0338134765625,-0.1051177978515625,0.01165771484375
1783002589861148700,0.714148681640625,-1.0272674560546875,-0.10491943359375,0.0148468017578125
1783002589871200500,0.724200439453125,-1.00579833984375,-0.102630615234375,0.015655517578125
1783002589881251600,0.73425146484375,-1.001068115234375,-0.1021728515625,0.0145721435546875
1783002589891303400,0.744303466796875,-0.9923095703125,-0.1035614013671875,0.0182952880859375
1783002589901355500,0.75435546875,-0.9888916015625,-0.105194091796875,0.0224761962890625
1783002589911406600,0.764406494140625,-0.992431640625,-0.10467529296875,0.024322509765625
1783002589921458400,0.77445849609375,-0.9959869384765625,-0.106658935546875,0.025970458984375
1783002589931510500,0.784510498046875,-0.975830078125,-0.1065216064453125,0.0245819091796875
1783002589941561300,0.794561279296875,-0.96820068359375,-0.1039581298828125,0.0256805419921875
1783002589951613400,0.804613525390625,-0.9816131591796875,-0.0978851318359375,0.0262451171875
1783002589961665500,0.81466552734375,-0.990814208984375,-0.101959228515625,0.009246826171875
1783002589971716600,0.824716552734375,-0.985107421875,-0.0970001220703125,0.0052490234375
1783002589981768700,0.834768798828125,-1.00567626953125,-0.0867156982421875,0.020355224609375
1783002589991820500,0.844820556640625,-1.000030517578125,-0.084747314453125,0.03033447265625
1783002590001871600,0.85487158203125,-0.987884521484375,-0.07061767578125,0.0405731201171875
1783002590011923500,0.86492333984375,-0.9894256591796875,-0.0594482421875,0.043121337890625
1783002590021974500,0.874974609375,-1.016265869140625,-0.067352294921875,0.0399627685546875
1783002590032026600,0.885026611328125,-1.0352783203125,-0.0822296142578125,0.03497314453125
1783002590042078500,0.895078369140625,-1.03619384765625,-0.0897216796875,0.0299224853515625
1783002590052129500,0.905129638671875,-1.0231475830078125,-0.0883941650390625,0.0267486572265625
1783002590062181400,0.915181396484375,-1.022125244140625,-0.0868377685546875,0.025390625
1783002590072233500,0.9252333984375,-1.0233612060546875,-0.0914764404296875,0.029693603515625
1783002590082284500,0.935284423828125,-1.0152130126953125,-0.0875091552734375,0.0414581298828125
1783002590092336600,0.945336669921875,-1.033660888671875,-0.08929443359375,0.0453948974609375
1783002590102388700,0.955388671875,-1.020050048828125,-0.0970001220703125,0.0386505126953125
1783002590112442600,0.965442626953125,-0.9984283447265625,-0.09295654296875,0.032562255859375
1783002590122494700,0.97549462890625,-1.01226806640625,-0.09039306640625,0.0341644287109375
1783002590132546800,0.985546875,-1.011138916015625,-0.0994873046875,0.0328216552734375
1783002590142597600,0.99559765625,-0.9879302978515625,-0.0975189208984375,0.028839111328125
1783002590152650000,1.00564990234375,-0.9908447265625,-0.08740234375,0.0361785888671875
1783002590162700800,1.01570068359375,-1.00543212890625,-0.08709716796875,0.0463714599609375
1783002590172753000,1.0257529296875,-0.9921722412109375,-0.08984375,0.0422515869140625
1783002590182804700,1.0358046875,-0.9837493896484375,-0.085540771484375,0.03118896484375
1783002590192855800,1.045855712890625,-0.9876251220703125,-0.082916259765625,0.0254058837890625
1783002590202908000,1.055907958984375,-1.0007476806640625,-0.0923309326171875,0.0259552001953125
1783002590212959700,1.065959716796875,-1.001434326171875,-0.099884033203125,0.0245208740234375
1783002590223010800,1.0760107421875,-1.003814697265625,-0.0963897705078125,0.0242462158203125
1783002590233062700,1.086062744140625,-1.009796142578125,-0.093841552734375,0.024139404296875
1783002590243114800,1.09611474609375,-1.0171661376953125,-0.08734130859375,0.0311279296875
1783002590253165800,1.106165771484375,-1.01336669921875,-0.08209228515625,0.041412353515625
1783002590263217700,1.1162177734375,-1.0109100341796875,-0.0815582275390625,0.05206298828125
1783002590273270000,1.12627001953125,-1.008392333984375,-0.0875091552734375,0.0421600341796875
1783002590283320800,1.13632080078125,-1.011444091796875,-0.08856201171875,0.0240936279296875
1783002590293373000,1.146373046875,-1.01654052734375,-0.090118408203125,0.0205078125
1783002590303424000,1.156424072265625,-1.020416259765625,-0.093231201171875,0.023529052734375
1783002590313475800,1.166475830078125,-1.017425537109375,-0.1022796630859375,0.0125274658203125
1783002590323528000,1.17652783203125,-1.00408935546875,-0.0986175537109375,0.0086212158203125
1783002590333578800,1.186578857421875,-1.0096588134765625,-0.0883636474609375,0.020294189453125
1783002590343630800,1.196630859375,-1.0090179443359375,-0.0883331298828125,0.023773193359375
1783002590353682700,1.2066826171875,-1.00177001953125,-0.0858612060546875,0.0321807861328125
1783002590363733800,1.216733642578125,-1.0130157470703125,-0.0843353271484375,0.041717529296875
1783002590373785900,1.226785888671875,-1.014312744140625,-0.0909423828125,0.0338592529296875
1783002590383837700,1.236837646484375,-1.008636474609375,-0.0927734375,0.0267181396484375
1783002590393888800,1.246888671875,-1.0106353759765625,-0.09228515625,0.031494140625
1783002590403940600,1.256940673828125,-1.0071868896484375,-0.0949249267578125,0.03680419921875
1783002590413993000,1.266992919921875,-1.0026702880859375,-0.0944671630859375,0.0374603271484375
1783002590424043800,1.277043701171875,-0.9987945556640625,-0.0932769775390625,0.0318145751953125
1783002590434095900,1.287095947265625,-0.9870452880859375,-0.090240478515625,0.0206756591796875
1783002590444147700,1.297147705078125,-0.978302001953125,-0.0863800048828125,0.0167083740234375
1783002590454198800,1.30719873046875,-0.982421875,-0.0841827392578125,0.025604248046875
1783002590464251000,1.3172509765625,-0.9945831298828125,-0.0879669189453125,0.039031982421875
1783002590474301700,1.3273017578125,-0.991546630859375,-0.093414306640625,0.0459747314453125
1783002590484353800,1.337353759765625,-0.9899139404296875,-0.09539794921875,0.047119140625
1783002590494405600,1.347405517578125,-1.011474609375,-0.0898284912109375,0.0461578369140625
1783002590504456700,1.357456787109375,-1.023040771484375,-0.0843505859375,0.0395660400390625
1783002590514508800,1.3675087890625,-0.990020751953125,-0.0970916748046875,0.0331268310546875
1783002590524560600,1.377560546875,-0.97509765625,-0.1046600341796875,0.0286865234375
1783002590534611700,1.38761181640625,-0.9788360595703125,-0.0943603515625,0.0238189697265625
1783002590544663800,1.397663818359375,-0.9772186279296875,-0.0798797607421875,0.024200439453125
1783002590554716000,1.4077158203125,-0.9778289794921875,-0.083099365234375,0.02685546875
1783002590564767000,1.41776708984375,-0.9949188232421875,-0.0906524658203125,0.0367584228515625
1783002590574818800,1.42781884765625,-1.02972412109375,-0.0938720703125,0.0451812744140625
1783002590584871000,1.437870849609375,-1.0440673828125,-0.0974884033203125,0.0497894287109375
1783002590594921700,1.447921630859375,-1.023406982421875,-0.100372314453125,0.0430450439453125
1783002590604973800,1.457973876953125,-1.014801025390625,-0.0991668701171875,0.031890869140625
1783002590615025000,1.46802490234375,-1.013519287109375,-0.0963897705078125,0.0274810791015625
1783002590625076700,1.47807666015625,-1.0081024169921875,-0.097900390625,0.0266265869140625
1783002590635128800,1.48812890625,-1.001983642578125,-0.10589599609375,0.022735595703125
1783002590645179600,1.4981796875,-1.00103759765625,-0.104644775390625,0.01922607421875
1783002590655231700,1.508231689453125,-1.0167388916015625,-0.0986175537109375,0.0259552001953125
1783002590665283600,1.51828369140625,-1.019500732421875,-0.1000823974609375,0.0349884033203125
1783002590675334700,1.528334716796875,-1.00445556640625,-0.10125732421875,0.035247802734375
1783002590685387000,1.538386962890625,-1.0048065185546875,-0.0985260009765625,0.0344390869140625
1783002590695438800,1.54843896484375,-1.0100860595703125,-0.0992584228515625,0.0319976806640625
1783002590705490000,1.558489990234375,-1.0036163330078125,-0.1030426025390625,0.0269012451171875
1783002590715541800,1.568541748046875,-0.9990997314453125,-0.105133056640625,0.021087646484375
1783002590725593900,1.57859375,-1.00262451171875,-0.1038665771484375,0.0186309814453125
1783002590735645000,1.58864501953125,-1.0007476806640625,-0.1015625,0.02789306640625
1783002590745696800,1.59869677734375,-0.9965972900390625,-0.1012115478515625,0.0421142578125
1783002590755747800,1.608747802734375,-0.981964111328125,-0.100189208984375,0.0411529541015625
1783002590765799700,1.618799560546875,-0.9776153564453125,-0.09716796875,0.030487060546875
1783002590775851800,1.628851806640625,-0.998779296875,-0.0982513427734375,0.029449462890625
1783002590785902800,1.63890283203125,-1.0118865966796875,-0.1017913818359375,0.0305633544921875
1783002590795954700,1.64895458984375,-1.0045623779296875,-0.0960693359375,0.036407470703125
1783002590806006800,1.6590068359375,-1.018890380859375,-0.0970916748046875,0.0391998291015625
1783002590816057600,1.6690576171875,-1.02471923828125,-0.103912353515625,0.0337066650390625
1783002590826110000,1.67910986328125,-1.010223388671875,-0.1028594970703125,0.0308685302734375
1783002590836161800,1.689161865234375,-1.0062408447265625,-0.096588134765625,0.0362091064453125
1783002590846212900,1.699212890625,-0.9910430908203125,-0.0994415283203125,0.0350341796875
1783002590856264700,1.7092646484375,-0.9956817626953125,-0.1065216064453125,0.0316162109375
1783002590866316800,1.71931689453125,-1.008819580078125,-0.1126251220703125,0.0356903076171875
1783002590876368000,1.729367919921875,-1.0015716552734375,-0.1116180419921875,0.037322998046875
1783002590886419700,1.739419677734375,-0.9997711181640625,-0.110321044921875,0.0374755859375
1783002590896471800,1.749471923828125,-0.9982452392578125,-0.1094512939453125,0.0330963134765625
1783002590906522600,1.759522705078125,-0.9915771484375,-0.1069793701171875,0.034759521484375
1783002590916574700,1.76957470703125,-0.9692840576171875,-0.1090087890625,0.03326416015625
1783002590926626600,1.77962646484375,-0.9672088623046875,-0.1186065673828125,0.024444580078125
1783002590936677600,1.789677734375,-0.9786376953125,-0.1214447021484375,0.0169219970703125
1783002590946730000,1.79972998046875,-0.988739013671875,-0.112091064453125,0.0193939208984375
1783002590956780800,1.80978076171875,-1.0072784423828125,-0.1091461181640625,0.0335693359375
1783002590966833000,1.8198330078125,-1.01263427734375,-0.1133270263671875,0.044769287109375
1783002590976884700,1.829884765625,-1.0093536376953125,-0.1094818115234375,0.0474853515625
1783002590986935800,1.839935791015625,-1.0097808837890625,-0.104583740234375,0.042633056640625
1783002590996988000,1.84998779296875,-1.0037841796875,-0.10626220703125,0.0418853759765625
1783002591007039700,1.860039794921875,-0.9935455322265625,-0.11541748046875,0.0401153564453125
1783002591017090800,1.8700908203125,-0.982574462890625,-0.12127685546875,0.029815673828125
1783002591027142700,1.880142578125,-0.9833221435546875,-0.123992919921875,0.0141754150390625
1783002591037194800,1.89019482421875,-0.994720458984375,-0.124603271484375,0.00299072265625
1783002591047245800,1.900245849609375,-0.9955902099609375,-0.1160736083984375,0.0060272216796875
1783002591057297700,1.910297607421875,-0.998046875,-0.1080474853515625,0.0260009765625
1783002591067349800,1.920349853515625,-1.008544921875,-0.10797119140625,0.04083251953125
1783002591077400600,1.930400634765625,-1.0086517333984375,-0.110260009765625,0.0389404296875
1783002591087453000,1.940452880859375,-1.01470947265625,-0.11077880859375,0.0348052978515625
1783002591097504000,1.95050390625,-1.0104827880859375,-0.1117706298828125,0.0352935791015625
1783002591107551500,1.960551513671875,-0.9972686767578125,-0.1188812255859375,0.030181884765625
1783002591117603600,1.970603515625,-1.0057525634765625,-0.122314453125,0.026885986328125
1783002591127654700,1.980654541015625,-1.017120361328125,-0.123870849609375,0.0242156982421875
1783002591137706500,1.99070654296875,-0.9969940185546875,-0.11883544921875,0.021820068359375
1783002591147758600,2.000758544921875,-0.9962921142578125,-0.108734130859375,0.0298309326171875
1783002591157809400,2.010809326171875,-1.0042266845703125,-0.1089630126953125,0.0405731201171875
1783002591167861500,2.020861572265625,-0.9871368408203125,-0.1078643798828125,0.0400390625
1783002591177913300,2.030913330078125,-0.9971923828125,-0.0997467041015625,0.03436279296875
1783002591187964400,2.04096435546875,-1.0221710205078125,-0.1042022705078125,0.0329437255859375
1783002591198016800,2.051016845703125,-1.016387939453125,-0.1115570068359375,0.0170135498046875
1783002591208068600,2.061068603515625,-0.9969329833984375,-0.1106109619140625,0.0025177001953125
1783002591218119700,2.07111962890625,-0.9651641845703125,-0.1126861572265625,-0.0001678466796875
1783002591228171500,2.081171630859375,-0.969696044921875,-0.123565673828125,0.0106964111328125
1783002591238223600,2.0912236328125,-0.999053955078125,-0.137786865234375,0.0240325927734375
1783002591248274700,2.101274658203125,-0.9998626708984375,-0.13250732421875,0.0356597900390625
1783002591258326500,2.111326416015625,-0.998626708984375,-0.1155853271484375,0.0437469482421875
1783002591268377600,2.121377685546875,-0.99517822265625,-0.1105804443359375,0.0279083251953125
1783002591278429400,2.131429443359375,-0.9987945556640625,-0.113006591796875,0.0303192138671875
1783002591288481500,2.1414814453125,-0.9774017333984375,-0.109771728515625,0.034332275390625
1783002591298532600,2.15153271484375,-0.9652252197265625,-0.0989227294921875,0.0284423828125
1783002591308584400,2.16158447265625,-0.9805908203125,-0.089752197265625,0.026031494140625
1783002591318636500,2.171636474609375,-1.009918212890625,-0.09063720703125,0.0228271484375
1783002591328687400,2.181687255859375,-1.031005859375,-0.0938568115234375,0.0232086181640625
1783002591338739700,2.19173974609375,-1.03564453125,-0.091705322265625,0.0227813720703125
1783002591348791600,2.20179150390625,-1.0447540283203125,-0.0881500244140625,0.0245361328125
1783002591358842600,2.211842529296875,-1.040069580078125,-0.0860595703125,0.0286712646484375
1783002591368894500,2.22189453125,-1.034576416015625,-0.0848236083984375,0.0300445556640625
1783002591378946600,2.231946533203125,-1.0487518310546875,-0.0900421142578125,0.028839111328125
1783002591388997600,2.24199755859375,-1.0339508056640625,-0.1013946533203125,0.0194091796875
1783002591399049500,2.252049560546875,-1.0169830322265625,-0.098388671875,0.0147857666015625
1783002591409100500,2.2621005859375,-1.0197906494140625,-0.09735107421875,0.01654052734375
1783002591419152400,2.27215234375,-1.0120391845703125,-0.1034393310546875,0.0208587646484375
1783002591429204500,2.28220458984375,-1.000244140625,-0.1042022705078125,0.0275726318359375
1783002591439255600,2.292255615234375,-1.004913330078125,-0.1043243408203125,0.0309295654296875
1783002591449307400,2.302307373046875,-1.0077362060546875,-0.1077423095703125,0.0317840576171875
1783002591459359700,2.31235986328125,-0.98870849609375,-0.1060943603515625,0.027618408203125
1783002591469410600,2.32241064453125,-0.980316162109375,-0.10382080078125,0.0201263427734375
1783002591479462700,2.332462646484375,-0.981292724609375,-0.1029510498046875,0.0169677734375
1783002591489514500,2.342514404296875,-0.9873199462890625,-0.1053314208984375,0.0165863037109375
1783002591499565600,2.352565673828125,-0.9883880615234375,-0.1085357666015625,0.0189971923828125
1783002591509617700,2.36261767578125,-0.985015869140625,-0.1051788330078125,0.0138397216796875
1783002591519669500,2.37266943359375,-0.9858856201171875,-0.1000518798828125,0.012451171875
1783002591529720600,2.382720458984375,-0.987762451171875,-0.1027374267578125,0.0135498046875
1783002591539772400,2.3927724609375,-0.9977874755859375,-0.1034393310546875,0.01416015625
1783002591549824500,2.402824462890625,-1.0056304931640625,-0.09912109375,0.01824951171875
1783002591559875600,2.41287548828125,-1.01458740234375,-0.0948638916015625,0.0267486572265625
1783002591569927400,2.422927490234375,-1.0165863037109375,-0.0950775146484375,0.0260162353515625
1783002591579979800,2.432979736328125,-1.0180511474609375,-0.0951995849609375,0.02215576171875
1783002591590030300,2.4430302734375,-1.0186767578125,-0.0950164794921875,0.0218048095703125
1783002591600082700,2.453082763671875,-1.00531005859375,-0.0939483642578125,0.020355224609375
1783002591610133800,2.4631337890625,-0.9970855712890625,-0.09075927734375,0.0224609375
1783002591620185600,2.473185546875,-1.0032806396484375,-0.0910186767578125,0.0239715576171875
1783002591630237700,2.48323779296875,-1.01019287109375,-0.0980072021484375,0.0186614990234375
1783002591640288500,2.49328857421875,-1.0143280029296875,-0.1025390625,0.0167999267578125
1783002591650340600,2.503340576171875,-1.0164031982421875,-0.0996856689453125,0.0236053466796875
1783002591660392400,2.513392333984375,-1.0041351318359375,-0.0967254638671875,0.028900146484375
1783002591670443500,2.523443603515625,-0.9907684326171875,-0.089691162109375,0.037139892578125
1783002591680495600,2.53349560546875,-0.9896697998046875,-0.091796875,0.0378265380859375
1783002591690547500,2.54354736328125,-0.994232177734375,-0.0995025634765625,0.0370330810546875
1783002591700598500,2.5535986328125,-0.9913177490234375,-0.101715087890625,0.037017822265625
1783002591710650400,2.563650390625,-0.997589111328125,-0.1019439697265625,0.03240966796875
1783002591720702700,2.57370263671875,-1.005584716796875,-0.104217529296875,0.025909423828125
1783002591730753500,2.58375341796875,-0.99920654296875,-0.10137939453125,0.0269927978515625
1783002591740805600,2.5938056640625,-0.9926300048828125,-0.099273681640625,0.0279998779296875
1783002591750857500,2.603857421875,-0.9866943359375,-0.0974273681640625,0.0284423828125
1783002591760908500,2.613908447265625,-0.9882354736328125,-0.097198486328125,0.0294342041015625
1783002591770960600,2.623960693359375,-0.9906158447265625,-0.0964813232421875,0.0288543701171875
1783002591781012500,2.634012451171875,-0.99127197265625,-0.0959625244140625,0.0230255126953125
1783002591791063600,2.6440634765625,-0.997344970703125,-0.0966644287109375,0.0204010009765625
1783002591801115400,2.654115478515625,-0.998382568359375,-0.0965728759765625,0.0203704833984375
1783002591811166500,2.66416650390625,-1.0033111572265625,-0.096466064453125,0.023712158203125
1783002591821218600,2.674218505859375,-1.0224151611328125,-0.0967254638671875,0.028839111328125
1783002591831270400,2.6842705078125,-1.0152587890625,-0.0978546142578125,0.0290374755859375
1783002591841321500,2.694321533203125,-1.0132904052734375,-0.096343994140625,0.0265045166015625
1783002591851373300,2.704373291015625,-1.027191162109375,-0.0973663330078125,0.022918701171875
1783002591861425700,2.71442578125,-1.035797119140625,-0.1002197265625,0.02215576171875
1783002591871476700,2.724476806640625,-1.02178955078125,-0.101531982421875,0.0296630859375
1783002591881528600,2.734528564453125,-1.0047454833984375,-0.0997772216796875,0.03106689453125
1783002591891580700,2.74458056640625,-0.9974212646484375,-0.0995330810546875,0.0263519287109375
1783002591901631500,2.754631591796875,-0.989288330078125,-0.101531982421875,0.0218658447265625
1783002591911683600,2.76468359375,-0.984344482421875,-0.100341796875,0.0254058837890625
1783002591921735400,2.7747353515625,-0.9915924072265625,-0.10205078125,0.030914306640625
1783002591931786500,2.784786376953125,-0.991241455078125,-0.1045379638671875,0.0354461669921875
1783002591941838600,2.794838623046875,-0.9925689697265625,-0.105133056640625,0.0300445556640625
1783002591951890400,2.804890380859375,-0.9936370849609375,-0.1058502197265625,0.0218353271484375
1783002591961941500,2.81494140625,-1.00201416015625,-0.1055145263671875,0.016754150390625
1783002591971993300,2.824993408203125,-1.002960205078125,-0.1052093505859375,0.009033203125
1783002591982045700,2.835045654296875,-0.9892578125,-0.094390869140625,0.017242431640625
1783002591992096500,2.845096435546875,-0.9961090087890625,-0.089019775390625,0.0286712646484375
1783002592002148600,2.855148681640625,-1.0111846923828125,-0.094329833984375,0.0316162109375
1783002592012199700,2.86519970703125,-1.0113677978515625,-0.1024322509765625,0.0254669189453125
1783002592022251500,2.87525146484375,-1.00921630859375,-0.1007843017578125,0.020172119140625
1783002592032303600,2.8853037109375,-1.0148162841796875,-0.1015167236328125,0.017578125
1783002592042354700,2.895354736328125,-1.0140838623046875,-0.1055755615234375,0.02117919921875
1783002592052406500,2.905406494140625,-1.00103759765625,-0.104400634765625,0.02423095703125
1783002592062458600,2.915458740234375,-1.001068115234375,-0.1024322509765625,0.0228118896484375
1783002592072509400,2.925509521484375,-1.0111846923828125,-0.1033172607421875,0.02496337890625
1783002592082561500,2.9355615234375,-1.0087127685546875,-0.1002655029296875,0.028656005859375
1783002592092613400,2.94561328125,-1.0195465087890625,-0.0990753173828125,0.0291900634765625
1783002592102664400,2.95566455078125,-1.019287109375,-0.103363037109375,0.01983642578125
1783002592112720400,2.965720458984375,-1.007843017578125,-0.1043548583984375,0.007965087890625
1783002592122772500,2.9757724609375,-1.0070343017578125,-0.1063079833984375,0.00543212890625
1783002592132823600,2.985823486328125,-1.0028839111328125,-0.106719970703125,0.00811767578125
1783002592142875400,2.99587548828125,-1.00360107421875,-0.1056976318359375,0.0176544189453125
1783002592152927500,3.005927490234375,-1.0143585205078125,-0.104034423828125,0.0311126708984375
1783002592162978300,3.015978271484375,-1.0235748291015625,-0.10205078125,0.0357666015625
1783002592173030400,3.026030517578125,-1.0190887451171875,-0.0988616943359375,0.0323028564453125
1783002592183081500,3.03608154296875,-1.0030059814453125,-0.0945587158203125,0.0264739990234375
1783002592193133300,3.04613330078125,-0.998992919921875,-0.0991363525390625,0.012115478515625
1783002592203185400,3.056185302734375,-1.013397216796875,-0.1107330322265625,0.0003509521484375
1783002592213236200,3.066236328125,-1.0140380859375,-0.118011474609375,0.00543212890625
1783002592223288300,3.076288330078125,-1.000274658203125,-0.114166259765625,0.0081939697265625
1783002592233340400,3.08634033203125,-0.99725341796875,-0.1115875244140625,0.0156402587890625
1783002592243391500,3.0963916015625,-0.99920654296875,-0.112091064453125,0.0269775390625
1783002592253443600,3.106443603515625,-0.99615478515625,-0.111297607421875,0.03765869140625
1783002592263495400,3.116495361328125,-0.9818267822265625,-0.113555908203125,0.0380859375
1783002592273546500,3.12654638671875,-0.9802703857421875,-0.1129302978515625,0.037078857421875
1783002592283598300,3.136598388671875,-0.9814453125,-0.1157989501953125,0.0355072021484375
1783002592293650400,3.146650390625,-0.9718170166015625,-0.1181182861328125,0.030731201171875
1783002592303701500,3.156701416015625,-0.9690399169921875,-0.120361328125,0.019439697265625
1783002592313753300,3.16675341796875,-0.9768829345703125,-0.1229095458984375,0.0082244873046875
1783002592323805400,3.176805419921875,-0.9720001220703125,-0.122772216796875,0.005950927734375
1783002592333856300,3.186856201171875,-0.9673004150390625,-0.1130828857421875,0.0200042724609375
1783002592343908400,3.196908447265625,-0.980682373046875,-0.1107177734375,0.0277099609375
1783002592353960400,3.20696044921875,-0.9687652587890625,-0.1110382080078125,0.0237274169921875
1783002592364011500,3.217011474609375,-0.9804840087890625,-0.10504150390625,0.0247344970703125
1783002592374063600,3.227063720703125,-1.0088958740234375,-0.0998382568359375,0.029937744140625
1783002592384114400,3.237114501953125,-1.016143798828125,-0.1042633056640625,0.029296875
1783002592394166500,3.24716650390625,-0.9857940673828125,-0.1011962890625,0.0240631103515625
1783002592404218400,3.25721826171875,-0.9770355224609375,-0.0924835205078125,0.0238189697265625
1783002592414269400,3.26726953125,-0.99102783203125,-0.0957183837890625,0.0220794677734375
1783002592424321500,3.277321533203125,-1.010223388671875,-0.1031646728515625,0.0267181396484375
1783002592434373400,3.287373291015625,-1.0251922607421875,-0.1011505126953125,0.029998779296875
1783002592444424400,3.297424560546875,-1.0269012451171875,-0.1013336181640625,0.026397705078125
1783002592454476300,3.307476318359375,-1.0177154541015625,-0.0980224609375,0.0269927978515625
1783002592464528400,3.3175283203125,-1.0149383544921875,-0.09710693359375,0.030792236328125
1783002592474579500,3.327579345703125,-1.0109405517578125,-0.0947418212890625,0.0374298095703125
1783002592484631300,3.33763134765625,-1.019287109375,-0.09283447265625,0.0366973876953125
1783002592494683400,3.347683349609375,-1.0390625,-0.098846435546875,0.032379150390625
1783002592504734500,3.357734375,-1.0393218994140625,-0.1006927490234375,0.02325439453125
1783002592514786600,3.36778662109375,-1.040924072265625,-0.0938873291015625,0.0187835693359375
1783002592524838400,3.37783837890625,-1.043212890625,-0.09576416015625,0.019378662109375
1783002592534889500,3.387889404296875,-1.0139617919921875,-0.10113525390625,0.021087646484375
1783002592544941300,3.39794140625,-1.000030517578125,-0.0997314453125,0.02313232421875
1783002592554993400,3.407993408203125,-1.0020294189453125,-0.1024932861328125,0.018341064453125
1783002592565044500,3.41804443359375,-1.005584716796875,-0.1064605712890625,0.018463134765625
1783002592575096300,3.428096435546875,-1.002899169921875,-0.109893798828125,0.02032470703125
1783002592585148400,3.4381484375,-0.999786376953125,-0.107818603515625,0.0233306884765625
1783002592595199200,3.44819921875,-1.0031585693359375,-0.1046142578125,0.031005859375
1783002592605251300,3.458251220703125,-1.0065765380859375,-0.10198974609375,0.04156494140625
1783002592615302400,3.468302490234375,-1.00457763671875,-0.0986480712890625,0.0423583984375
1783002592625354500,3.4783544921875,-0.9913177490234375,-0.0951080322265625,0.0362091064453125
1783002592635406600,3.488406494140625,-0.9904327392578125,-0.0941009521484375,0.0322418212890625
1783002592645457400,3.49845751953125,-0.9993438720703125,-0.098052978515625,0.0283355712890625
1783002592655509500,3.508509521484375,-1.0001678466796875,-0.1023406982421875,0.0233612060546875
1783002592665561300,3.518561279296875,-0.9952545166015625,-0.097198486328125,0.0268402099609375
1783002592675612400,3.5286123046875,-1.0021514892578125,-0.094573974609375,0.0364227294921875
1783002592685664500,3.53866455078125,-1.0032196044921875,-0.0968017578125,0.0362701416015625
1783002592695716400,3.54871630859375,-0.998046875,-0.0955657958984375,0.029449462890625
1783002592705767400,3.558767333984375,-0.9987030029296875,-0.0899810791015625,0.0240325927734375
1783002592715819300,3.5688193359375,-0.9984130859375,-0.089630126953125,0.02423095703125
1783002592725871400,3.578871337890625,-0.9921875,-0.094268798828125,0.0234832763671875
1783002592735922400,3.58892236328125,-0.9919891357421875,-0.099517822265625,0.0144195556640625
1783002592745974300,3.598974365234375,-0.9954681396484375,-0.101959228515625,0.008636474609375
1783002592756026600,3.609026611328125,-0.9979705810546875,-0.104339599609375,0.014007568359375
1783002592766077400,3.619077392578125,-0.99810791015625,-0.1085662841796875,0.016143798828125
1783002592776129500,3.629129638671875,-1.0062408447265625,-0.104644775390625,0.0189056396484375
1783002592786181400,3.639181396484375,-1.0137176513671875,-0.100799560546875,0.0235595703125
1783002592796232400,3.649232421875,-1.0103302001953125,-0.0987701416015625,0.0211944580078125
1783002592806284500,3.659284423828125,-1.0137786865234375,-0.096160888671875,0.0176239013671875
1783002592816336400,3.66933642578125,-1.019622802734375,-0.0951690673828125,0.0211334228515625
1783002592826387500,3.679387451171875,-1.019927978515625,-0.10015869140625,0.0205078125
1783002592836439300,3.689439208984375,-1.0160369873046875,-0.103973388671875,0.0124969482421875
1783002592846490400,3.699490478515625,-1.00885009765625,-0.1044769287109375,0.009674072265625
1783002592856542500,3.70954248046875,-1.010467529296875,-0.105224609375,0.0245361328125
1783002592866594300,3.71959423828125,-1.0099945068359375,-0.1071014404296875,0.0268707275390625
1783002592876645400,3.729645263671875,-1.0121002197265625,-0.10723876953125,0.024261474609375
1783002592886697500,3.739697509765625,-1.0008544921875,-0.106658935546875,0.023406982421875
1783002592896749600,3.74974951171875,-0.995361328125,-0.105377197265625,0.0257110595703125
1783002592906800400,3.75980029296875,-0.991546630859375,-0.109130859375,0.0217132568359375
1783002592916852500,3.7698525390625,-0.974273681640625,-0.1169281005859375,0.0163116455078125
1783002592926904300,3.779904296875,-0.9759368896484375,-0.1135711669921875,0.0110015869140625
1783002592936955400,3.789955322265625,-0.9945831298828125,-0.1099090576171875,-0.0028076171875
1783002592947007500,3.800007568359375,-0.996368408203125,-0.1113433837890625,-0.012908935546875
1783002592957059300,3.810059326171875,-0.991790771484375,-0.10479736328125,-0.0029296875
1783002592967110400,3.8201103515625,-1.0058441162109375,-0.1007080078125,0.0035552978515625
1783002592977162200,3.830162353515625,-1.00897216796875,-0.1015472412109375,0.0113372802734375
1783002592987214300,3.84021435546875,-0.9996337890625,-0.1000213623046875,0.0243988037109375
1783002592997265400,3.850265380859375,-0.9983062744140625,-0.096710205078125,0.032196044921875
1783002593007317200,3.860317138671875,-0.9989166259765625,-0.0983428955078125,0.0276031494140625
1783002593017369600,3.87036962890625,-0.9940185546875,-0.103668212890625,0.0176849365234375
1783002593027420400,3.88042041015625,-0.9977264404296875,-0.1029815673828125,0.0120086669921875
1783002593037472500,3.890472412109375,-1.00634765625,-0.10467529296875,0.0016632080078125
1783002593047524400,3.9005244140625,-1.00079345703125,-0.1066741943359375,-0.00555419921875
1783002593057575400,3.910575439453125,-0.9939117431640625,-0.1082763671875,-0.00531005859375
1783002593067627500,3.92062744140625,-0.9932403564453125,-0.1092376708984375,-0.003326416015625
1783002593077678300,3.93067822265625,-0.9980010986328125,-0.107513427734375,0.006011962890625
1783002593087730400,3.94073046875,-0.993438720703125,-0.104705810546875,0.009490966796875
1783002593097782300,3.9507822265625,-0.988525390625,-0.0977935791015625,0.014892578125
1783002593107829500,3.96082958984375,-0.990570068359375,-0.0990753173828125,0.0135650634765625
1783002593117881600,3.970881591796875,-1.006866455078125,-0.1005859375,0.007598876953125
1783002593127933400,3.980933349609375,-1.018310546875,-0.1008148193359375,0.001556396484375
1783002593137984500,3.990984619140625,-1.018218994140625,-0.09942626953125,0.0006561279296875
1783002593148036400,4.001036376953125,-1.013519287109375,-0.102142333984375,0.0049591064453125
1783002593158088400,4.01108837890625,-1.00592041015625,-0.1054534912109375,0.0123291015625
1783002593168139500,4.021139404296875,-1.000823974609375,-0.1080474853515625,0.0118408203125
1783002593178191400,4.03119140625,-0.993255615234375,-0.1075897216796875,0.0017547607421875
1783002593188243700,4.04124365234375,-0.987945556640625,-0.103118896484375,-0.0008544921875
1783002593198294500,4.05129443359375,-0.994140625,-0.10455322265625,-0.0009002685546875
1783002593208346600,4.0613466796875,-1.015380859375,-0.104248046875,0.017608642578125
1783002593218398500,4.0713984375,-1.035430908203125,-0.10186767578125,0.0483551025390625
1783002593228449500,4.081449462890625,-1.030426025390625,-0.10125732421875,0.04931640625
1783002593238501600,4.091501708984375,-1.0225067138671875,-0.1038970947265625,0.02313232421875
1783002593248553500,4.101553466796875,-1.0195159912109375,-0.0955657958984375,-0.000762939453125
1783002593258604500,4.1116044921875,-1.012725830078125,-0.088104248046875,-0.0068511962890625
1783002593268656400,4.121656494140625,-1.0071563720703125,-0.0914459228515625,-0.0019073486328125
1783002593278707500,4.13170751953125,-1.0050811767578125,-0.0936126708984375,0.0110015869140625
1783002593288759600,4.141759521484375,-1.00079345703125,-0.0981903076171875,0.0179901123046875
1783002593298811400,4.151811279296875,-0.996612548828125,-0.0981597900390625,0.01654052734375
1783002593308862500,4.161862548828125,-0.992156982421875,-0.0987701416015625,0.0177459716796875
1783002593318914600,4.17191455078125,-1.0009918212890625,-0.09954833984375,0.0330047607421875
1783002593328966700,4.181966552734375,-1.0023193359375,-0.0944061279296875,0.035888671875
1783002593339017700,4.192017822265625,-1.0037078857421875,-0.0903167724609375,0.02703857421875
1783002593349069600,4.202069580078125,-1.011627197265625,-0.0911407470703125,0.0178070068359375
1783002593359121700,4.21212158203125,-1.0045623779296875,-0.093475341796875,0.01776123046875
1783002593369172500,4.22217236328125,-0.9966888427734375,-0.09442138671875,0.0148468017578125
1783002593379224600,4.232224609375,-0.993438720703125,-0.0981597900390625,0.0030517578125
1783002593389276400,4.2422763671875,-0.98199462890625,-0.0965576171875,-0.001251220703125
1783002593399327500,4.252327392578125,-0.9784088134765625,-0.097381591796875,-0.0005340576171875
1783002593409379600,4.262379638671875,-0.979522705078125,-0.1005096435546875,0.00177001953125
1783002593419431400,4.272431396484375,-0.9899749755859375,-0.0977630615234375,0.0107421875
1783002593429482500,4.282482421875,-0.9918060302734375,-0.0960540771484375,0.009521484375
1783002593439534300,4.292534423828125,-0.991180419921875,-0.0933837890625,0.0039215087890625
1783002593449586700,4.302586669921875,-0.995635986328125,-0.0942535400390625,0.0052642822265625
1783002593459637800,4.3126376953125,-0.9994659423828125,-0.097900390625,0.004913330078125
1783002593469689600,4.322689697265625,-1.002593994140625,-0.098876953125,0.004913330078125
1783002593479741700,4.33274169921875,-1.00408935546875,-0.09832763671875,0.0074615478515625
1783002593489792500,4.34279248046875,-0.9972686767578125,-0.0975341796875,0.0100555419921875
1783002593499844600,4.3528447265625,-0.99603271484375,-0.099334716796875,0.0099639892578125
1783002593509895700,4.362895751953125,-0.989227294921875,-0.1045379638671875,0.0093841552734375
1783002593519947500,4.372947509765625,-0.9805450439453125,-0.10198974609375,0.016754150390625
1783002593529999600,4.38299951171875,-0.979248046875,-0.0994110107421875,0.0162353515625
1783002593540050400,4.393050537109375,-0.988922119140625,-0.0982513427734375,0.015533447265625
1783002593550102500,4.4031025390625,-1.0019989013671875,-0.10101318359375,0.012237548828125
1783002593560154400,4.413154296875,-0.97467041015625,-0.0993194580078125,0.0084381103515625
1783002593570205400,4.423205322265625,-0.95989990234375,-0.0826416015625,0.0209503173828125
1783002593580257500,4.433257568359375,-0.978485107421875,-0.081695556640625,0.034210205078125
1783002593590309600,4.4433095703125,-1.0224456787109375,-0.0892486572265625,0.0506439208984375
1783002593600360700,4.453360595703125,-1.0379638671875,-0.0968170166015625,0.0503692626953125
1783002593610412500,4.46341259765625,-1.03192138671875,-0.09063720703125,0.0414276123046875
1783002593620464600,4.473464599609375,-1.02508544921875,-0.0846099853515625,0.0322265625
1783002593630515500,4.483515380859375,-1.025634765625,-0.0877227783203125,0.01898193359375
1783002593640567600,4.493567626953125,-1.0414276123046875,-0.0871734619140625,0.0197601318359375
1783002593650619400,4.503619384765625,-1.0352020263671875,-0.0880279541015625,0.0237579345703125
1783002593660670500,4.51367041015625,-1.0273590087890625,-0.086181640625,0.0268707275390625
1783002593670722600,4.52372265625,-1.0252227783203125,-0.0882568359375,0.0279388427734375
1783002593680774400,4.5337744140625,-1.020263671875,-0.090423583984375,0.0299835205078125
1783002593690825500,4.543825439453125,-1.014129638671875,-0.0869293212890625,0.0298309326171875
1783002593700877300,4.553877197265625,-1.0108184814453125,-0.084686279296875,0.0258331298828125
1783002593710929700,4.5639296875,-1.020538330078125,-0.0877532958984375,0.0312957763671875
1783002593720980700,4.573980712890625,-1.015167236328125,-0.09271240234375,0.0325775146484375
1783002593731032600,4.584032470703125,-1.0082855224609375,-0.0938720703125,0.0217132568359375
1783002593741084700,4.594084716796875,-1.0067901611328125,-0.092742919921875,-0.0023651123046875
1783002593751135500,4.604135498046875,-1.0102386474609375,-0.09173583984375,-0.0176849365234375
1783002593761187600,4.6141875,-1.0122528076171875,-0.0907745361328125,-0.0105133056640625
1783002593771238700,4.62423876953125,-0.9967498779296875,-0.0930023193359375,0.0038299560546875
1783002593781290500,4.63429052734375,-0.9969024658203125,-0.0928955078125,0.017669677734375
1783002593791342600,4.644342529296875,-0.998382568359375,-0.094696044921875,0.0118408203125
1783002593801393400,4.654393310546875,-0.987762451171875,-0.085601806640625,0.0075225830078125
1783002593811445500,4.664445556640625,-0.98809814453125,-0.08056640625,0.0039215087890625
1783002593821497300,4.674497314453125,-0.9875640869140625,-0.0823516845703125,-0.0006256103515625
1783002593831548400,4.68454833984375,-0.986602783203125,-0.0851287841796875,0.002471923828125
1783002593841600800,4.694600830078125,-0.99163818359375,-0.0838623046875,0.0045623779296875
1783002593851652600,4.704652587890625,-1.007080078125,-0.08135986328125,0.013671875
1783002593861703700,4.71470361328125,-1.0165863037109375,-0.0848388671875,0.024322509765625
1783002593871755500,4.724755615234375,-0.9964447021484375,-0.0908050537109375,0.024017333984375
1783002593881807600,4.7348076171875,-0.9878082275390625,-0.088623046875,0.0194854736328125
1783002593891858700,4.744858642578125,-1.0087432861328125,-0.0872955322265625,0.014984130859375
1783002593901910500,4.75491064453125,-1.0141754150390625,-0.092132568359375,0.0158843994140625
1783002593911962600,4.764962646484375,-1.01715087890625,-0.09478759765625,0.02081298828125
1783002593922013400,4.775013427734375,-1.0101470947265625,-0.0919647216796875,0.0215301513671875
1783002593932065500,4.7850654296875,-0.996063232421875,-0.087432861328125,0.0234375
1783002593942117400,4.795117431640625,-0.9953460693359375,-0.0892791748046875,0.02667236328125
1783002593952168400,4.80516845703125,-1.0035858154296875,-0.0949859619140625,0.0221099853515625
1783002593962220500,4.815220458984375,-1.009796142578125,-0.0978240966796875,0.01727294921875
1783002593972272600,4.825272705078125,-1.0173187255859375,-0.1002197265625,0.017730712890625
1783002593982323700,4.83532373046875,-1.022491455078125,-0.10870361328125,0.0157623291015625
1783002593992375600,4.84537548828125,-1.0131988525390625,-0.1074371337890625,0.0131072998046875
1783002594002426600,4.855426513671875,-1.0152587890625,-0.102874755859375,0.0149688720703125
1783002594012478500,4.865478515625,-1.0264892578125,-0.1047821044921875,0.00555419921875
1783002594022530600,4.875530517578125,-1.024566650390625,-0.102813720703125,0.002532958984375
1783002594032581600,4.88558154296875,-1.037261962890625,-0.0944671630859375,0.016693115234375
1783002594042633500,4.895633544921875,-1.0370330810546875,-0.0927734375,0.024383544921875
1783002594052685600,4.905685546875,-1.02044677734375,-0.0983123779296875,0.024627685546875
1783002594062736400,4.915736328125,-1.01849365234375,-0.10491943359375,0.0191802978515625
1783002594072788500,4.92578857421875,-0.993804931640625,-0.1110382080078125,0.00225830078125
1783002594082840300,4.93584033203125,-0.973907470703125,-0.1071319580078125,-0.0105133056640625
1783002594092891400,4.945891357421875,-1.000213623046875,-0.1071929931640625,-0.010406494140625
1783002594102943500,4.955943603515625,-1.0238037109375,-0.1167755126953125,0.000091552734375
1783002594112999700,4.965999755859375,-1.004638671875,-0.1140594482421875,0.010711669921875
1783002594123050800,4.97605078125,-0.9881591796875,-0.1002044677734375,0.0146636962890625
1783002594133102800,4.986102783203125,-0.9939422607421875,-0.0946197509765625,0.02093505859375
1783002594143155000,4.996155029296875,-0.9918060302734375,-0.1015472412109375,0.0227813720703125
1783002594153205800,5.006205810546875,-0.9814453125,-0.1063690185546875,0.0145721435546875
1783002594163257900,5.0162578125,-0.975433349609375,-0.1099090576171875,0.00921630859375
1783002594173309700,5.026309814453125,-0.97705078125,-0.1132354736328125,0.0049285888671875
1783002594183360800,5.03636083984375,-0.9727325439453125,-0.112335205078125,-0.0016021728515625
1783002594193412900,5.046412841796875,-0.9778900146484375,-0.1097869873046875,0.0036773681640625
1783002594203464700,5.056464599609375,-0.988006591796875,-0.1140594482421875,0.0114593505859375
1783002594213515800,5.066515869140625,-1.000701904296875,-0.1183624267578125,0.01116943359375
1783002594223567600,5.076567626953125,-1.0015411376953125,-0.11505126953125,0.002166748046875
1783002594233618700,5.08661865234375,-0.9980621337890625,-0.1120452880859375,-0.0121002197265625
1783002594243670800,5.0966708984375,-1.0064849853515625,-0.1087493896484375,-0.0055999755859375
1783002594253723000,5.106722900390625,-1.0138702392578125,-0.1132049560546875,0.0095672607421875
1783002594263773700,5.116773681640625,-1.0143890380859375,-0.11346435546875,0.01513671875
1783002594273825800,5.12682568359375,-1.0120391845703125,-0.1121826171875,0.0110931396484375
1783002594283878000,5.1368779296875,-1.015167236328125,-0.1143798828125,0.006591796875
1783002594293929000,5.146928955078125,-1.0110321044921875,-0.1176300048828125,0.0126953125
1783002594303980800,5.156980712890625,-0.9921112060546875,-0.12109375,0.0158843994140625
1783002594314033000,5.167032958984375,-0.989044189453125,-0.122589111328125,0.010009765625
1783002594324083700,5.177083740234375,-0.9913330078125,-0.122528076171875,0.0010528564453125
1783002594334135800,5.1871357421875,-0.9898223876953125,-0.118682861328125,-0.0013580322265625
1783002594344187600,5.197187744140625,-0.9814300537109375,-0.1149444580078125,-0.00811767578125
1783002594354238700,5.20723876953125,-0.9813079833984375,-0.1113739013671875,-0.0060272216796875
1783002594364290800,5.217290771484375,-0.9654083251953125,-0.1080169677734375,-0.0000762939453125
1783002594374342700,5.2273427734375,-0.95025634765625,-0.108428955078125,-0.0065155029296875
1783002594384393700,5.237393798828125,-0.739593505859375,-0.09222412109375,0.043304443359375
1783002594394445800,5.24744580078125,-0.9304046630859375,-0.1190948486328125,0.0806732177734375
1783002594404498000,5.257497802734375,-1.0704345703125,-0.136138916015625,0.0068359375
1783002594414549000,5.267549072265625,-1.0849151611328125,-0.12255859375,-0.0340576171875
1783002594424600800,5.277600830078125,-1.108306884765625,-0.111480712890625,-0.0318450927734375
1783002594434653000,5.28765283203125,-1.113555908203125,-0.115631103515625,-0.01934814453125
1783002594444703700,5.297703857421875,-1.070159912109375,-0.1245269775390625,-0.015594482421875
1783002594454755800,5.307755859375,-1.06695556640625,-0.1153717041015625,-0.0175933837890625
1783002594464807000,5.317806884765625,-1.0324859619140625,-0.091888427734375,0.0079345703125
1783002594474858800,5.327858642578125,-0.95037841796875,-0.0971832275390625,0.018829345703125
