time,seconds_elapsed,z,y,x
1783002589231662600,0.08466259765625,-0.08431611354351043,-0.11523973266072571,-0.15951445279289037
1783002589241714400,0.09471435546875,-0.18334639661610125,-0.09261310950666665,-0.23708659023521467
1783002589251766500,0.1047666015625,-0.31494740842580793,-0.15720942725352943,-0.14037132437303662
1783002589261817300,0.1148173828125,-0.01956044051647186,-0.19467647666484117,-0.016380166512541473
1783002589271869400,0.124869384765625,0.37855858759284017,-0.0356885684967041,-0.0847553817436099
1783002589281921500,0.134921630859375,0.21288170318007468,0.054302887269482014,-0.12749107400653883
1783002589291972600,0.14497265625,-0.2043926917761564,-0.016852131405845284,-0.18840857537649572
1783002589302024700,0.155024658203125,-0.22792437401115892,-0.14230185404419898,-0.11660499313194304
1783002589312076500,0.16507666015625,-0.04347790719866752,-0.07433101836293936,0.1574326050175354
1783002589322127600,0.175127685546875,-0.07479951265752315,-0.013060849364101885,0.2560083675219677
1783002589332179500,0.185179443359375,-0.10705226148664951,-0.03909866920113563,0.20484262750074267
1783002589342230500,0.19523046875,-0.029049568873643874,-0.03804557995162904,0.0751680719752796
1783002589352282600,0.20528271484375,-0.13033786000609396,-0.014789280591905115,-0.04166689398763701
1783002589362334500,0.21533447265625,-0.36933132504224775,-0.01529664559215307,-0.007691796611621975
1783002589372385500,0.225385498046875,-0.539217936104536,-0.09884367445930838,0.07974593781745061
1783002589382437400,0.235437255859375,-0.2556049926191568,-0.06657777388766407,0.04371189861763269
1783002589392489500,0.245489501953125,0.10713643263876438,0.130651163738966,-0.04984276605546474
1783002589402540500,0.25554052734375,0.04260580053925514,0.17858787697739897,-0.10686448382958769
1783002589412592600,0.265592529296875,-0.1366460202395916,0.09560651916898787,-0.051946021945029494
1783002589422644700,0.275644775390625,0.006340893459320068,0.023355668080970643,0.05245983495237305
1783002589432695600,0.285695556640625,0.12055237905085087,0.009730901223793626,0.09405819374844432
1783002589442747600,0.29574755859375,0.0840384656459093,-0.01646042867451906,0.0344373080602847
1783002589452799500,0.305799560546875,0.05373275923132896,-0.010764920446649192,0.0030951712700538338
1783002589462850600,0.3158505859375,0.06853051539063454,-0.029171660883352157,-0.011767978275660425
1783002589472902700,0.325902587890625,0.07006371630728245,-0.048904827618226406,-0.004797591273766011
1783002589482954500,0.33595458984375,0.00007832593321800231,-0.10610891622193157,0.027378603454120454
1783002589493005600,0.346005615234375,-0.02052431711256504,-0.142033266235888,-0.02347655451428145
1783002589503057400,0.356057373046875,-0.060036827811598775,-0.10537512205466627,-0.1005480124254711
1783002589513108500,0.3661083984375,-0.09624211365878581,-0.10140899490267037,-0.11484600236909463
1783002589523160600,0.37616064453125,-0.04412263484299182,-0.1317915659457445,-0.13206994449570775
1783002589533212400,0.38621240234375,0.008858429238200188,-0.08884601205810903,-0.1238639878168702
1783002589543263500,0.396263427734375,-0.1750350798666477,-0.051256432245671744,-0.10891113242739811
1783002589553315600,0.406315673828125,-0.3362672598302364,-0.011316489914804696,0.008257960860710591
1783002589563367700,0.41636767578125,-0.4239174862325191,-0.04212715017683804,0.11624094559252261
1783002589573418500,0.42641845703125,-0.44348260292410846,-0.09076485129147767,0.034646822625119235
1783002589583470600,0.436470703125,-0.4610129989176988,-0.0747012399148196,-0.10263628994161263
1783002589593522400,0.4465224609375,-0.1607791754990816,-0.022358765998110174,-0.2051959709830582
1783002589603573500,0.456573486328125,0.12366028193831444,0.019899170951545236,-0.23451058400105684
1783002589613625600,0.46662548828125,0.16270809773504732,-0.038778570401296016,-0.21334731139782814
1783002589623677400,0.476677490234375,0.20103110638856886,-0.025729849866405127,-0.1347233085487038
1783002589633728500,0.486728515625,0.02468085227012634,-0.025808906451985237,-0.017329210865683852
1783002589643780400,0.4967802734375,0.10755553483366966,-0.13179609599038958,-0.011103504751250147
1783002589653832400,0.50683251953125,0.16630992161929606,-0.13723770252242684,-0.009667517131380737
1783002589663883500,0.516883544921875,-0.06358546020388603,-0.08208550494723021,0.06514419742058962
1783002589673935600,0.526935546875,-0.1408534088015556,-0.10864654494076967,0.14218739735167474
1783002589683986400,0.536986328125,-0.04947685535252094,-0.12826207664534447,0.19972930307500064
1783002589694038500,0.54703857421875,-0.17644494666457175,-0.13177592998519538,0.24673056209422647
1783002589704090600,0.557090576171875,-0.18825579596757888,-0.14970628508180378,0.10041600180994718
1783002589714141700,0.5671416015625,-0.12241057413816452,-0.07431129074916243,-0.08433690060321242
1783002589724193500,0.577193603515625,-0.039406127715110775,0.01361607209406793,-0.10480718597359955
1783002589734245600,0.58724560546875,0.06794950063228607,0.06520612020827829,0.01430087602045387
1783002589744296400,0.59729638671875,0.0719131435662508,0.028689868715777993,0.11447488576807081
1783002589754348500,0.6073486328125,0.12740765177309513,-0.031079905657470226,0.12318196036946027
1783002589764400400,0.617400390625,0.04141922110319137,0.006115048814192414,0.07690514316726475
1783002589774451500,0.627451416015625,-0.1488677884310484,0.058866249662265176,0.0063001230575144285
1783002589784503600,0.637503662109375,-0.12663082218170166,0.037907632785663004,0.027532880700379608
1783002589794555400,0.647555419921875,0.02768821739256382,-0.027624796767532826,0.0193986740835011
1783002589804606500,0.6576064453125,0.0723661480307579,-0.007200725159049033,0.016127762654051185
1783002589814658600,0.667658447265625,-0.01088087497651577,0.005335442743822932,0.06952975556105374
1783002589824710700,0.677710693359375,-0.08394669570922851,-0.08109583632275462,0.10447095802286639
1783002589834761700,0.68776171875,-0.1387976453155279,-0.12734919958412647,0.06375747403623536
1783002589844813600,0.6978134765625,-0.1460866332799196,-0.12305479032583534,-0.02853944566072896
1783002589854864600,0.70786474609375,-0.319645210853219,-0.11126761415936053,-0.15279610432330518
1783002589864916500,0.71791650390625,-0.374797189232707,-0.11266096821390091,-0.15071407388485966
1783002589874968600,0.727968505859375,-0.13406886322796344,-0.07781688771732151,-0.12315056058419868
1783002589885019600,0.73801953125,-0.07475450447201729,-0.06184614225588739,-0.13898463752130047
1783002589895071500,0.748071533203125,0.008386720073223114,-0.06704261492043734,-0.11476542967986315
1783002589905123600,0.75812353515625,0.047690556457638734,-0.08615027016811072,-0.06463898784480988
1783002589915174400,0.76817431640625,0.05016191500723362,-0.08452880644612014,-0.04996597231002524
1783002589925226500,0.7782265625,-0.027676526954770086,-0.1023253060299903,-0.029033366657514124
1783002589935278600,0.788278564453125,0.14016776462495326,-0.11195998033769428,-0.04208124694218859
1783002589945329400,0.798329345703125,0.2622591898113489,-0.10440737300105392,-0.050282728375308214
1783002589955381500,0.808381591796875,0.18564006051123141,-0.060631067377701395,-0.024352424033358692
1783002589965433600,0.81843359375,0.032201895424723626,-0.09677877781875431,-0.17321787437684832
1783002589975484700,0.828484619140625,0.11800737074315547,-0.12274674728997051,-0.2807431236701086
1783002589985536500,0.83853662109375,-0.05456804101169109,-0.028674305820465085,-0.16448329071402548
1783002589995588600,0.848588623046875,-0.07344809804856776,-0.033979718752205366,-0.05599372643325477
1783002590005639700,0.8586396484375,0.05948328558206558,0.0631774639248848,0.021933014866709708
1783002590015691500,0.86869140625,0.09144494251012801,0.20012254017628728,0.07444711902327836
1783002590025742600,0.87874267578125,-0.12304478038847445,0.16354462162442504,0.0414288291817531
1783002590035794400,0.88879443359375,-0.354155383220315,0.012313611193373798,0.009062135116755961
1783002590045846500,0.898846435546875,-0.40916649182438847,-0.08310337675288319,-0.04193473287727684
1783002590055897600,0.908897705078125,-0.2929582794576883,-0.09657799454964697,-0.06988324517384172
1783002590065949400,0.918949462890625,-0.24031799163818357,-0.0677653762370348,-0.094770981660299
1783002590076001500,0.92900146484375,-0.28282676154375075,-0.11212459631487727,-0.06708565034456551
1783002590086052600,0.939052490234375,-0.17798866897523402,-0.10034158486686647,0.02965476822517812
1783002590096104700,0.949104736328125,-0.3334317441433668,-0.07853716481588781,0.11626761440373956
1783002590106156500,0.959156494140625,-0.29856033724844455,-0.1588145243626088,0.057016603207588196
1783002590116210700,0.969210693359375,-0.04731061722934246,-0.14094357130303978,-0.002486446520872414
1783002590126262800,0.9792626953125,-0.10243570760190486,-0.09053082333989441,-0.009792129891738294
1783002590136315000,0.98931494140625,-0.19731997691094874,-0.15873049934096634,0.003987352603115141
1783002590146366000,0.999365966796875,0.04026303680539131,-0.18384535911418495,-0.03934263402484357
1783002590156417800,1.009417724609375,0.09001520196795464,-0.09083002548217772,-0.007426496738940477
1783002590166468900,1.01946875,-0.07635784801542758,-0.06173150290027261,0.1207584960822016
1783002590176520700,1.029520751953125,-0.0027758944541215894,-0.10238916504643857,0.11542984840534627
1783002590186572800,1.03957275390625,0.11644728181958199,-0.06786211460977792,0.012074614805728197
1783002590196624000,1.049623779296875,0.10503799905478954,-0.02952924214936793,-0.06355239818450063
1783002590206675700,1.05967578125,-0.0160644150942564,-0.0917547391116619,-0.06345142202805727
1783002590216727800,1.069727783203125,-0.05705401260852813,-0.20461035311482845,-0.07250573916453867
1783002590226778600,1.079778564453125,-0.056200026127696034,-0.18837730345539747,-0.07698840100392698
1783002590236830700,1.089830810546875,-0.11418225949704647,-0.17481318074427543,-0.09058781422413885
1783002590246882600,1.099882568359375,-0.19001696042120456,-0.12012377837523817,-0.03587546937093138
1783002590256933600,1.10993359375,-0.1794581570059061,-0.06526479159295559,0.05836717756632715
1783002590266986000,1.119986083984375,-0.1450467688381672,-0.032681203374266624,0.18629991265945137
1783002590277037800,1.130037841796875,-0.12342998031377792,-0.0828260211162269,0.15724983232915402
1783002590287089000,1.1400888671875,-0.13191431554257868,-0.10240743135549127,-0.023648623145557938
1783002590297140700,1.150140625,-0.1901537385433912,-0.11101210502833127,-0.09025410702405497
1783002590307191800,1.16019189453125,-0.2215297045379877,-0.13546893928423523,-0.048950584722403434
1783002590317244000,1.170243896484375,-0.22991934722065924,-0.22226919779367743,-0.12566161182336508
1783002590327295700,1.180295654296875,-0.0981558383256197,-0.23498795572184025,-0.2157907224945724
1783002590337346800,1.190346923828125,-0.09838730899393558,-0.11620938141047954,-0.12451792168095707
1783002590347398700,1.200398681640625,-0.15092647452652452,-0.08894998388923704,-0.07131928759263828
1783002590357450800,1.21045068359375,-0.0517050527960062,-0.06435944025106728,-0.017099365898873654
1783002590367501800,1.220501708984375,-0.13555822500288486,-0.023883929738774894,0.09919190337508917
1783002590377553700,1.2305537109375,-0.19081366375684736,-0.06611563626863062,0.05839868694944307
1783002590387606000,1.24060595703125,-0.1321270815104246,-0.10049677542857825,-0.038066421810258176
1783002590397656600,1.250656494140625,-0.13507365635633467,-0.08492204354740679,-0.015548720657080411
1783002590407709000,1.260708984375,-0.1275824238181114,-0.10934935944788157,0.044964382896758616
1783002590417760800,1.2707607421875,-0.07125497191846371,-0.11430340165868401,0.0621105105468072
1783002590427811800,1.280811767578125,-0.042211248263716694,-0.10106032759547233,0.029754648403078315
1783002590437864000,1.290864013671875,0.05724807387590408,-0.07077332588136195,-0.08591280815042555
1783002590447915800,1.300915771484375,0.16096388441622256,-0.02283705103434622,-0.15410565255191178
1783002590457966800,1.310966796875,0.15478490352034568,0.023540303932875394,-0.10579396852124481
1783002590468018700,1.321018798828125,0.03059387570619583,0.012059709497541189,0.027869053852185605
1783002590478069800,1.33106982421875,0.01942541595995426,-0.029025238149985668,0.10793496260531246
1783002590488121900,1.341121826171875,0.0654518385976553,-0.05667553468495607,0.13084190053809433
1783002590498173700,1.351173583984375,-0.08615969558358191,-0.02038147457577288,0.12574965543299912
1783002590508224800,1.361224853515625,-0.2918213843822479,0.05955715453587472,0.0843597334895283
1783002590518276600,1.371276611328125,-0.03837210849225521,-0.02788037896379828,0.011502696669287979
1783002590528329000,1.381328857421875,0.19706863249838352,-0.13193791561387477,-0.04018989850394428
1783002590538380000,1.391380126953125,0.16634616197645663,-0.07188998188637197,-0.10144618510790168
1783002590548432000,1.401431884765625,0.1716542052567005,0.09799231832697987,-0.11745105203464627
1783002590558483700,1.411483642578125,0.17949965806007384,0.10332155052572488,-0.11185688528940081
1783002590568534800,1.42153466796875,0.06505670180022716,0.017576646288111807,-0.030532208646833894
1783002590578587000,1.4315869140625,-0.2482686583817005,-0.034141923576593396,0.06278367883432656
1783002590588638700,1.441638671875,-0.4890770638853311,-0.07460099441073835,0.12570968874879182
1783002590598689800,1.451689697265625,-0.3260948253840208,-0.11319178715497255,0.09168887080121785
1783002590608742000,1.461741943359375,-0.19805881257951258,-0.11398593320734798,-0.022332243317365646
1783002590618792700,1.471792724609375,-0.18300211322307586,-0.07526435369029641,-0.0793439511541277
1783002590628844800,1.4818447265625,-0.14285714983940123,-0.07014788745939732,-0.09068645229302347
1783002590638896600,1.491896728515625,-0.08069792304635047,-0.13378895030803978,-0.11715586848035454
1783002590648947700,1.50194775390625,-0.04289689244031906,-0.14941621609404682,-0.16672920647729186
1783002590658999800,1.511999755859375,-0.17170447413921355,-0.07741342148296534,-0.13119045824743805
1783002590669052000,1.522052001953125,-0.2578068865776062,-0.06720343150533735,-0.02365249560307711
1783002590679103000,1.53210302734375,-0.12614625353515146,-0.07611395625695586,-0.007677147031761706
1783002590689154800,1.54215478515625,-0.08016834621429443,-0.04416669318042695,-0.009818214181065559
1783002590699207000,1.55220703125,-0.1442570797652006,-0.026420024087652563,-0.028409480871818958
1783002590709257700,1.5622578125,-0.11055062499642372,-0.05279525918550789,-0.06975793829374015
1783002590719309800,1.572309814453125,-0.04443593857586384,-0.07408464238643646,-0.12598331805840135
1783002590729361700,1.582361572265625,-0.07317571084797382,-0.06037409694194793,-0.16871935738120228
1783002590739412700,1.592412841796875,-0.07038228073716163,-0.037795916039496655,-0.11113726577796042
1783002590749464800,1.60246484375,-0.036110008779168125,-0.02246850998289883,0.03975293185878545
1783002590759515600,1.612515625,0.08268237486183642,-0.012593816374242305,0.07746551699638367
1783002590769567700,1.622567626953125,0.1772527559161186,0.01723616228736937,-0.0254731351589784
1783002590779619600,1.63261962890625,0.020353636720776558,0.030125819803029297,-0.0553728180559352
1783002590789670700,1.642670654296875,-0.17041969502568244,-0.01893346772454679,-0.05008030113838613
1783002590799722800,1.65272265625,-0.11131108797490596,0.022461568785458803,0.004704305233433842
1783002590809774800,1.66277490234375,-0.17962942191958425,0.04154591622278094,0.05140570452325046
1783002590819826000,1.672825927734375,-0.3272960178673267,-0.014813465185090899,0.022580811250954864
1783002590829877800,1.682877685546875,-0.1736369035065174,-0.023389351154863833,-0.031209925245307385
1783002590839929900,1.692929931640625,-0.14012509452700614,0.058331777459383005,0.01271576225347817
1783002590849981000,1.70298095703125,-0.007550269249081611,0.07003149453811347,0.02888645073380321
1783002590860032800,1.71303271484375,0.021149755534529684,0.014662074015662073,-0.01851403673607856
1783002590870084900,1.7230849609375,-0.1379343064844608,-0.04723740586265921,0.016311339060030877
1783002590880135700,1.7331357421875,-0.09494038341045379,-0.05095956819094717,0.05071260769255459
1783002590890187800,1.743187744140625,-0.05890636247694492,-0.039928178827837106,0.06175075559001415
1783002590900239600,1.753239501953125,-0.04634498706758022,-0.035229791878536344,0.032163718838803465
1783002590910290700,1.763290771484375,-0.010515548795461654,-0.01274425769560039,0.03425016972403973
1783002590920342800,1.7733427734375,0.1915057376742363,-0.010525704863294958,0.04716658738246187
1783002590930395000,1.783394775390625,0.283743876388669,-0.08829897263459861,-0.035033027197420595
1783002590940446000,1.793446044921875,0.17149229269325733,-0.14797040119990706,-0.12239435365572571
1783002590950497800,1.803497802734375,0.08214461472332477,-0.06977613153755664,-0.14058434606920928
1783002590960548900,1.813548828125,-0.08630348796844482,-0.014568769709020853,-0.013649389841780065
1783002590970601000,1.82360107421875,-0.19308920747339725,-0.05547689948491752,0.10636530213579534
1783002590980652800,1.83365283203125,-0.15126958887577055,-0.040236075733229515,0.15488098430596292
1783002590990703900,1.843703857421875,-0.16071078643798828,0.015720423962175847,0.1278482351474464
1783002591000755700,1.853755615234375,-0.11812485964298247,0.02132160497009754,0.11268644971502945
1783002591010807800,1.863807861328125,-0.027098434805870056,-0.05075359729006886,0.12072294984478503
1783002591020859000,1.87385888671875,0.09089081575870514,-0.12345526088550686,0.03908960911184549
1783002591030910700,1.88391064453125,0.11712883434295654,-0.15580430969595907,-0.10766102276844904
1783002591040962800,1.893962890625,0.020234394255280494,-0.184947475137189,-0.24684646182516587
1783002591051013600,1.904013671875,-0.027507015606760978,-0.13254501466155053,-0.26520265938472
1783002591061065700,1.914065673828125,-0.016987959679961202,-0.04624912547767162,-0.10842075509456917
1783002591071117800,1.924117919921875,-0.12649579762518406,-0.030821693112701175,0.07653601759392768
1783002591081169000,1.9341689453125,-0.14370587562322615,-0.05186170466244221,0.0861737241089344
1783002591091220700,1.944220703125,-0.18611586132943628,-0.05239193908162415,0.04234336847709492
1783002591101271800,1.954271728515625,-0.190695005813241,-0.0471002624142915,0.045516098495386535
1783002591111319600,1.964319580078125,-0.0547895748078823,-0.1008163627717644,0.01220479879034683
1783002591121371400,1.974371337890625,-0.07387655259370804,-0.1528482363693416,-0.03943109775958582
1783002591131422500,1.98442236328125,-0.229921685308218,-0.17727065689899027,-0.05484901337753981
1783002591141474600,1.994474609375,-0.08333996198773383,-0.16185001960098744,-0.10150065524149686
1783002591151526400,2.0045263671875,0.009196282890439033,-0.06520853136107325,-0.04708075399622321
1783002591161577500,2.014577392578125,-0.10641571714878081,-0.04490187558718026,0.060358314850926395
1783002591171629300,2.02462939453125,0.026311083820462225,-0.05184986809417605,0.09302099618781358
1783002591181681700,2.034681640625,0.033872458985447884,0.033185572699829934,0.02833422367852181
1783002591191732700,2.044732666015625,-0.24347908601760862,0.026387436992302536,0.02981381297810003
1783002591201784600,2.05478466796875,-0.24894261212050914,-0.046265492090582845,-0.072497537591774
1783002591211836700,2.064836669921875,-0.09195172298848628,-0.04331869804896414,-0.2335046766278334
1783002591221887500,2.074887451171875,0.20622750598788261,-0.034142508098483085,-0.260980365514569
1783002591231939600,2.084939697265625,0.30652035634219643,-0.11491013538017868,-0.18786800222638994
1783002591241991400,2.094991455078125,-0.012241641935706139,-0.26058804172873495,-0.006514861786738038
1783002591252042500,2.10504248046875,-0.057357963991165155,-0.276295021687448,0.10076415766049177
1783002591262094600,2.115094482421875,-0.056218730828166,-0.11729995312616229,0.24726846836321054
1783002591272145400,2.1251455078125,-0.004869067341089248,-0.05126666137874126,0.12790738145615904
1783002591282197500,2.135197509765625,-0.054337154865264886,-0.08764372359625995,0.10672746824538334
1783002591292249300,2.145249267578125,0.10713000289797782,-0.09621398354284465,0.16794535906771196
1783002591302300400,2.155300537109375,0.28508301603794095,-0.023698270973563192,0.11233608364108949
1783002591312352800,2.165352783203125,0.1980962219804525,0.05993767828606069,0.07425327695161103
1783002591322404600,2.175404541015625,-0.06015080958008766,0.044811493889987467,0.03224927823040634
1783002591332455700,2.18545556640625,-0.32561785552203654,-0.01900390261225402,0.014754245811142026
1783002591342507500,2.195507568359375,-0.36800270678699015,-0.03455627653114497,0.005452876844722778
1783002591352559600,2.2055595703125,-0.4686433476656675,-0.01131502861008048,0.007726173805259168
1783002591362610700,2.215610595703125,-0.4530687619149685,0.01484276434481144,0.0402697222745046
1783002591372662500,2.22566259765625,-0.3718441846460104,0.03820230488330126,0.06141134930150583
1783002591382714600,2.235714599609375,-0.4965905082553625,0.025359262988343834,0.05882211825959384
1783002591392765400,2.245765380859375,-0.440620783752203,-0.07615180404931306,-0.02463798124277964
1783002591402817500,2.255817626953125,-0.22819033147096632,-0.07314239310026169,-0.09943796882433817
1783002591412868600,2.26586865234375,-0.23082184901833533,-0.030416254116967318,-0.10040199155090376
1783002591422920400,2.27592041015625,-0.19973814396858214,-0.08528934248983859,-0.06979290000926702
1783002591432972500,2.28597265625,-0.06597966186404228,-0.11203004989922045,-0.01708104479089379
1783002591443023400,2.2960234375,-0.06876315510272979,-0.1096148054510355,0.023985727879125625
1783002591453075700,2.30607568359375,-0.14104747006893156,-0.14710004810616373,0.038746421697363254
1783002591463127600,2.31612744140625,0.01907762543559074,-0.1461527573186904,0.004593118210230023
1783002591473178600,2.3261787109375,0.1409247204720974,-0.12225494518503546,-0.05753565864562988
1783002591483230500,2.33623046875,0.14508008658587931,-0.11275390719436108,-0.10000647116098553
1783002591493282600,2.346282470703125,0.09689268652200698,-0.12160853704027831,-0.10478017010251059
1783002591503333600,2.356333740234375,0.05932195754051208,-0.15513393615372478,-0.07665730588603764
1783002591513385500,2.366385498046875,0.10343056385815143,-0.1414729289393872,-0.10913842011094092
1783002591523437600,2.3764375,0.0924567499011755,-0.0763080175243318,-0.14164152697194365
1783002591533488600,2.386488525390625,0.0852151082098484,-0.086970354379341,-0.13233820351045578
1783002591543540500,2.39654052734375,0.0018219547301530836,-0.1120404251627624,-0.1348425327478908
1783002591553592300,2.40659228515625,-0.08496960901618003,-0.07854578651376068,-0.10938185521168634
1783002591563643400,2.416643310546875,-0.16589432655572892,-0.04146357170157134,-0.02148145344061777
1783002591573695500,2.426695556640625,-0.21444296114742756,-0.03683028587773442,-0.0011035590614192187
1783002591583747600,2.43674755859375,-0.20216507885456084,-0.04642199782654643,-0.04178239185977727
1783002591593798700,2.446798583984375,-0.24722236419916152,-0.0424205801654607,-0.04943276048246771
1783002591603850500,2.4568505859375,-0.12958207320272921,-0.03127257868535817,-0.059528713892679656
1783002591613901600,2.466901611328125,-0.024789573341608046,0.002589870362728834,-0.04965875125806778
1783002591623953700,2.47695361328125,-0.0550555322676897,0.01175882685482502,-0.02880759507762268
1783002591634005500,2.487005615234375,-0.13206746027767657,-0.032593378960341216,-0.06374956472441554
1783002591644056600,2.497056640625,-0.17776421256959438,-0.10004172513745725,-0.10928495244216173
1783002591654108400,2.5071083984375,-0.20712883874177931,-0.0740107003673911,-0.04926710332566872
1783002591664160500,2.517160400390625,-0.1303670861005783,-0.04727795706875622,-0.0030012641752138734
1783002591674211600,2.527211669921875,0.022104279780387877,0.027329394017532465,0.07805471506118775
1783002591684263400,2.537263427734375,0.060135612010955804,0.04300144879333675,0.10728362255711107
1783002591694315500,2.5473154296875,0.01229950960278511,-0.022564079311862585,0.08957038080990314
1783002591704366300,2.557366455078125,0.031684593552350995,-0.061679845778271555,0.0983300623813644
1783002591714418700,2.567418701171875,-0.0020826514929533,-0.058562590540573,0.06613514468669891
1783002591724470500,2.577470458984375,-0.09669394907951355,-0.09022394934780895,-0.0021972543159499763
1783002591734521600,2.587521484375,-0.06035246963202953,-0.08047909266389906,-0.006608330490160733
1783002591744573700,2.59757373046875,0.011729016238451004,-0.05999656886644661,0.009990008817706257
1783002591754625500,2.60762548828125,0.07156301495432853,-0.049637891133129594,0.009699811965785921
1783002591764676600,2.617676513671875,0.08306056052446364,-0.043851928142830725,0.026373664195276796
1783002591774728400,2.627728515625,0.043963644888997074,-0.046746553605794904,0.02946452461639419
1783002591784780500,2.637780517578125,0.04703647646307945,-0.03807487911134958,-0.01553913084482774
1783002591794831600,2.64783154296875,-0.001346153911948204,-0.04414835380613803,-0.057246247244998806
1783002591804883500,2.657883544921875,-0.03397533483803272,-0.05502681762985885,-0.06067609382951632
1783002591814934500,2.6679345703125,-0.04285013068914413,-0.047632907986268395,-0.03754603293165564
1783002591824986400,2.677986328125,-0.23397183748185632,-0.053467532423883676,0.005499291536025703
1783002591835038500,2.68803857421875,-0.22707798631489276,-0.0667088529214263,0.02675141146648675
1783002591845089500,2.698089599609375,-0.16072890661656855,-0.055764776515588164,-0.00553761425241828
1783002591855141600,2.7081416015625,-0.27238544702827927,-0.05339892416708171,-0.03040282837981358
1783002591865193700,2.71819384765625,-0.3910924904733896,-0.08108874899484217,-0.05748440338242799
1783002591875244500,2.72824462890625,-0.3094891430199146,-0.09745200090520083,0.01688020672285929
1783002591885296600,2.738296630859375,-0.12185703190863131,-0.07752733018621802,0.053261524990387256
1783002591895348500,2.748348388671875,-0.03448620696961879,-0.06114968442432582,0.02136127939336002
1783002591905399600,2.758399658203125,0.03203647572994232,-0.07262355685792862,-0.03482639870941639
1783002591915451600,2.76845166015625,0.11182312915027141,-0.06101224871501326,-0.011687716113682835
1783002591925503500,2.77850341796875,0.04921148241460323,-0.060829001102596515,0.03736273052031174
1783002591935554600,2.788554443359375,0.03368658102452755,-0.08854607926346361,0.09335883157374336
1783002591945606400,2.7986064453125,0.03282850289046764,-0.09828735575079918,0.07114283504718914
1783002591955658500,2.808658447265625,0.02040098299384117,-0.11008578396365046,-0.01665012429403141
1783002591965709600,2.81870947265625,-0.035494507229328155,-0.10873714583367108,-0.05481290088454261
1783002591975761700,2.82876171875,-0.10004150594174861,-0.12207242822498082,-0.1397126960675232
1783002591985813500,2.8388134765625,0.03791618141829967,-0.032340500177815555,-0.09965453418446704
1783002591995864600,2.848864501953125,0.025539514926075934,0.05180135277733206,0.024055121587216854
1783002592005916700,2.858916748046875,-0.1268295596241951,0.029597412014752626,0.0789520109607838
1783002592015967500,2.868967529296875,-0.1705091268748045,-0.05939831071235239,0.02970635228194296
1783002592026019600,2.87901953125,-0.13776713322401046,-0.058318479586392635,-0.03199455455066636
1783002592036071400,2.889071533203125,-0.17632219706773758,-0.05215184671543538,-0.06607773367734626
1783002592046122500,2.89912255859375,-0.2030336783826351,-0.09860708922445774,-0.04685459882384166
1783002592056174600,2.909174560546875,-0.09000935674905776,-0.10375621561594307,-0.005486413788143545
1783002592066226400,2.919226318359375,-0.03716214818060398,-0.07786489157751202,-0.009231463801674545
1783002592076277500,2.929277587890625,-0.1446194833368063,-0.08249087087772786,-0.007225348143652081
1783002592086329300,2.939329345703125,-0.13659575135707855,-0.06298406024463474,0.03407318745562807
1783002592096381400,2.94938134765625,-0.20422610303759572,-0.02408683189973235,0.04641220708489418
1783002592106432500,2.9594326171875,-0.26495675833225246,-0.05910356554947793,-0.01991418585758656
1783002592116488400,2.969488525390625,-0.14482289695441722,-0.06397321741245687,-0.14863805306209252
1783002592126540500,2.97954052734375,-0.12033026073276996,-0.0790407304238528,-0.2029694540400058
1783002592136591400,2.98959130859375,-0.08854454489350318,-0.0881172593921423,-0.18561401275452225
1783002592146643500,2.9996435546875,-0.076086629858613,-0.0852448457609862,-0.11619345318898558
1783002592156695300,3.0096953125,-0.15429215156733989,-0.07175393441654741,0.023741635191254315
1783002592166746400,3.019746337890625,-0.27162907570302486,-0.06011676118001341,0.10695313022742048
1783002592176798500,3.029798583984375,-0.25921090815663334,-0.02403970482237637,0.09329541094871237
1783002592186849300,3.039849365234375,-0.12132453246712684,0.031013416292518376,0.04876965693123638
1783002592196901400,3.0499013671875,-0.02822714657485485,0.030502398030459878,-0.061191952663473784
1783002592206953500,3.059953369140625,-0.14741291344761848,-0.05384557195603847,-0.21504786823801694
1783002592217004300,3.07000439453125,-0.21643793435692785,-0.13419058991149066,-0.18056367056239395
1783002592227056400,3.080056396484375,-0.08907178363800049,-0.10071385224536061,-0.1575274619604461
1783002592237108500,3.0901083984375,-0.027938392761349677,-0.052472822298109525,-0.09057623338419943
1783002592247159600,3.10015966796875,-0.04910919108390808,-0.045518326985090965,-0.0006085603523999452
1783002592257211400,3.11021142578125,-0.03904547770917415,-0.029236177486926314,0.12598582054274157
1783002592267263500,3.120263427734375,0.0767366181999445,-0.03969941157326102,0.14676548238955436
1783002592277314300,3.130314208984375,0.15164134479761124,-0.0355549321796745,0.13752176189450546
1783002592287366400,3.140366455078125,0.10531681599617004,-0.052796282098814845,0.12965751305911688
1783002592297418200,3.150418212890625,0.19422025732994078,-0.08181355613805354,0.09642494114609435
1783002592307469300,3.16046923828125,0.24665888509750364,-0.1068861842047423,-0.001406871123239398
1783002592317521400,3.170521484375,0.18221826936900615,-0.13194989831261336,-0.11876043586647138
1783002592327573200,3.1805732421875,0.1866214727640152,-0.15465455513894558,-0.18308560852175576
1783002592337624300,3.190624267578125,0.2743967868506908,-0.08482742406651377,-0.07939783676583319
1783002592347676400,3.200676513671875,0.1509580387085676,-0.03708959440104663,0.03546288824835792
1783002592357728500,3.210728515625,0.21375790149271487,-0.06824862970933318,-0.008040262989420443
1783002592367779600,3.220779541015625,0.19610300233662128,-0.030268589274585245,-0.014565828833263366
1783002592377831400,3.23083154296875,-0.0737251614242792,0.007094196044653654,0.023430815676413475
1783002592387882500,3.240882568359375,-0.23929390928745267,-0.028958602654561398,0.04235757966553792
1783002592397934300,3.250934326171875,0.015897826355695723,-0.05033412976898253,-0.021174999573640524
1783002592407986400,3.260986328125,0.185305129468441,0.038669191742688416,-0.03243937570871785
1783002592418037500,3.27103759765625,0.08015957838594913,0.028132380963489412,-0.053785859391745176
1783002592428089300,3.28108935546875,-0.10410451759696006,-0.05892901270017027,-0.02869065416706726
1783002592438141400,3.291141357421875,-0.2654623697668314,-0.07006459309011698,0.01022577206864953
1783002592448192300,3.301192138671875,-0.32642683381736276,-0.07389679166413843,-0.023112159914989022
1783002592458244400,3.311244384765625,-0.23453882371485232,-0.06833667331896721,-0.038056813731696455
1783002592468296400,3.32129638671875,-0.20334990472495554,-0.059475175340846176,-0.011697031931299716
1783002592478347300,3.33134716796875,-0.15572773732841014,-0.057153454395011065,0.05326751633975654
1783002592488399600,3.341399658203125,-0.19089023612439632,-0.03836655553430319,0.06519965393487363
1783002592498451500,3.351451416015625,-0.38916123014986514,-0.08788060109205544,0.03504343899358064
1783002592508502500,3.36150244140625,-0.43855917504727837,-0.13982823047228157,-0.03310247925994918
1783002592518554400,3.371554443359375,-0.4236480216413736,-0.08260214923247694,-0.0964360835946165
1783002592528606500,3.3816064453125,-0.4886299046397209,-0.06254837224110961,-0.08997587460456416
1783002592538657500,3.391657470703125,-0.26044191125631333,-0.11714483562968671,-0.07969113889029249
1783002592548709400,3.40170947265625,-0.04892331312298774,-0.10265490331053734,-0.05407978257071226
1783002592558761500,3.411761474609375,-0.061010641279816626,-0.10150010725222527,-0.09084986269380897
1783002592568812300,3.421812255859375,-0.09257190071344375,-0.13719590920731425,-0.11023176830559968
1783002592578864400,3.431864501953125,-0.09061901308000087,-0.16896401632465421,-0.09206625274624675
1783002592588916200,3.441916259765625,-0.0414139604061842,-0.16179500147812068,-0.07437063798727467
1783002592598967300,3.45196728515625,-0.06780512372553348,-0.12970467666909097,-0.00925067995879799
1783002592609019400,3.462019287109375,-0.09859364522099494,-0.10474902604557573,0.10085684091262519
1783002592619070500,3.472070556640625,-0.1165203470557928,-0.06763320122472942,0.14898927765255793
1783002592629122600,3.48212255859375,0.014568039056658743,-0.028895182029530404,0.09770871561262756
1783002592639174400,3.49217431640625,0.05774667104780674,0.001199950374290347,0.05237427556077018
1783002592649225500,3.5022255859375,-0.018905776000022887,-0.014765242129191756,0.021203239287436008
1783002592659277300,3.51227734375,-0.06197101074457168,-0.07050999877005815,-0.033292174879461525
1783002592669329400,3.522329345703125,-0.006890344035625457,-0.035283567892387506,-0.02372046453906223
1783002592679380500,3.53238037109375,-0.04531505949795246,-0.0019110212530940769,0.07317702602222562
1783002592689432300,3.542432373046875,-0.09062719638645649,-0.01857376756668091,0.10439816678129137
1783002592699484400,3.552484375,-0.037032384321093556,-0.022843188514187932,0.05416824630545452
1783002592709535500,3.562535400390625,-0.02831950103342533,0.02292809031866491,-0.009526976149529218
1783002592719587300,3.57258740234375,-0.03811784147024155,0.05196290001459419,-0.007840575698856263
1783002592729639400,3.582639404296875,0.0163040690690279,0.009924158773571253,-0.0025000549211166797
1783002592739690200,3.592690185546875,0.03887012114226818,-0.03515679970756173,-0.06621171705424785
1783002592749742600,3.60274267578125,0.005772738182544708,-0.07232990767359733,-0.1577968534863554
1783002592759794400,3.61279443359375,-0.023865444234013555,-0.08395663258135318,-0.11861704534040764
1783002592769845500,3.622845458984375,-0.022286066088080404,-0.13655132769346237,-0.08882646710742265
1783002592779897300,3.6328974609375,-0.08140577905476093,-0.12015651160106063,-0.06627111909128724
1783002592789949400,3.642949462890625,-0.1749140838354826,-0.08142287632003425,-0.020387319794669748
1783002592800000500,3.65300048828125,-0.15497604217827318,-0.06505984360538422,-0.024359072969853877
1783002592810052400,3.66305224609375,-0.16416297271847724,-0.03942081382758915,-0.07080333742713556
1783002592820104400,3.6731044921875,-0.22794892393052577,-0.020639321794360874,-0.043089108810480684
1783002592830155300,3.6831552734375,-0.24417934324145316,-0.04535692587830126,-0.03113090519234538
1783002592840207400,3.693207275390625,-0.22263854256272314,-0.08768244817145168,-0.08394746289420872
1783002592850258400,3.703258544921875,-0.13706570695638656,-0.07712298716902732,-0.1392982335151173
1783002592860310300,3.713310302734375,-0.15618950962126255,-0.06428637501485646,0.00697710900362581
1783002592870362600,3.723362548828125,-0.13726853605210781,-0.07316869658529758,0.07398640617635101
1783002592880413400,3.733413330078125,-0.18099018887877463,-0.06055018416121602,0.07633079561172053
1783002592890465500,3.743465576171875,-0.08899754935801028,-0.05951908754780888,0.05806421256437897
1783002592900517400,3.753517333984375,-0.007398293557763099,-0.04105857109725475,0.102068390393164
1783002592910568400,3.763568359375,0.005041501298546791,-0.06133877725563943,0.08108105887873097
1783002592920620500,3.77362060546875,0.16169570582211015,-0.14009864491149782,0.031058616274269295
1783002592930672400,3.78367236328125,0.21936054380536077,-0.13895612381286918,-0.014064930106420069
1783002592940723500,3.793723388671875,0.04168693212866783,-0.09095226362235843,-0.1279602532877121
1783002592950775300,3.803775390625,-0.03258417274057865,-0.10870448567308486,-0.26634806656017895
1783002592960827400,3.813827392578125,0.03904898484051227,-0.05653050019107759,-0.2002715384592302
1783002592970878500,3.82387841796875,-0.07714636804461479,0.0007457768660038709,-0.10328182130353525
1783002592980930300,3.833930419921875,-0.15000643707215786,0.0019401742823421954,-0.04892264640270732
1783002592990982700,3.843982666015625,-0.06913198841512203,0.012892799320816993,0.0870577221355401
1783002593001033200,3.854033203125,-0.0332920287489891,0.052414881565794345,0.18868012232687323
1783002593011085600,3.86408544921875,-0.042221769657731056,0.05401018793322146,0.17969605741500855
1783002593021137400,3.874137451171875,-0.007371405550837516,-0.00004442366361618042,0.08882463134336285
1783002593031188500,3.8841884765625,-0.0028811083942651746,-0.010506780967116356,0.025196208780584855
1783002593041240600,3.894240478515625,-0.10682312890589236,-0.024828517112508414,-0.053874697585823014
1783002593051292400,3.90429248046875,-0.07472586289942264,-0.05373217470943927,-0.15004465932385064
1783002593061343500,3.914343505859375,-0.00710544809103012,-0.07253719374872744,-0.15827694688718766
1783002593071395300,3.924395263671875,0.022018939584493635,-0.09579363923892378,-0.151859608924482
1783002593081446400,3.9344462890625,-0.020720131945610044,-0.0834855079382658,-0.06692789336643182
1783002593091498500,3.94449853515625,-0.0021709142982959746,-0.0724626672077924,-0.02300080849500373
1783002593101550300,3.95455029296875,0.05642506705522537,-0.0029508126296103,0.0241192545983009
1783002593111597600,3.96459765625,0.061271922564506524,-0.007868322222307324,0.030452576672518623
1783002593121649400,3.9746494140625,-0.06713876877129077,-0.02467171911559999,-0.027236537235463036
1783002593131701500,3.984701416015625,-0.21515257072150706,-0.035415085317566986,-0.09695116611043922
1783002593141752600,3.994752685546875,-0.22811960432231426,-0.020209479009732603,-0.1188469177066814
1783002593151804400,4.004804443359375,-0.1967979988634586,-0.030294235172495243,-0.08856819976372644
1783002593161856800,4.014856689453125,-0.12368190924823283,-0.0694200846415013,-0.01668218166641891
1783002593171907300,4.0249072265625,-0.068113751283288,-0.09665127898156642,0.010027226422401144
1783002593181959700,4.034959716796875,0.001883329528570175,-0.12436843020766973,-0.08575332500608637
1783002593192011500,4.045011474609375,0.06493336768150329,-0.09810162392035127,-0.13591859188103117
1783002593202062600,4.0550625,0.04376958362162113,-0.13038571773581206,-0.15710616780845446
1783002593212114700,4.06511474609375,-0.12525894930660725,-0.16419614433571694,-0.03941753502511419
1783002593222166500,4.07516650390625,-0.3584358370184898,-0.17167013347819446,0.2686011792492121
1783002593232217600,4.085217529296875,-0.36107086169719693,-0.1656033077199012,0.38144970592446625
1783002593242269400,4.09526953125,-0.26795243301689625,-0.19430866626575588,0.16660068472679704
1783002593252321500,4.105321533203125,-0.23482465491890905,-0.1334846335992217,-0.08619262973880394
1783002593262372600,4.11537255859375,-0.18780220698118208,-0.013430632524564862,-0.18930117683466524
1783002593272424400,4.125424560546875,-0.11406886225044727,-0.011883768408745526,-0.15714843604760242
1783002593282475500,4.1354755859375,-0.10175766220986843,-0.02498860304504633,-0.04798181275548413
1783002593292527400,4.14552734375,-0.05902268233299255,-0.05868585159406066,0.042829416694678366
1783002593302579700,4.155579833984375,-0.020338439151644707,-0.0688894118309021,0.03186934813526459
1783002593312630500,4.165630615234375,0.032609307181835176,-0.06447093780152499,0.008646284324862063
1783002593322682600,4.1756826171875,-0.02545651281774044,-0.08751680928096174,0.14080246406560762
1783002593332734500,4.185734375,-0.07256488547325134,-0.046888080968335265,0.20921680573066695
1783002593342785500,4.19578564453125,-0.062169163665175435,0.00989909739755094,0.15036695008077658
1783002593352837600,4.205837646484375,-0.14653262348175047,0.014659589797630905,0.04998299651006236
1783002593362889500,4.215889404296875,-0.11629238351881503,-0.0035147301226854323,0.04049990516803227
1783002593372940500,4.2259404296875,-0.019614801052212714,-0.0019900047734379765,0.03419688690053299
1783002593382992400,4.235992431640625,0.0021779285609722135,-0.028579247948154807,-0.07018231945196166
1783002593393044500,4.24604443359375,0.10825579205751418,-0.018850684811919927,-0.14032156694717704
1783002593403095600,4.256095458984375,0.15749591604471205,-0.0036950551256537435,-0.13704457283681257
1783002593413147400,4.2661474609375,0.16661211943626403,-0.04132840101458132,-0.13293027851893566
1783002593423199700,4.27619970703125,0.07846797203719616,-0.02290091005079448,-0.05065964452945627
1783002593433250300,4.286250244140625,0.02428922260403633,-0.005188289358094334,-0.03623140666913241
1783002593443302700,4.296302734375,0.04616553884744644,0.016813479895889757,-0.09779892377988435
1783002593453354500,4.3063544921875,0.008351648759841918,0.01986117702871561,-0.10184921295084058
1783002593463405600,4.316405517578125,-0.03326864787340164,-0.021463424593582747,-0.09901881183050572
1783002593473457700,4.326457763671875,-0.06291267550885676,-0.037009368771687146,-0.10493424641937017
1783002593483509500,4.336509521484375,-0.08759177421331406,-0.04715053129680454,-0.09031575581710785
1783002593493560600,4.346560546875,-0.03841536311209202,-0.03781842013224959,-0.06597180735114962
1783002593503612400,4.3566123046875,0.00109013332426548,-0.05021181856356561,-0.06609916005786508
1783002593513663500,4.36666357421875,0.025205752927064895,-0.10353607005923986,-0.08497591089280322
1783002593523715600,4.376715576171875,0.14272212528288364,-0.10710713347904384,-0.03941175373829901
1783002593533767400,4.386767333984375,0.150979666018486,-0.07391520410366356,-0.016646562363766132
1783002593543818500,4.396818603515625,0.11488777741789817,-0.07234408232942223,-0.05010450399788096
1783002593553870300,4.406870361328125,-0.06730535750985145,-0.09347732512056826,-0.06670209438707679
1783002593563922700,4.416922607421875,0.12468494881093502,-0.12259462546817958,-0.14253085876079274
1783002593573973800,4.426973876953125,0.3520616258114576,0.014794249027967452,-0.06912227073870598
1783002593584025600,4.437025634765625,0.24394436544179915,0.060674468128010625,0.05274422311801463
1783002593594077700,4.44707763671875,-0.1512374401718378,-0.020916092909127472,0.1996974100993946
1783002593604128500,4.45712841796875,-0.4103092321187258,-0.1228020576737821,0.25125050547039135
1783002593614180600,4.4671806640625,-0.36319209163486954,-0.10291910720467567,0.15654957510530948
1783002593624232400,4.477232421875,-0.3049094140142202,-0.02483611589707434,0.08097458456326276
1783002593634283500,4.487283447265625,-0.2637462134987116,-0.04575564287230372,-0.046621009263675656
1783002593644335600,4.497335693359375,-0.4141834432035684,-0.05200491252541542,-0.07059656280865892
1783002593654387500,4.507387451171875,-0.4148404458075762,-0.06350384633503854,-0.02153979603173211
1783002593664438500,4.5174384765625,-0.30834581820368767,-0.06342829688079654,0.011356986321974545
1783002593674490400,4.527490478515625,-0.29472528913021084,-0.08749576649293303,0.02113108736667782
1783002593684542700,4.537542724609375,-0.24013620533049104,-0.13060557103157042,0.041185284483153374
1783002593694593500,4.547593505859375,-0.18897241980433463,-0.11132781991399823,0.054222478977032
1783002593704645600,4.557645751953125,-0.13148703004121778,-0.08077756415382027,0.018298950946982948
1783002593714697500,4.567697509765625,-0.21457330952882767,-0.08666348038725555,0.06701260337466373
1783002593724748500,4.57774853515625,-0.20585925719738005,-0.13382190272957087,0.11715451677348464
1783002593734800600,4.587800537109375,-0.12355039182305336,-0.13972564688064157,0.05890307454131543
1783002593744852500,4.5978525390625,-0.10378653768897056,-0.11175883174240589,-0.15289499812051652
1783002593754903600,4.607903564453125,-0.11979600772559643,-0.0938461584329605,-0.34059820170663296
1783002593764955600,4.61795556640625,-0.16953940505981444,-0.07003770508319139,-0.31004845740310844
1783002593775006500,4.62800634765625,-0.03996200803220272,-0.08334178861863911,-0.17648827434964476
1783002593785058600,4.63805859375,0.014576806885004043,-0.07579553795754909,-0.0057489737144671375
1783002593795110400,4.6481103515625,-0.03896189107894897,-0.10021350150778889,-0.021884243821538984
1783002593805161500,4.658161376953125,0.06300795257687568,-0.03180127873457968,-0.06982206217166967
1783002593815213600,4.668213623046875,0.09223112445175648,0.04614741866886615,-0.09403527866373769
1783002593825265700,4.678265625,0.07417173614799975,0.037936858880147334,-0.1390264765021857
1783002593835316700,4.688316650390625,0.09929857861995696,0.011127616279199719,-0.12955152280083856
1783002593845368600,4.69836865234375,0.060705520853400224,0.006797185859456658,-0.09761208683773874
1783002593855420700,4.708420654296875,-0.0555652353554964,0.03361315046213567,-0.03332125484347343
1783002593865471500,4.718471435546875,-0.20759002651274203,0.016266148211434482,0.09070855452697724
1783002593875523600,4.728523681640625,-0.0651858811378479,-0.04197137509323656,0.10899144938830285
1783002593885575400,4.738575439453125,0.0986649568915367,-0.041043811919540166,0.06507918762667105
1783002593895626500,4.74862646484375,-0.07250175710916519,-0.011869593752920626,0.00766148367174901
1783002593905678600,4.7586787109375,-0.17540858935415743,-0.05473353377170861,-0.001258183367550373
1783002593915730400,4.76873046875,-0.19509937825202942,-0.08870660358741879,0.04920413935836404
1783002593925781500,4.778781494140625,-0.16960253342390058,-0.07188355214558541,0.06855353094004094
1783002593935833300,4.788833251953125,-0.024866730231046675,-0.02479775664806366,0.07813239254043437
1783002593945885700,4.7988857421875,0.021219898161292074,-0.015100027041509747,0.12263711290303617
1783002593955936500,4.8089365234375,-0.05134381826817989,-0.06910086262449622,0.10232243821946903
1783002593965988600,4.818988525390625,-0.11903203761577605,-0.10043328173831105,0.05312118493793532
1783002593976040700,4.829040771484375,-0.18844576558172701,-0.11519392075762153,0.049750667325221
1783002593986091500,4.839091552734375,-0.25849837597310543,-0.18984211531095205,0.046624699058104305
1783002593996143600,4.8491435546875,-0.19365034848749638,-0.20726276731975377,0.011926210177829489
1783002594006194700,4.859194580078125,-0.16435294233262537,-0.14511998020485042,0.03377745591206476
1783002594016246500,4.86924658203125,-0.27894436715245247,-0.15187420370541513,-0.03661590334153734
1783002594026298600,4.879298583984375,-0.2898264111727476,-0.13705832736752926,-0.10203530097431503
1783002594036349400,4.889349365234375,-0.3585024725139141,-0.055113034608587616,0.01185949248401448
1783002594046401500,4.899401611328125,-0.44007951648235316,0.010562748938053845,0.12218729590945876
1783002594056453400,4.909453369140625,-0.27532851474285125,-0.01597907489836216,0.14356497844834812
1783002594066504400,4.91950439453125,-0.23348726883530616,-0.05298683623485267,0.12095480410559102
1783002594076556500,4.929556640625,-0.07781623013019562,-0.10730119474641978,-0.015487400657590477
1783002594086608600,4.939608642578125,0.2035141553759575,-0.07290412736497819,-0.17223251660130917
1783002594096659500,4.949659423828125,0.03036240503787994,-0.03079743545427918,-0.19966106014437973
1783002594106711600,4.959711669921875,-0.26187282084226604,-0.11203662577047943,-0.12342918572933412
1783002594116768000,4.96976806640625,-0.17290099044740198,-0.11712101636268198,-0.0047236127221025525
1783002594126818800,4.97981884765625,0.04779343231022358,0.02692074015140533,0.03905996289225295
1783002594136871000,4.989870849609375,0.01921849521100521,0.13291976625807583,0.10088192968810908
1783002594146922800,4.9999228515625,0.0005950432837009429,0.10424874837324023,0.1438190810735803
1783002594156973800,5.009973876953125,0.09233750743567944,0.061360185369849204,0.09609595578690058
1783002594167026000,5.02002587890625,0.1773410187214613,0.03752301738224923,0.025621320591168478
1783002594177077800,5.030077880859375,0.15961363885104654,0.0033775866743177172,-0.0007594217988662422
1783002594187128800,5.04012890625,0.1964239048540592,-0.005275017793476581,-0.07216307233986444
1783002594197180700,5.0501806640625,0.1781687017172575,0.01998188079893589,-0.04975543483188376
1783002594207232800,5.060232666015625,0.08350187455117702,-0.017176102663204074,0.03807834514349233
1783002594217283800,5.070283935546875,-0.03684884444773197,-0.08081124722771346,0.05953833110439591
1783002594227335700,5.080335693359375,-0.08373568330705165,-0.06334500251151622,-0.002504365770053118
1783002594237386800,5.09038671875,-0.04614683414697647,-0.02773987451456487,-0.15563901786534115
1783002594247438800,5.10043896484375,-0.09119067548811435,0.022925459970161318,-0.1550827904883772
1783002594257491000,5.110490966796875,-0.19343641347587107,0.008690379194915294,-0.0016841491280822083
1783002594267541800,5.120541748046875,-0.20466975515186786,-0.00048800271265208716,0.08037583321882412
1783002594277593900,5.13059375,-0.19135843815803527,0.026164880282804368,0.06133836169710848
1783002594287645700,5.140645751953125,-0.19784721565544605,0.014334522561728954,0.006970738628343679
1783002594297696800,5.15069677734375,-0.21084405987262725,-0.012371259664744137,0.05402450871951878
1783002594307748900,5.160748779296875,-0.020758125868439673,-0.053421574390307064,0.10698082195194437
1783002594317800700,5.17080078125,0.042415830925107,-0.07719685612283647,0.08096851101550273
1783002594327851800,5.180851806640625,0.030533669951558113,-0.09376264486797153,-0.019182044791290535
1783002594337903600,5.190903564453125,0.02056172651350498,-0.06241159411892294,-0.036289240086881905
1783002594347955700,5.200955810546875,0.10752806230485439,-0.028110534457862376,-0.0960791507825721
1783002594358006800,5.2110068359375,0.11542319946885109,0.0058827744282782075,-0.11064092449522576
1783002594368058600,5.22105859375,0.22336685683727264,0.043264848969876764,-0.04237550348129589
1783002594378111000,5.231111083984375,0.38568507847189903,0.05701813757754862,-0.11231199037944897
1783002594388161800,5.241161865234375,1.860496349993348,0.198539654899016,0.10814217561520635
1783002594398214000,5.2512138671875,1.4053139569252728,0.13532280881181358,0.7890213297728449
1783002594408265700,5.261265625,-0.6403612658083438,-0.16084624938592315,0.15278024916704744
1783002594418316800,5.27131689453125,-0.8835475063592195,-0.051035044579952955,-0.3685359734134748
1783002594428369000,5.281368896484375,-1.0542460183262825,0.03559957503899932,-0.4211810835385695
1783002594438420700,5.291420654296875,-1.22999012324512,0.004693856904655695,-0.28434408903783187
1783002594448471800,5.301471923828125,-0.8386889584571122,-0.14564604990556834,-0.22007302118996158
1783002594458523600,5.311523681640625,-0.6950403659790754,-0.1520550401650369,-0.24293971844390033
1783002594468574700,5.32157470703125,-0.5317734653174877,0.021514570258930325,-0.06567344545908271
1783002594478626800,5.331626708984375,0.2580418643772602,0.06101940910816192,0.14552467028191313
