time,seconds_elapsed,z,y,x
1783002589231662600,0.08466259765625,-0.028678525239229202,0.11773311346769333,-0.0930844396352768
1783002589241714400,0.09471435546875,-0.0388328917324543,0.09737510979175568,-0.154430091381073
1783002589251766500,0.1047666015625,-0.040651027113199234,0.13498425483703613,-0.14765246212482452
1783002589261817300,0.1148173828125,-0.03664110600948334,0.19264009594917297,-0.10655589401721954
1783002589271869400,0.124869384765625,-0.02646012231707573,0.2010135054588318,-0.09583742916584015
1783002589281921500,0.134921630859375,0.013728043995797634,0.10314686596393585,-0.12348902970552444
1783002589291972600,0.14497265625,0.0553271621465683,0.021263297647237778,-0.0932048112154007
1783002589302024700,0.155024658203125,0.05390290170907974,-0.018124587833881378,-0.017127355560660362
1783002589312076500,0.16507666015625,0.02225308306515217,-0.05813593044877052,0.05878755450248718
1783002589322127600,0.175127685546875,0.0030085486359894276,-0.05928348749876022,0.11916673928499222
1783002589332179500,0.185179443359375,0.009136766195297241,-0.0222126804292202,0.12809155881404877
1783002589342230500,0.19523046875,0.025332782417535782,0.006238401867449284,0.09781461209058762
1783002589352282600,0.20528271484375,0.039918914437294006,-0.010089704766869545,0.0536133348941803
1783002589362334500,0.21533447265625,0.04937180504202843,-0.04145641624927521,0.05825309082865715
1783002589372385500,0.225385498046875,0.03349350020289421,0.023404620587825775,0.1232399269938469
1783002589382437400,0.235437255859375,0.0042072501964867115,0.10670643299818039,0.19602039456367493
1783002589392489500,0.245489501953125,0.002023999346420169,0.10972292721271515,0.2313530445098877
1783002589402540500,0.25554052734375,0.021390240639448166,0.04346267879009247,0.21962474286556244
1783002589412592600,0.265592529296875,0.029507014900445938,0.001138464082032442,0.18074637651443481
1783002589422644700,0.275644775390625,0.01766446977853775,-0.013707326725125313,0.10961467027664185
1783002589432695600,0.285695556640625,0.009765541180968285,-0.024162787944078445,0.02891724556684494
1783002589442747600,0.29574755859375,0.006432861555367708,-0.040532439947128296,-0.04041309282183647
1783002589452799500,0.305799560546875,0.008281348273158073,-0.061851631850004196,-0.07374271750450134
1783002589462850600,0.3158505859375,-0.00046793464571237564,-0.0847092792391777,-0.07416243106126785
1783002589472902700,0.325902587890625,-0.008239306509494781,-0.08325017243623734,-0.05139699578285217
1783002589482954500,0.33595458984375,-0.01918569765985012,-0.036121007055044174,-0.031439002603292465
1783002589493005600,0.346005615234375,-0.028256157413125038,-0.00029803020879626274,-0.009707874618470669
1783002589503057400,0.356057373046875,-0.02893313206732273,0.025863533839583397,0.005858301185071468
1783002589513108500,0.3661083984375,-0.02160225249826908,0.06281077861785889,0.03475845232605934
1783002589523160600,0.37616064453125,-0.020108219236135483,0.08937820047140121,0.04199426248669624
1783002589533212400,0.38621240234375,-0.010536553338170052,0.05196717754006386,0.046144530177116394
1783002589543263500,0.396263427734375,-0.007636636961251497,-0.01847822591662407,0.045912835747003555
1783002589553315600,0.406315673828125,-0.024943966418504715,-0.06470881402492523,0.06823191046714783
1783002589563367700,0.41636767578125,-0.038128212094306946,-0.06252741813659668,0.09722521901130676
1783002589573418500,0.42641845703125,-0.040222521871328354,-0.03839559108018875,0.12326209247112274
1783002589583470600,0.436470703125,-0.02027198113501072,0.040526919066905975,0.10773798823356628
1783002589593522400,0.4465224609375,-0.005833921488374472,0.12106229364871979,0.05582570657134056
1783002589603573500,0.456573486328125,-0.003507650922983885,0.15788981318473816,-0.0035172440111637115
1783002589613625600,0.46662548828125,-0.01596911810338497,0.165387362241745,-0.06792927533388138
1783002589623677400,0.476677490234375,-0.03839666396379471,0.12968848645687103,-0.09488125890493393
1783002589633728500,0.486728515625,-0.04711373150348663,0.14705267548561096,-0.08196163177490234
1783002589643780400,0.4967802734375,-0.054948218166828156,0.15238964557647705,-0.06454215943813324
1783002589653832400,0.50683251953125,-0.038178302347660065,0.07299887388944626,-0.051483094692230225
1783002589663883500,0.516883544921875,-0.015149151906371117,-0.012943994253873825,-0.02719905972480774
1783002589673935600,0.526935546875,-0.003120693378150463,-0.07488559186458588,0.0012837052345275879
1783002589683986400,0.536986328125,-0.0011619385331869125,-0.12075801193714142,0.02272161841392517
1783002589694038500,0.54703857421875,-0.0010903021320700645,-0.09146912395954132,0.04553909972310066
1783002589704090600,0.557090576171875,-0.004079168196767569,-0.02057843841612339,0.060717783868312836
1783002589714141700,0.5671416015625,0.00601552240550518,0.029610658064484596,0.07004813104867935
1783002589724193500,0.577193603515625,0.022344959899783134,0.01813189871609211,0.0854494571685791
1783002589734245600,0.58724560546875,0.024078428745269775,-0.014860350638628006,0.09711480140686035
1783002589744296400,0.59729638671875,0.018650108948349953,-0.010231509804725647,0.08745205402374268
1783002589754348500,0.6073486328125,0.005018186755478382,0.01431062538176775,0.03889070823788643
1783002589764400400,0.617400390625,0.0034418615978211164,0.002365549560636282,-0.02849259227514267
1783002589774451500,0.627451416015625,0.01239355094730854,-0.0216115340590477,-0.07072431594133377
1783002589784503600,0.637503662109375,0.025890717282891273,-0.021777715533971786,-0.09069003164768219
1783002589794555400,0.647555419921875,0.02731630578637123,-0.03535166755318642,-0.09400606900453568
1783002589804606500,0.6576064453125,0.035770244896411896,-0.07912018150091171,-0.08228736370801926
1783002589814658600,0.667658447265625,0.04073623940348625,-0.10050859302282333,-0.04438706859946251
1783002589824710700,0.677710693359375,0.03886483609676361,-0.08712221682071686,0.01794181764125824
1783002589834761700,0.68776171875,0.0324772447347641,-0.04272368550300598,0.07403625547885895
1783002589844813600,0.6978134765625,0.023660052567720413,-0.03723784536123276,0.10184711217880249
1783002589854864600,0.70786474609375,0.015487877652049065,-0.027872402220964432,0.10919824987649918
1783002589864916500,0.71791650390625,0.016627443954348564,0.0030580819584429264,0.10865762829780579
1783002589874968600,0.727968505859375,0.028383703902363777,0.002054896205663681,0.08821914345026016
1783002589885019600,0.73801953125,0.03957483917474747,-0.002672214526683092,0.056720346212387085
1783002589895071500,0.748071533203125,0.03956816717982292,0.004931394476443529,0.018246863037347794
1783002589905123600,0.75812353515625,0.031762704253196716,0.01322500966489315,-0.013997094705700874
1783002589915174400,0.76817431640625,0.028048135340213776,0.009556716307997704,-0.035586465150117874
1783002589925226500,0.7782265625,0.020706333220005035,0.027868611738085747,-0.033776845782995224
1783002589935278600,0.788278564453125,0.003708715084940195,0.05130914971232414,-0.049467701464891434
1783002589945329400,0.798329345703125,-0.020026708021759987,0.05434941500425339,-0.11772904545068741
1783002589955381500,0.808381591796875,-0.0057228682562708855,0.058444149792194366,-0.20311272144317627
1783002589965433600,0.81843359375,0.01834305375814438,0.10688865184783936,-0.266384094953537
1783002589975484700,0.828484619140625,0.0018900437280535698,0.09527673572301865,-0.2912366986274719
1783002589985536500,0.83853662109375,-0.028663869947195053,0.10515785962343216,-0.26410654187202454
1783002589995588600,0.848588623046875,-0.04327636957168579,0.1051853597164154,-0.17279154062271118
1783002590005639700,0.8586396484375,-0.0500117689371109,0.09809469431638718,-0.0749744325876236
1783002590015691500,0.86869140625,-0.048417866230010986,0.044069092720746994,-0.02219017595052719
1783002590025742600,0.87874267578125,-0.03374331817030907,-0.028087656944990158,-0.01550031453371048
1783002590035794400,0.88879443359375,-0.011839091777801514,-0.06691587716341019,-0.03469283878803253
1783002590045846500,0.898846435546875,-0.0011022919788956642,-0.05187699943780899,-0.034228913486003876
1783002590055897600,0.908897705078125,-0.008421185426414013,-0.014135943725705147,-0.03671815246343613
1783002590065949400,0.918949462890625,-0.01300315372645855,0.009471114724874496,-0.0332360677421093
1783002590076001500,0.92900146484375,-0.005734062287956476,0.01547296904027462,-0.014550885185599327
1783002590086052600,0.939052490234375,0.0006410123314708471,-0.03385915979743004,-0.0017645163461565971
1783002590096104700,0.949104736328125,0.01164174173027277,-0.03597847744822502,0.02766627073287964
1783002590106156500,0.959156494140625,0.0064035700634121895,0.006260587368160486,0.05530695617198944
1783002590116210700,0.969210693359375,-0.004686366766691208,-0.018009161576628685,0.05186191946268082
1783002590126262800,0.9792626953125,0.0034655688796192408,-0.04949704930186272,0.029969405382871628
1783002590136315000,0.98931494140625,0.012134958989918232,-0.01624833606183529,0.005512873642146587
1783002590146366000,0.999365966796875,-0.0007536751218140125,-0.009013326838612556,-0.023729432374238968
1783002590156417800,1.009417724609375,-0.011587146669626236,-0.03714679181575775,-0.045351363718509674
1783002590166468900,1.01946875,-0.011616175994277,-0.030443083494901657,-0.0387541800737381
1783002590176520700,1.029520751953125,-0.004731375724077225,-0.01843561790883541,-0.00897254142910242
1783002590186572800,1.03957275390625,-0.00869921874254942,-0.007011721841990948,0.01480229664593935
1783002590196624000,1.049623779296875,-0.007981761358678341,-0.014700228348374367,-0.0047910637222230434
1783002590206675700,1.05967578125,0.0027486467733979225,-0.01450635027140379,-0.049703676253557205
1783002590216727800,1.069727783203125,0.012806875631213188,-0.002274562604725361,-0.09671122580766678
1783002590226778600,1.079778564453125,0.011642009019851685,0.03353669494390488,-0.09835971891880035
1783002590236830700,1.089830810546875,0.005766530521214008,0.02441684529185295,-0.06858842819929123
1783002590246882600,1.099882568359375,0.00842543039470911,-0.015169179067015648,-0.022949300706386566
1783002590256933600,1.10993359375,0.009554356336593628,-0.06168080121278763,0.030663233250379562
1783002590266986000,1.119986083984375,0.018249843269586563,-0.08284147828817368,0.06266457587480545
1783002590277037800,1.130037841796875,0.02510533668100834,-0.07953102886676788,0.05739879608154297
1783002590287089000,1.1400888671875,0.02830219455063343,-0.07220999896526337,0.027939170598983765
1783002590297140700,1.150140625,0.020878372713923454,-0.05899358540773392,-0.01134477462619543
1783002590307191800,1.16019189453125,0.014978138729929924,-0.024320822209119797,-0.041547417640686035
1783002590317244000,1.170243896484375,-0.003679689485579729,0.037772636860609055,-0.03092648833990097
1783002590327295700,1.180295654296875,-0.021710354834794998,0.07324514538049698,0.009278721176087856
1783002590337346800,1.190346923828125,-0.021566543728113174,0.06230141967535019,0.072960764169693
1783002590347398700,1.200398681640625,-0.007625695783644915,0.03510148823261261,0.11793356388807297
1783002590357450800,1.21045068359375,-0.009519752115011215,-0.005753698758780956,0.13224726915359497
1783002590367501800,1.220501708984375,-0.02031966857612133,-0.003744343761354685,0.11145064234733582
1783002590377553700,1.2305537109375,-0.020471984520554543,0.024592947214841843,0.07550482451915741
1783002590387606000,1.24060595703125,-0.02051539532840252,0.021170519292354584,0.043655287474393845
1783002590397656600,1.250656494140625,-0.008550887927412987,0.0024903262965381145,0.01070413738489151
1783002590407709000,1.260708984375,-0.007126097101718187,-0.0050149941816926,-0.008133999072015285
1783002590417760800,1.2707607421875,-0.0020884633995592594,-0.002555116079747677,-0.0018229763954877853
1783002590427811800,1.280811767578125,0.008883493952453136,0.024730300530791283,0.033618904650211334
1783002590437864000,1.290864013671875,0.01822401024401188,0.059147391468286514,0.09315703809261322
1783002590447915800,1.300915771484375,0.025599900633096695,0.07258836179971695,0.1326671689748764
1783002590457966800,1.310966796875,0.030860967934131622,0.04956231266260147,0.1425270140171051
1783002590468018700,1.321018798828125,0.04364627227187157,0.03867877274751663,0.13358572125434875
1783002590478069800,1.33106982421875,0.05518415570259094,0.04251473397016525,0.09593535959720612
1783002590488121900,1.341121826171875,0.06993220746517181,0.000989928375929594,0.034189704805612564
1783002590498173700,1.351173583984375,0.06684800237417221,-0.053167372941970825,0.0020800502970814705
1783002590508224800,1.361224853515625,0.06713748723268509,-0.013867105357348919,0.014209949411451817
1783002590518276600,1.371276611328125,0.06974419206380844,0.06252222508192062,0.04004539176821709
1783002590528329000,1.381328857421875,0.06976363062858582,0.08653675019741058,0.054721277207136154
1783002590538380000,1.391380126953125,0.06201676279306412,0.09740768373012543,0.04824138060212135
1783002590548432000,1.401431884765625,0.0557791069149971,0.10008522123098373,0.017971891909837723
1783002590558483700,1.411483642578125,0.043631892651319504,0.07589924335479736,-0.04056136682629585
1783002590568534800,1.42153466796875,0.023612111806869507,0.010669635608792305,-0.09948647767305374
1783002590578587000,1.4315869140625,0.006430177949368954,-0.04321637004613876,-0.11689744889736176
1783002590588638700,1.441638671875,-0.009759178385138512,-0.03145745024085045,-0.0747060552239418
1783002590598689800,1.451689697265625,-0.013463892042636871,-0.009691406041383743,-0.016860652714967728
1783002590608742000,1.461741943359375,-0.010922703891992569,-0.008639723993837833,0.03168957307934761
1783002590618792700,1.471792724609375,-0.00012889737263321877,-0.018099289387464523,0.05904248729348183
1783002590628844800,1.4818447265625,0.012318983674049377,-0.003960567992180586,0.07344113290309906
1783002590638896600,1.491896728515625,0.02056918293237686,0.02709406614303589,0.06759558618068695
1783002590648947700,1.50194775390625,0.01694195717573166,0.018746118992567062,0.05940290540456772
1783002590658999800,1.511999755859375,0.010111216455698013,-0.013409685343503952,0.06803794205188751
1783002590669052000,1.522052001953125,0.00037123681977391243,-0.01725289225578308,0.09203888475894928
1783002590679103000,1.53210302734375,-0.015170697122812271,-0.015369325876235962,0.11549637466669083
1783002590689154800,1.54215478515625,-0.015537414699792862,-0.0316777229309082,0.11761464923620224
1783002590699207000,1.55220703125,-0.008089907467365265,-0.0353861041367054,0.10901457071304321
1783002590709257700,1.5622578125,-0.008198032155632973,-0.0051552290096879005,0.08653189986944199
1783002590719309800,1.572309814453125,-0.015299597755074501,0.026409126818180084,0.06367776542901993
1783002590729361700,1.582361572265625,-0.015465512871742249,0.013056037947535515,0.04128643497824669
1783002590739412700,1.592412841796875,-0.008909350261092186,-0.021244073286652565,0.035479988902807236
1783002590749464800,1.60246484375,-0.009088315069675446,-0.02807960845530033,0.04699816182255745
1783002590759515600,1.612515625,-0.01588417962193489,-0.005960036534816027,0.05769626051187515
1783002590769567700,1.622567626953125,-0.02707345224916935,-0.006481483578681946,0.033403702080249786
1783002590779619600,1.63261962890625,-0.018445055931806564,-0.02358960546553135,-0.0022771386429667473
1783002590789670700,1.642670654296875,-0.012228970415890217,-0.03364357352256775,-0.009351825341582298
1783002590799722800,1.65272265625,-0.010441465303301811,-0.050095345824956894,0.00997503288090229
1783002590809774800,1.66277490234375,-0.01367933675646782,-0.051121193915605545,0.04451463371515274
1783002590819826000,1.672825927734375,-0.016222644597291946,-0.01731378212571144,0.09018982201814651
1783002590829877800,1.682877685546875,-0.020385432988405228,-0.011947247199714184,0.13237906992435455
1783002590839929900,1.692929931640625,-0.02524384669959545,0.007438829634338617,0.16285651922225952
1783002590849981000,1.70298095703125,-0.02354661375284195,-0.008727090433239937,0.15181106328964233
1783002590860032800,1.71303271484375,-0.018866633996367455,-0.04324457794427872,0.09575960785150528
1783002590870084900,1.7230849609375,-0.015562450513243675,-0.05883472040295601,0.028240222483873367
1783002590880135700,1.7331357421875,-0.014015419408679008,-0.06431341916322708,-0.024007074534893036
1783002590890187800,1.743187744140625,-0.007122358772903681,-0.06303669512271881,-0.04236743971705437
1783002590900239600,1.753239501953125,-0.002292187884449959,-0.07383082062005997,-0.02227151021361351
1783002590910290700,1.763290771484375,0.0008146560285240412,-0.046393875032663345,0.018116392195224762
1783002590920342800,1.7733427734375,0.0018263927195221186,0.0067541999742388725,0.04394560307264328
1783002590930395000,1.783394775390625,0.012128831818699837,0.05097891762852669,0.038372673094272614
1783002590940446000,1.793446044921875,0.01732705906033516,0.0625024288892746,0.013090582564473152
1783002590950497800,1.803497802734375,0.018013354390859604,0.03183399885892868,-0.008773969486355782
1783002590960548900,1.813548828125,0.00040665967389941216,0.017378713935613632,-0.012867088429629803
1783002590970601000,1.82360107421875,-0.007342606317251921,0.009585505351424217,-0.008573274128139019
1783002590980652800,1.83365283203125,0.001511075533926487,-0.025790875777602196,-0.003174366895109415
1783002590990703900,1.843703857421875,0.009820138104259968,-0.0795968547463417,0.007275078445672989
1783002591000755700,1.853755615234375,0.017665276303887367,-0.1039065346121788,0.03101222589612007
1783002591010807800,1.863807861328125,0.0062376526184380054,-0.06472770869731903,0.0338309146463871
1783002591020859000,1.87385888671875,-0.00042397668585181236,0.0025465725921094418,-0.00641050236299634
1783002591030910700,1.88391064453125,0.012140817940235138,0.04926028102636337,-0.07355917990207672
1783002591040962800,1.893962890625,0.020139889791607857,0.07429149746894836,-0.11055713146924973
1783002591051013600,1.904013671875,0.013809287920594215,0.07347550988197327,-0.10075456649065018
1783002591061065700,1.914065673828125,-0.0057665444910526276,0.04474245384335518,-0.05741836130619049
1783002591071117800,1.924117919921875,-0.011718709021806717,0.0103895403444767,0.0037485891953110695
1783002591081169000,1.9341689453125,-0.00802597589790821,-0.036650560796260834,0.059539794921875
1783002591091220700,1.944220703125,-0.009322136640548706,-0.04509331285953522,0.09077095240354538
1783002591101271800,1.954271728515625,-0.013229802250862122,-0.0025198222137987614,0.08046077191829681
1783002591111319600,1.964319580078125,-0.008073655888438225,0.021470464766025543,0.014340872876346111
1783002591121371400,1.974371337890625,0.006081311963498592,0.014118011109530926,-0.06367802619934082
1783002591131422500,1.98442236328125,0.017804281786084175,0.04129476845264435,-0.09610654413700104
1783002591141474600,1.994474609375,0.01508546806871891,0.04770582541823387,-0.09317045658826828
1783002591151526400,2.0045263671875,0.0052437554113566875,0.02038498781621456,-0.053307466208934784
1783002591161577500,2.014577392578125,0.01013172883540392,0.02372456155717373,0.003507375717163086
1783002591171629300,2.02462939453125,0.011602859012782574,-0.003015172900632024,0.04368195682764053
1783002591181681700,2.034681640625,0.013521132990717888,-0.060229502618312836,0.04604571312665939
1783002591191732700,2.044732666015625,0.04567321017384529,-0.11106205731630325,0.05744963511824608
1783002591201784600,2.05478466796875,0.09664931148290634,-0.13988901674747467,0.08951424807310104
1783002591211836700,2.064836669921875,0.1369008719921112,-0.11969374120235443,0.1184082105755806
1783002591221887500,2.074887451171875,0.16257666051387787,-0.12752395868301392,0.0881858840584755
1783002591231939600,2.084939697265625,0.1827263981103897,-0.1796867698431015,0.03287576138973236
1783002591241991400,2.094991455078125,0.18382282555103302,-0.1953006088733673,-0.02489660307765007
1783002591252042500,2.10504248046875,0.15183931589126587,-0.16270937025547028,-0.08323714137077332
1783002591262094600,2.115094482421875,0.12731240689754486,-0.12264544516801834,-0.13589908182621002
1783002591272145400,2.1251455078125,0.10388058423995972,-0.0938715934753418,-0.17376017570495605
1783002591282197500,2.135197509765625,0.08281151950359344,-0.03302634879946709,-0.1903601884841919
1783002591292249300,2.145249267578125,0.06654705852270126,0.04551107436418533,-0.19816112518310547
1783002591302300400,2.155300537109375,0.04978271573781967,0.0964713841676712,-0.23012493550777435
1783002591312352800,2.165352783203125,0.036810725927352905,0.11032408475875854,-0.2620472013950348
1783002591322404600,2.175404541015625,0.025672320276498795,0.10527442395687103,-0.29107436537742615
1783002591332455700,2.18545556640625,0.01584392413496971,0.10942123830318451,-0.27260321378707886
1783002591342507500,2.195507568359375,0.0016697896644473076,0.08456487208604813,-0.19337749481201172
1783002591352559600,2.2055595703125,-0.0015204111114144325,0.058728743344545364,-0.06265676766633987
1783002591362610700,2.215610595703125,0.0013302413281053305,0.040549151599407196,0.06223784387111664
1783002591372662500,2.22566259765625,-0.0005052094347774982,0.008641288615763187,0.13228297233581543
1783002591382714600,2.235714599609375,0.0034679658710956573,0.03130112960934639,0.14528560638427734
1783002591392765400,2.245765380859375,0.0047651915811002254,0.07530134916305542,0.12335580587387085
1783002591402817500,2.255817626953125,0.005612345412373543,0.07531729340553284,0.07783202826976776
1783002591412868600,2.26586865234375,0.009344765916466713,0.07978048175573349,0.03095693141222
1783002591422920400,2.27592041015625,0.0043894220143556595,0.09103451669216156,-0.003896853420883417
1783002591432972500,2.28597265625,-0.004847752396017313,0.06932202726602554,-0.04160667955875397
1783002591443023400,2.2960234375,-0.012201540172100067,0.02475050836801529,-0.05995498225092888
1783002591453075700,2.30607568359375,-0.016684971749782562,0.005595189519226551,-0.04295283183455467
1783002591463127600,2.31612744140625,-0.018750252202153206,-0.008206837810575962,-0.025525595992803574
1783002591473178600,2.3261787109375,-0.01588495634496212,-0.0296439528465271,-0.005176384001970291
1783002591483230500,2.33623046875,-0.010608706623315811,-0.05654287338256836,0.01120635773986578
1783002591493282600,2.346282470703125,-0.00497478898614645,-0.06483568996191025,0.026493169367313385
1783002591503333600,2.356333740234375,-0.004800889175385237,-0.030616410076618195,0.03909889608621597
1783002591513385500,2.366385498046875,-0.0163909662514925,0.004385515581816435,0.040686942636966705
1783002591523437600,2.3764375,-0.025662770494818687,0.038843512535095215,0.023691894486546516
1783002591533488600,2.386488525390625,-0.03097577579319477,0.05027273669838905,-0.007598385214805603
1783002591543540500,2.39654052734375,-0.03405385464429855,0.03318868577480316,-0.04171992838382721
1783002591553592300,2.40659228515625,-0.03710184246301651,-0.011273058131337166,-0.062462225556373596
1783002591563643400,2.416643310546875,-0.046736881136894226,-0.03302829712629318,-0.060040432959795
1783002591573695500,2.426695556640625,-0.05476684495806694,-0.035802777856588364,-0.039924778044223785
1783002591583747600,2.43674755859375,-0.05322222411632538,-0.02856096811592579,-0.009992361068725586
1783002591593798700,2.446798583984375,-0.03721662610769272,-0.014025967568159103,0.02482207864522934
1783002591603850500,2.4568505859375,-0.028003688901662827,0.004257881548255682,0.040337517857551575
1783002591613901600,2.466901611328125,-0.0276084765791893,0.0108803641051054,0.043110400438308716
1783002591623953700,2.47695361328125,-0.023204922676086426,0.007821986451745033,0.027392402291297913
1783002591634005500,2.487005615234375,-0.025779666379094124,0.0038102008402347565,0.022650908678770065
1783002591644056600,2.497056640625,-0.03791569173336029,-0.0017435436602681875,0.023081105202436447
1783002591654108400,2.5071083984375,-0.04632249101996422,0.010041477158665657,0.04917049780488014
1783002591664160500,2.517160400390625,-0.05528988689184189,0.019977636635303497,0.0697956457734108
1783002591674211600,2.527211669921875,-0.053714096546173096,0.011881892569363117,0.0795753076672554
1783002591684263400,2.537263427734375,-0.039594829082489014,-0.0046540796756744385,0.07113996893167496
1783002591694315500,2.5473154296875,-0.028834328055381775,-0.013908830471336842,0.04683809354901314
1783002591704366300,2.557366455078125,-0.020941248163580894,-0.015091190114617348,0.004593041725456715
1783002591714418700,2.567418701171875,-0.014216765761375427,-0.019548524171113968,-0.0382486991584301
1783002591724470500,2.577470458984375,-0.011990377679467201,-0.009414815343916416,-0.0685787945985794
1783002591734521600,2.587521484375,-0.01860673539340496,-0.008893635123968124,-0.07919548451900482
1783002591744573700,2.59757373046875,-0.025807375088334084,-0.0042803543619811535,-0.06780978292226791
1783002591754625500,2.60762548828125,-0.02613973803818226,-0.020204458385705948,-0.049470193684101105
1783002591764676600,2.617676513671875,-0.014320628717541695,-0.02354348823428154,-0.026783455163240433
1783002591774728400,2.627728515625,-0.0018013743683695793,-0.02216024324297905,-0.01918439008295536
1783002591784780500,2.637780517578125,0.007725553587079048,-0.015776295214891434,-0.023306559771299362
1783002591794831600,2.64783154296875,0.007936475798487663,0.0017992360517382622,-0.024901527911424637
1783002591804883500,2.657883544921875,-0.004189955070614815,0.03219613432884216,-0.017774023115634918
1783002591814934500,2.6679345703125,-0.015217039734125137,0.01768190786242485,-0.022946679964661598
1783002591824986400,2.677986328125,-0.015544075518846512,0.0211263969540596,-0.012843781150877476
1783002591835038500,2.68803857421875,-0.017904968932271004,0.02437864989042282,-0.0022087139077484608
1783002591845089500,2.698089599609375,-0.02083045057952404,0.012000808492302895,0.003267810679972172
1783002591855141600,2.7081416015625,-0.010375414043664932,-0.026992661878466606,0.006486773490905762
1783002591865193700,2.71819384765625,0.008901593275368214,-0.05047530680894852,0.026942607015371323
1783002591875244500,2.72824462890625,0.0162455253303051,-0.04399610310792923,0.05176912620663643
1783002591885296600,2.738296630859375,0.010515483096241951,-0.03298795595765114,0.07104538381099701
1783002591895348500,2.748348388671875,0.0076107727363705635,-0.020640742033720016,0.07814004272222519
1783002591905399600,2.758399658203125,-0.00005193334072828293,-0.0021731231827288866,0.06982480734586716
1783002591915451600,2.76845166015625,-0.0118595901876688,-0.003833870403468609,0.05269136652350426
1783002591925503500,2.77850341796875,-0.012632980942726135,-0.008008919656276703,0.028531337156891823
1783002591935554600,2.788554443359375,-0.007726373616605997,-0.01592596434056759,0.0024328920990228653
1783002591945606400,2.7986064453125,0.0011723022907972336,-0.028868507593870163,-0.026953842490911484
1783002591955658500,2.808658447265625,0.009315449744462967,-0.04178936779499054,-0.047297198325395584
1783002591965709600,2.81870947265625,0.019842661917209625,-0.040945857763290405,-0.040347546339035034
1783002591975761700,2.82876171875,0.022861622273921967,-0.011058798991143703,-0.0015791081823408604
1783002591985813500,2.8388134765625,0.010849982500076294,-0.008404696360230446,0.03726200386881828
1783002591995864600,2.848864501953125,-0.006233662832528353,-0.011189563199877739,0.05169234424829483
1783002592005916700,2.858916748046875,-0.013356020674109459,0.006363905966281891,0.0497075580060482
1783002592015967500,2.868967529296875,-0.022847527638077736,0.036482393741607666,0.029027581214904785
1783002592026019600,2.87901953125,-0.01848313957452774,0.029725702479481697,-0.011320522055029869
1783002592036071400,2.889071533203125,0.0012607360258698463,0.003708749543875456,-0.03678194060921669
1783002592046122500,2.89912255859375,0.013354153372347355,-0.0038679589051753283,-0.043189890682697296
1783002592056174600,2.909174560546875,0.013691841624677181,-0.009453672915697098,-0.028912417590618134
1783002592066226400,2.919226318359375,0.009236637502908707,-0.008071127347648144,-0.0021481914445757866
1783002592076277500,2.929277587890625,-0.0002969461493194103,0.015663228929042816,0.03548547253012657
1783002592086329300,2.939329345703125,-0.00701983692124486,0.017236782237887383,0.06349357962608337
1783002592096381400,2.94938134765625,-0.003961196634918451,0.027103792876005173,0.08244969695806503
1783002592106432500,2.9594326171875,0.003158224280923605,0.036077819764614105,0.07850906997919083
1783002592116488400,2.969488525390625,0.006614208221435547,0.03082367032766342,0.06101423501968384
1783002592126540500,2.97954052734375,0.006862163543701172,0.03683562949299812,0.023048773407936096
1783002592136591400,2.98959130859375,0.005004874896258116,0.02490706369280815,-0.02084225043654442
1783002592146643500,2.9996435546875,-0.005586791317909956,-0.019283762201666832,-0.053759410977363586
1783002592156695300,3.0096953125,-0.012961884960532188,-0.08118361234664917,-0.049478646367788315
1783002592166746400,3.019746337890625,-0.021911177784204483,-0.10566022247076035,0.013209820725023746
1783002592176798500,3.029798583984375,-0.029694799333810806,-0.07186790555715561,0.09441971778869629
1783002592186849300,3.039849365234375,-0.03605175390839577,-0.02994205802679062,0.15999449789524078
1783002592196901400,3.0499013671875,-0.029288122430443764,-0.03144381195306778,0.17984196543693542
1783002592206953500,3.059953369140625,-0.016543569043278694,-0.025017857551574707,0.17445850372314453
1783002592217004300,3.07000439453125,-0.014584282413125038,0.008429848589003086,0.16293421387672424
1783002592227056400,3.080056396484375,-0.009691005572676659,0.02267330512404442,0.142877995967865
1783002592237108500,3.0901083984375,0.00447328295558691,0.02394815906882286,0.11598166078329086
1783002592247159600,3.10015966796875,0.009671257808804512,0.015298491343855858,0.08641986548900604
1783002592257211400,3.11021142578125,0.004820842761546373,0.004984600935131311,0.07092027366161346
1783002592267263500,3.120263427734375,-0.0023324177600443363,-0.008714502677321434,0.04874890670180321
1783002592277314300,3.130314208984375,-0.005612100474536419,-0.026164866983890533,0.026475027203559875
1783002592287366400,3.140366455078125,0.0032759476453065872,-0.035821206867694855,0.0022539356723427773
1783002592297418200,3.150418212890625,0.002311350777745247,-0.00766573753207922,-0.021622635424137115
1783002592307469300,3.16046923828125,0.006083972752094269,0.014953628182411194,-0.04655643552541733
1783002592317521400,3.170521484375,0.010803626850247383,0.044203657656908035,-0.0574578195810318
1783002592327573200,3.1805732421875,0.01628226600587368,0.05802584066987038,-0.06335821002721786
1783002592337624300,3.190624267578125,0.025471504777669907,0.029667172580957413,-0.08639401197433472
1783002592347676400,3.200676513671875,0.026825739070773125,0.05346537381410599,-0.10654060542583466
1783002592357728500,3.210728515625,0.013871323317289352,0.07669000327587128,-0.14442621171474457
1783002592367779600,3.220779541015625,-0.006607062183320522,0.06099601462483406,-0.18289384245872498
1783002592377831400,3.23083154296875,0.003999243024736643,0.026234034448862076,-0.18392795324325562
1783002592387882500,3.240882568359375,0.01963546685874462,0.037719618529081345,-0.14532676339149475
1783002592397934300,3.250934326171875,0.012876629829406738,0.04821593686938286,-0.10618147999048233
1783002592407986400,3.260986328125,0.0050176531076431274,0.04696360230445862,-0.08224190771579742
1783002592418037500,3.27103759765625,0.011285669170320034,0.0446663573384285,-0.07972415536642075
1783002592428089300,3.28108935546875,0.013453485444188118,0.058430809527635574,-0.09813670814037323
1783002592438141400,3.291141357421875,0.019632285460829735,0.06993992626667023,-0.12062869966030121
1783002592448192300,3.301192138671875,0.02391490899026394,0.07565370947122574,-0.13928329944610596
1783002592458244400,3.311244384765625,0.025217194110155106,0.05737004429101944,-0.13254496455192566
1783002592468296400,3.32129638671875,0.014121944084763527,0.03812763839960098,-0.11415612697601318
1783002592478347300,3.33134716796875,0.004961735103279352,0.0024846885353326797,-0.11436332017183304
1783002592488399600,3.341399658203125,-0.0032916711643338203,-0.05438518151640892,-0.10773494094610214
1783002592498451500,3.351451416015625,-0.005196364596486092,-0.07253888249397278,-0.08377634733915329
1783002592508502500,3.36150244140625,-0.01459998358041048,-0.06052093580365181,-0.03973910212516785
1783002592518554400,3.371554443359375,-0.019840020686388016,-0.053501375019550323,0.021145552396774292
1783002592528606500,3.3816064453125,-0.024096554145216942,-0.013131609186530113,0.08339405804872513
1783002592538657500,3.391657470703125,-0.02492479793727398,0.015543710440397263,0.11848706752061844
1783002592548709400,3.40170947265625,-0.02003789320588112,0.02312891185283661,0.11739852279424667
1783002592558761500,3.411761474609375,-0.016210930421948433,0.02794790267944336,0.09034665673971176
1783002592568812300,3.421812255859375,-0.015566736459732056,0.03152143210172653,0.05335669964551926
1783002592578864400,3.431864501953125,-0.013227948918938637,0.033466070890426636,0.021711155772209167
1783002592588916200,3.441916259765625,-0.016008546575903893,0.005968121346086264,0.0009271921589970589
1783002592598967300,3.45196728515625,-0.010433751158416271,-0.0487462542951107,-0.005147477611899376
1783002592609019400,3.462019287109375,-0.003525247797369957,-0.08162067085504532,0.014777357690036297
1783002592619070500,3.472070556640625,0.0016751070506870747,-0.06385791301727295,0.06248069927096367
1783002592629122600,3.48212255859375,0.005440286826342344,-0.028386123478412628,0.09263234585523605
1783002592639174400,3.49217431640625,0.003197372891008854,-0.007702683098614216,0.08720722049474716
1783002592649225500,3.5022255859375,0.011718165129423141,0.0020914264023303986,0.04920152947306633
1783002592659277300,3.51227734375,0.020770516246557236,0.00034226197749376297,0.003130975179374218
1783002592669329400,3.522329345703125,0.02028287574648857,-0.03218000754714012,-0.03094426356256008
1783002592679380500,3.53238037109375,0.014130706898868084,-0.053622979670763016,-0.0426589772105217
1783002592689432300,3.542432373046875,0.0012151969131082296,-0.04230073466897011,-0.034060318022966385
1783002592699484400,3.552484375,-0.004924721084535122,-0.0388021394610405,-0.01639184169471264
1783002592709535500,3.562535400390625,0.0022956160828471184,-0.056779175996780396,0.0034452639520168304
1783002592719587300,3.57258740234375,0.008182534016668797,-0.05498500540852547,0.011790013872087002
1783002592729639400,3.582639404296875,0.008763110265135765,-0.029529768973588943,0.021034453064203262
1783002592739690200,3.592690185546875,0.011025466024875641,0.006288682110607624,0.02000274509191513
1783002592749742600,3.60274267578125,0.010840917006134987,0.024998480454087257,0.0050959158688783646
1783002592759794400,3.61279443359375,0.02259690873324871,0.018893450498580933,-0.01394595205783844
1783002592769845500,3.622845458984375,0.01707642897963524,0.008937869220972061,-0.04078464210033417
1783002592779897300,3.6328974609375,-0.007143422961235046,0.0017167078331112862,-0.05223703384399414
1783002592789949400,3.642949462890625,-0.015409866347908974,-0.00210543442517519,-0.046091847121715546
1783002592800000500,3.65300048828125,-0.01718646101653576,0.007901659235358238,-0.0259450301527977
1783002592810052400,3.66305224609375,-0.01042819581925869,0.0010931240394711494,0.0040762759745121
1783002592820104400,3.6731044921875,-0.011193055659532547,-0.019443577155470848,0.04256854206323624
1783002592830155300,3.6831552734375,0.0017310413531959057,-0.054193586111068726,0.08924508094787598
1783002592840207400,3.693207275390625,0.022999046370387077,-0.11096791923046112,0.14498423039913177
1783002592850258400,3.703258544921875,0.02948731556534767,-0.14180518686771393,0.17016878724098206
1783002592860310300,3.713310302734375,0.018506836146116257,-0.15143996477127075,0.16390582919120789
1783002592870362600,3.723362548828125,0.017299344763159752,-0.15492857992649078,0.12829932570457458
1783002592880413400,3.733413330078125,0.013250540941953659,-0.13674691319465637,0.08117575943470001
1783002592890465500,3.743465576171875,0.0014237237628549337,-0.11247996985912323,0.026328928768634796
1783002592900517400,3.753517333984375,-0.0023723458871245384,-0.09297151118516922,-0.00038870004937052727
1783002592910568400,3.763568359375,0.007382545620203018,-0.0588783398270607,-0.007001200690865517
1783002592920620500,3.77362060546875,0.0017699338495731354,-0.013826176524162292,-0.013437261804938316
1783002592930672400,3.78367236328125,0.0047803702764213085,0.008304075337946415,-0.027628853917121887
1783002592940723500,3.793723388671875,0.025785787031054497,0.016713539138436317,-0.020343776792287827
1783002592950775300,3.803775390625,0.03539285808801651,0.007395309861749411,-0.004216703120619059
1783002592960827400,3.813827392578125,0.03769729286432266,-0.04068167135119438,0.0177458543330431
1783002592970878500,3.82387841796875,0.040992435067892075,-0.07376207411289215,0.043813835829496384
1783002592980930300,3.833930419921875,0.04037724435329437,-0.06377361714839935,0.0596841499209404
1783002592990982700,3.843982666015625,0.019796838983893394,-0.046844154596328735,0.057423803955316544
1783002593001033200,3.854033203125,0.009825963526964188,-0.052797384560108185,0.029400691390037537
1783002593011085600,3.86408544921875,0.007502383552491665,-0.05430172383785248,0.0034379083663225174
1783002593021137400,3.874137451171875,0.0012700536753982306,-0.04015394672751427,-0.02266160398721695
1783002593031188500,3.8841884765625,-0.005097036715596914,-0.026284147053956985,-0.05852380394935608
1783002593041240600,3.894240478515625,-0.0007507572881877422,-0.008074517361819744,-0.0681852251291275
1783002593051292400,3.90429248046875,0.00011046743020415306,0.00886906310915947,-0.06509580463171005
1783002593061343500,3.914343505859375,0.0013768004719167948,0.01993503049015999,-0.058853887021541595
1783002593071395300,3.924395263671875,0.0008769591804593801,0.01904153637588024,-0.05611219257116318
1783002593081446400,3.9344462890625,0.01090083085000515,0.009368669241666794,-0.04814241826534271
1783002593091498500,3.94449853515625,0.005021635442972183,0.011150548234581947,-0.04334133863449097
1783002593101550300,3.95455029296875,-0.005038189701735973,0.025748133659362793,-0.043453723192214966
1783002593111597600,3.96459765625,-0.009522132575511932,0.038808733224868774,-0.038681406527757645
1783002593121649400,3.9746494140625,0.0003736410290002823,0.04667331650853157,-0.029898833483457565
1783002593131701500,3.984701416015625,0.007952708750963211,0.027562502771615982,-0.0036672325804829597
1783002593141752600,3.994752685546875,0.014814609661698341,0.001926915254443884,0.020651690661907196
1783002593151804400,4.004804443359375,0.01623436063528061,-0.008155548945069313,0.026410751044750214
1783002593161856800,4.014856689453125,0.012505934573709965,-0.004853762686252594,-0.018221966922283173
1783002593171907300,4.0249072265625,0.02327682450413704,0.006936485879123211,-0.09506268054246902
1783002593181959700,4.034959716796875,0.02033855952322483,0.049652524292469025,-0.18369214236736298
1783002593192011500,4.045011474609375,0.015812238678336143,0.089731365442276,-0.2612346410751343
1783002593202062600,4.0550625,-0.0003467570059001446,0.08554647117853165,-0.30483269691467285
1783002593212114700,4.06511474609375,-0.02101474069058895,0.01727679744362831,-0.29563820362091064
1783002593222166500,4.07516650390625,-0.02570882812142372,-0.043596409261226654,-0.20920343697071075
1783002593232217600,4.085217529296875,-0.007507204543799162,-0.07177997380495071,-0.06878990679979324
1783002593242269400,4.09526953125,0.0028197350911796093,-0.07154136151075363,0.07748688012361526
1783002593252321500,4.105321533203125,0.006939128506928682,-0.05397634208202362,0.17336204648017883
1783002593262372600,4.11537255859375,0.015052448958158493,-0.027301589027047157,0.20903322100639343
1783002593272424400,4.125424560546875,0.023186275735497475,0.0057860566303133965,0.17536740005016327
1783002593282475500,4.1354755859375,0.026014819741249084,0.052744507789611816,0.10778063535690308
1783002593292527400,4.14552734375,0.017974473536014557,0.08792604506015778,0.05265728756785393
1783002593302579700,4.155579833984375,0.009602027013897896,0.09757547080516815,0.00368415005505085
1783002593312630500,4.165630615234375,0.00270069926045835,0.05818492919206619,-0.023320280015468597
1783002593322682600,4.1756826171875,0.003661567810922861,0.01129811443388462,-0.01659366674721241
1783002593332734500,4.185734375,0.008590549230575562,-0.018870314583182335,0.014988167211413383
1783002593342785500,4.19578564453125,0.012032418511807919,-0.05006471648812294,0.04124533757567406
1783002593352837600,4.205837646484375,0.011865707114338875,-0.07115332037210464,0.06479620933532715
1783002593362889500,4.215889404296875,0.012677972204983234,-0.053831592202186584,0.08046704530715942
1783002593372940500,4.2259404296875,0.016871387138962746,-0.02050626650452614,0.08832491189241409
1783002593382992400,4.235992431640625,0.016976315528154373,0.009109681472182274,0.08671662956476212
1783002593393044500,4.24604443359375,0.012649722397327423,0.02423209324479103,0.06982649117708206
1783002593403095600,4.256095458984375,0.009823309257626534,0.034434132277965546,0.0446028895676136
1783002593413147400,4.2661474609375,0.005048004910349846,0.032261285930871964,0.013345315121114254
1783002593423199700,4.27619970703125,0.00444186944514513,0.04084625095129013,-0.017125509679317474
1783002593433250300,4.286250244140625,0.00908270850777626,0.038584161549806595,-0.023732304573059082
1783002593443302700,4.296302734375,0.0072669656947255135,0.034434691071510315,-0.024413805454969406
1783002593453354500,4.3063544921875,0.007838472723960876,0.025959473103284836,-0.028211766853928566
1783002593463405600,4.316405517578125,0.01014290563762188,0.013249804265797138,-0.040240999311208725
1783002593473457700,4.326457763671875,0.010240631178021431,0.021502479910850525,-0.05532403662800789
1783002593483509500,4.336509521484375,0.007154826074838638,0.042797915637493134,-0.05273411050438881
1783002593493560600,4.346560546875,-0.0016775433905422688,0.05699508637189865,-0.04962786287069321
1783002593503612400,4.3566123046875,-0.0020810123533010483,0.07181903719902039,-0.038126200437545776
1783002593513663500,4.36666357421875,-0.007697360590100288,0.08324645459651947,-0.03403858840465546
1783002593523715600,4.376715576171875,-0.0031169895082712173,0.08098063617944717,-0.04362570494413376
1783002593533767400,4.386767333984375,0.004275692626833916,0.07399026304483414,-0.06517025828361511
1783002593543818500,4.396818603515625,0.002891115378588438,0.06315679103136063,-0.08757755905389786
1783002593553870300,4.406870361328125,0.000944855622947216,0.12531912326812744,-0.09811218827962875
1783002593563922700,4.416922607421875,-0.014505738392472267,0.17074573040008545,-0.11064156144857407
1783002593573973800,4.426973876953125,-0.023967139422893524,0.1697731763124466,-0.1378047913312912
1783002593584025600,4.437025634765625,-0.03139736130833626,0.12143680453300476,-0.17361313104629517
1783002593594077700,4.44707763671875,-0.016463423147797585,0.06840994209051132,-0.16388161480426788
1783002593604128500,4.45712841796875,0.004710305482149124,0.022829141467809677,-0.10700314491987228
1783002593614180600,4.4671806640625,0.007250717841088772,-0.01641090027987957,-0.039697300642728806
1783002593624232400,4.477232421875,0.015533947385847569,-0.042733851820230484,0.002219787798821926
1783002593634283500,4.487283447265625,0.014094769954681396,-0.07154471427202225,-0.010622387751936913
1783002593644335600,4.497335693359375,0.01459810696542263,-0.06100232154130936,-0.0472957119345665
1783002593654387500,4.507387451171875,-0.002430420834571123,-0.017274925485253334,-0.10133107006549835
1783002593664438500,4.5174384765625,-0.027598891407251358,0.007799535524100065,-0.14942003786563873
1783002593674490400,4.527490478515625,-0.03732181340456009,0.005146604962646961,-0.1539158970117569
1783002593684542700,4.537542724609375,-0.04227795824408531,-0.011231569573283195,-0.10344766080379486
1783002593694593500,4.547593505859375,-0.03644030913710594,-0.0500447042286396,-0.03247541934251785
1783002593704645600,4.557645751953125,-0.028375189751386642,-0.11245188862085342,0.03834575414657593
1783002593714697500,4.567697509765625,-0.023081619292497635,-0.14865873754024506,0.09384752064943314
1783002593724748500,4.57774853515625,-0.01408732496201992,-0.1452842503786087,0.13519923388957977
1783002593734800600,4.587800537109375,-0.017004849389195442,-0.10648853331804276,0.15345239639282227
1783002593744852500,4.5978525390625,-0.010539228096604347,-0.06651794910430908,0.14416010677814484
1783002593754903600,4.607903564453125,-0.014934784732758999,-0.05985359847545624,0.10615431517362595
1783002593764955600,4.61795556640625,-0.019313819706439972,-0.05693690478801727,0.08219758421182632
1783002593775006500,4.62800634765625,-0.029822349548339844,-0.06360699236392975,0.05273342505097389
1783002593785058600,4.63805859375,-0.028252150863409042,-0.07976625114679337,0.03539997339248657
1783002593795110400,4.6481103515625,-0.02496502548456192,-0.08673340827226639,0.026396464556455612
1783002593805161500,4.658161376953125,-0.027534708380699158,-0.07583708316087723,0.02493998035788536
1783002593815213600,4.668213623046875,-0.03258858248591423,-0.04598568007349968,0.023883987218141556
1783002593825265700,4.678265625,-0.03148816525936127,-0.016398226842284203,0.010171367786824703
1783002593835316700,4.688316650390625,-0.03159335255622864,-0.0071698566898703575,-0.004967492073774338
1783002593845368600,4.69836865234375,-0.04677363485097885,-0.03333967551589012,-0.02665095031261444
1783002593855420700,4.708420654296875,-0.06272277235984802,-0.05367513746023178,-0.02740514650940895
1783002593865471500,4.718471435546875,-0.059545088559389114,-0.01576797105371952,0.004813242703676224
1783002593875523600,4.728523681640625,-0.06717078387737274,0.05626090615987778,0.03098032996058464
1783002593885575400,4.738575439453125,-0.06772205978631973,0.05725559592247009,0.015944920480251312
1783002593895626500,4.74862646484375,-0.04761439934372902,0.027505971491336823,-0.002994561567902565
1783002593905678600,4.7586787109375,-0.023115715011954308,0.0029148757457733154,-0.011281520128250122
1783002593915730400,4.76873046875,-0.0136423259973526,-0.015261225402355194,0.0007504262030124664
1783002593925781500,4.778781494140625,-0.015078036114573479,-0.025304805487394333,0.02832746133208275
1783002593935833300,4.788833251953125,-0.021517278626561165,-0.04029334336519241,0.04103603959083557
1783002593945885700,4.7988857421875,-0.018044782802462578,-0.06598725914955139,0.04578712210059166
1783002593955936500,4.8089365234375,-0.017976345494389534,-0.07039924710988998,0.04045737534761429
1783002593965988600,4.818988525390625,-0.033329203724861145,-0.058535393327474594,0.02591092325747013
1783002593976040700,4.829040771484375,-0.03638359159231186,-0.0398290678858757,0.0194571390748024
1783002593986091500,4.839091552734375,-0.033577680587768555,-0.010014714673161507,0.023106202483177185
1783002593996143600,4.8491435546875,-0.028762955218553543,0.0011387867853045464,0.03290943056344986
1783002594006194700,4.859194580078125,-0.012838583439588547,-0.010493367910385132,0.05027616769075394
1783002594016246500,4.86924658203125,0.00028387969359755516,0.00338315824046731,0.08011949062347412
1783002594026298600,4.879298583984375,0.0006410095375031233,-0.013348683714866638,0.11435922235250473
1783002594036349400,4.889349365234375,-0.008729604072868824,-0.04049261659383774,0.16326689720153809
1783002594046401500,4.899401611328125,-0.01656356081366539,-0.0705099031329155,0.21033693850040436
1783002594056453400,4.909453369140625,-0.007165253162384033,-0.1051621288061142,0.22735847532749176
1783002594066504400,4.91950439453125,0.0017115951050072908,-0.08205921202898026,0.21085458993911743
1783002594076556500,4.929556640625,-0.0016229529865086079,-0.017504572868347168,0.18690112233161926
1783002594086608600,4.939608642578125,-0.014892419800162315,0.021762937307357788,0.1408313661813736
1783002594096659500,4.949659423828125,-0.020230447873473167,0.013532282784581184,0.10207206755876541
1783002594106711600,4.959711669921875,-0.016660213470458984,0.02241658791899681,0.10251521319150925
1783002594116768000,4.96976806640625,-0.018304452300071716,0.020496364682912827,0.1399196982383728
1783002594126818800,4.97981884765625,-0.01730150543153286,-0.014470141381025314,0.17561830580234528
1783002594136871000,4.989870849609375,-0.014621561393141747,-0.06014230474829674,0.1953735202550888
1783002594146922800,4.9999228515625,-0.016640769317746162,-0.08115703612565994,0.1845475137233734
1783002594156973800,5.009973876953125,-0.029367763549089432,-0.07308629900217056,0.14521260559558868
1783002594167026000,5.02002587890625,-0.04212110862135887,-0.04581420123577118,0.07415039837360382
1783002594177077800,5.030077880859375,-0.03526826202869415,-0.018603799864649773,-0.004364774562418461
1783002594187128800,5.04012890625,-0.02332957647740841,-0.01491958275437355,-0.07215820252895355
1783002594197180700,5.0501806640625,-0.009893129579722881,-0.025608446449041367,-0.11152637749910355
1783002594207232800,5.060232666015625,0.0029992335475981236,-0.04578348994255066,-0.11012209206819534
1783002594217283800,5.070283935546875,0.001656969077885151,-0.017972588539123535,-0.0652565211057663
1783002594227335700,5.080335693359375,0.006674098316580057,0.029077213257551193,0.021415257826447487
1783002594237386800,5.09038671875,0.005874665919691324,0.045915085822343826,0.09991887211799622
1783002594247438800,5.10043896484375,0.007146857678890228,0.024480100721120834,0.13477778434753418
1783002594257491000,5.110490966796875,0.01469077356159687,0.0008930759504437447,0.1368853598833084
1783002594267541800,5.120541748046875,0.014019923284649849,-0.00873185507953167,0.10667312145233154
1783002594277593900,5.13059375,0.019574759528040886,-0.026859447360038757,0.05424170196056366
1783002594287645700,5.140645751953125,0.01291499100625515,-0.050859589129686356,0.014108662493526936
1783002594297696800,5.15069677734375,0.013267314061522484,-0.05272701010107994,-0.012027427554130554
1783002594307748900,5.160748779296875,0.013213250786066055,-0.0496704988181591,-0.042673222720623016
1783002594317800700,5.17080078125,0.026768745854496956,-0.04818086698651314,-0.061532191932201385
1783002594327851800,5.180851806640625,0.03125910088419914,-0.053039006888866425,-0.05289635807275772
1783002594337903600,5.190903564453125,0.027976227924227715,-0.022597800940275192,-0.03499531000852585
1783002594347955700,5.200955810546875,0.02434021420776844,-0.01223783753812313,-0.021503737196326256
1783002594358006800,5.2110068359375,0.017723064869642258,0.03898276761174202,-0.0021609836257994175
1783002594368058600,5.22105859375,0.004952141549438238,0.1235506534576416,0.007055417634546757
1783002594378111000,5.231111083984375,-0.058079831302165985,0.24215300381183624,0.29572588205337524
1783002594388161800,5.241161865234375,-0.12561866641044617,0.09610870480537415,0.38099417090415955
1783002594398214000,5.2512138671875,-0.0730595737695694,0.025302022695541382,0.22296173870563507
1783002594408265700,5.261265625,-0.006093319971114397,0.03724496811628342,-0.029206853359937668
1783002594418316800,5.27131689453125,0.04904342070221901,-0.032852862030267715,-0.23429477214813232
1783002594428369000,5.281368896484375,0.08459821343421936,-0.09183016419410706,-0.3673396408557892
1783002594438420700,5.291420654296875,0.10289974510669708,-0.041810814291238785,-0.42430099844932556
1783002594448471800,5.301471923828125,0.11208658665418625,-0.015398913994431496,-0.4752446115016937
1783002594458523600,5.311523681640625,0.09454379975795746,-0.03811106085777283,-0.4749904274940491
1783002594468574700,5.32157470703125,0.0787443295121193,-0.03890042379498482,-0.3415876030921936
1783002594478626800,5.331626708984375,0.07865777611732483,-0.009753317572176456,-0.15319819748401642
