time,seconds_elapsed,z,y,x
1783002589222869800,0.075869873046875,-0.02159823663532734,0.11903370916843414,-0.023808127269148827
1783002589232920600,0.085920654296875,-0.03623337298631668,0.11791758239269257,-0.09393128752708435
1783002589242972700,0.09597265625,-0.04236450046300888,0.1009516492486,-0.14967018365859985
1783002589253023700,0.106023681640625,-0.04267289489507675,0.1472669541835785,-0.13638900220394135
1783002589263075600,0.11607568359375,-0.04015381261706352,0.20470388233661652,-0.09569296985864639
1783002589273127700,0.126127685546875,-0.02816426008939743,0.19665206968784332,-0.09199810028076172
1783002589283178500,0.136178466796875,0.015557920560240746,0.0958290547132492,-0.11567972600460052
1783002589293230600,0.146230712890625,0.05162005126476288,0.020195016637444496,-0.07624736428260803
1783002589303282400,0.156282470703125,0.046240199357271194,-0.017902834340929985,0.0021310613956302404
1783002589313333500,0.16633349609375,0.013762150891125202,-0.05956079810857773,0.07836031913757324
1783002589323385600,0.176385498046875,-0.003424292430281639,-0.05161392688751221,0.1281830072402954
1783002589333437400,0.1864375,0.007276821415871382,-0.013951501809060574,0.1323511153459549
1783002589343488500,0.196488525390625,0.022336997091770172,0.014706508256494999,0.10007626563310623
1783002589353540400,0.206540283203125,0.036807816475629807,-0.011299526318907738,0.05963190644979477
1783002589363592700,0.2165927734375,0.04445162042975426,-0.0362355038523674,0.07033168524503708
1783002589373643500,0.2266435546875,0.022160429507493973,0.039975378662347794,0.14004339277744293
1783002589383695600,0.236695556640625,-0.0024322650860995054,0.11471699178218842,0.2131117433309555
1783002589393747500,0.24674755859375,-0.0018074874533340335,0.10622017830610275,0.24177826941013336
1783002589403798500,0.256798583984375,0.01996944658458233,0.04066833481192589,0.2238384187221527
1783002589413850600,0.2668505859375,0.02334766648709774,0.002138784620910883,0.18318979442119598
1783002589423901400,0.2769013671875,0.011653194203972816,-0.009810286574065685,0.1069144681096077
1783002589433953500,0.28695361328125,0.005578523501753807,-0.023288544267416,0.030589601024985313
1783002589444005400,0.29700537109375,0.005422195885330439,-0.03826669603586197,-0.03966432064771652
1783002589454056400,0.307056396484375,0.0013957626651972532,-0.06111608445644379,-0.06850342452526093
1783002589464108500,0.317108642578125,-0.007208378054201603,-0.08380036056041718,-0.06403277814388275
1783002589474160400,0.327160400390625,-0.013484117574989796,-0.0711548700928688,-0.041607897728681564
1783002589484211500,0.33721142578125,-0.025184182450175285,-0.027274496853351593,-0.018459169194102287
1783002589494263600,0.347263671875,-0.034621093422174454,0.0065412563271820545,-0.0018066884949803352
1783002589504315600,0.357315673828125,-0.030365096405148506,0.0334668792784214,0.01679735630750656
1783002589514366700,0.36736669921875,-0.02593492716550827,0.07254503667354584,0.04380260780453682
1783002589524418600,0.37741845703125,-0.022283734753727913,0.09303539991378784,0.0511406809091568
1783002589534470700,0.387470703125,-0.012485431507229805,0.049382198601961136,0.054059505462646484
1783002589544521500,0.397521484375,-0.01552543044090271,-0.022642994299530983,0.05622439086437225
1783002589554573600,0.407573486328125,-0.030768033117055893,-0.06077200546860695,0.07822609692811966
1783002589564625400,0.41762548828125,-0.044911015778779984,-0.05728273093700409,0.11026498675346375
1783002589574676500,0.427676513671875,-0.04279140755534172,-0.02887505665421486,0.1326746940612793
1783002589584728600,0.437728515625,-0.020451745018363,0.05729711055755615,0.10970012843608856
1783002589594779400,0.447779296875,-0.008264853619039059,0.1319657564163208,0.05453115329146385
1783002589604831500,0.45783154296875,-0.008959139697253704,0.16662093997001648,-0.003781156148761511
1783002589614883300,0.46788330078125,-0.024411600083112717,0.16756369173526764,-0.06655345857143402
1783002589624934400,0.477934326171875,-0.04441806301474571,0.13325898349285126,-0.08628135919570923
1783002589634986800,0.48798681640625,-0.05447496101260185,0.15404176712036133,-0.07022090256214142
1783002589645038600,0.49803857421875,-0.058044660836458206,0.15022891759872437,-0.05632958561182022
1783002589655089700,0.508089599609375,-0.042460642755031586,0.06373769789934158,-0.04478398337960243
1783002589665141500,0.5181416015625,-0.015140070579946041,-0.01575632579624653,-0.012488894164562225
1783002589675193600,0.528193603515625,-0.008889098651707172,-0.08009723573923111,0.011518704704940319
1783002589685244700,0.53824462890625,-0.004562527406960726,-0.1173173040151596,0.03110172599554062
1783002589695296500,0.548296630859375,-0.005726861767470837,-0.07673472166061401,0.056477390229701996
1783002589705348600,0.5583486328125,-0.00951068103313446,-0.00968458503484726,0.07153170555830002
1783002589715399400,0.5683994140625,0.002710032742470503,0.0331110805273056,0.08084531128406525
1783002589725451500,0.578451416015625,0.016335031017661095,0.017713217064738274,0.09581680595874786
1783002589735503400,0.58850341796875,0.01962217129766941,-0.012094746343791485,0.10802047699689865
1783002589745554400,0.598554443359375,0.012715795077383518,-0.0023635553661733866,0.09419360756874084
1783002589755606500,0.6086064453125,-0.0014138722326606512,0.0178756695240736,0.036913011223077774
1783002589765657300,0.6186572265625,-0.00007669904152862728,0.00222001108340919,-0.026817498728632927
1783002589775709700,0.628709716796875,0.01181937474757433,-0.017186976969242096,-0.06603547185659409
1783002589785761500,0.638761474609375,0.021163342520594597,-0.01708684116601944,-0.08272124826908112
1783002589795812600,0.6488125,0.024106401950120926,-0.036008067429065704,-0.08292044699192047
1783002589805864400,0.658864501953125,0.03316434472799301,-0.08151509612798691,-0.06927787512540817
1783002589815916500,0.66891650390625,0.03978230059146881,-0.09801444411277771,-0.028328843414783478
1783002589825967600,0.678967529296875,0.03490472212433815,-0.07634377479553223,0.03340322896838188
1783002589836019500,0.68901953125,0.02562546916306019,-0.034879155457019806,0.08601051568984985
1783002589846071600,0.699071533203125,0.014515026472508907,-0.03461869806051254,0.11084768921136856
1783002589856122400,0.709122314453125,0.011987154372036457,-0.01985466480255127,0.11941694468259811
1783002589866174500,0.719174560546875,0.012687832117080688,0.005876265000551939,0.11512765288352966
1783002589876226300,0.729226318359375,0.02581934630870819,0.0049737198278307915,0.09470546990633011
1783002589886277400,0.73927734375,0.03341121971607208,0.002573412610217929,0.060867078602313995
1783002589896329700,0.749329833984375,0.03548795357346535,0.00896606408059597,0.023967383429408073
1783002589906381600,0.759381591796875,0.025455292314291,0.01685594581067562,-0.00851385947316885
1783002589916432600,0.7694326171875,0.022596122696995735,0.016168316826224327,-0.027346668764948845
1783002589926484500,0.779484375,0.013119264505803585,0.03229641914367676,-0.02684333175420761
1783002589936535600,0.78953564453125,-0.0038274950347840786,0.05747075006365776,-0.04764768108725548
1783002589946587600,0.799587646484375,-0.023677632212638855,0.05577964335680008,-0.11976049095392227
1783002589956639500,0.809639404296875,-0.006720487028360367,0.0730033665895462,-0.20342981815338135
1783002589966690600,0.819690673828125,0.015118765644729137,0.11093104630708694,-0.26392459869384766
1783002589976742400,0.829742431640625,-0.006957774516195059,0.09909462183713913,-0.28351879119873047
1783002589986794500,0.83979443359375,-0.033676471561193466,0.10818985104560852,-0.2454177439212799
1783002589996845600,0.849845458984375,-0.051062118262052536,0.10990279912948608,-0.15410514175891876
1783002590006897400,0.8598974609375,-0.05678551644086838,0.09781604260206223,-0.054057374596595764
1783002590016949800,0.86994970703125,-0.05000484362244606,0.038432877510786057,-0.011493404395878315
1783002590027000300,0.880000244140625,-0.03377607464790344,-0.02966175600886345,-0.00812130980193615
1783002590037052700,0.890052734375,-0.017494305968284607,-0.06584958732128143,-0.02744627185165882
1783002590047104500,0.9001044921875,-0.005792907904833555,-0.043053459376096725,-0.025555694475769997
1783002590057155600,0.910155517578125,-0.016506005078554153,-0.0044469465501606464,-0.026823092252016068
1783002590067207700,0.920207763671875,-0.015091068111360073,0.015417572110891342,-0.022646989673376083
1783002590077258500,0.930258544921875,-0.010103766806423664,0.015200524590909481,-0.005051217507570982
1783002590087310600,0.940310546875,-0.004589159041643143,-0.03340136632323265,0.009859289042651653
1783002590097362400,0.950362548828125,0.0028881982434540987,-0.025970613583922386,0.03928162530064583
1783002590107416800,0.960416748046875,-0.0009928264189511538,0.013467605225741863,0.0658184289932251
1783002590117469000,0.970468994140625,-0.009831058792769909,-0.020610470324754715,0.05757088586688042
1783002590127520800,0.980520751953125,0.002666356973350048,-0.04388090595602989,0.03479553014039993
1783002590137571800,0.99057177734375,0.007923436351120472,-0.010316819883883,0.010700581595301628
1783002590147623700,1.000623779296875,-0.008585765026509762,-0.008679774589836597,-0.018934009596705437
1783002590157675800,1.01067578125,-0.015358982607722282,-0.0345262847840786,-0.038829952478408813
1783002590167726800,1.020726806640625,-0.01543328445404768,-0.025535985827445984,-0.02665078453719616
1783002590177778700,1.03077880859375,-0.00965742114931345,-0.01221671886742115,0.0043745082803070545
1783002590187830800,1.040830810546875,-0.014561365358531475,-0.003728425595909357,0.02293194644153118
1783002590197881600,1.050881591796875,-0.011285144835710526,-0.012515258975327015,-0.0014703312190249562
1783002590207934000,1.060933837890625,0.0026847326662391424,-0.010484598577022552,-0.04951908439397812
1783002590217985800,1.07098583984375,0.007791876792907715,0.005417668726295233,-0.09287241846323013
1783002590228036900,1.081036865234375,0.006374542135745287,0.04362257942557335,-0.08641718327999115
1783002590238089000,1.0910888671875,0.002436792477965355,0.023931965231895447,-0.05884866788983345
1783002590248139800,1.101139892578125,0.004140949342399836,-0.014870292507112026,-0.006846987176686525
1783002590258192000,1.11119189453125,0.006382531952112913,-0.06119145080447197,0.046068690717220306
1783002590268243700,1.12124365234375,0.011951734311878681,-0.07977046072483063,0.07520420849323273
1783002590278294800,1.131294677734375,0.018922824412584305,-0.07411976903676987,0.06388230621814728
1783002590288347000,1.141346923828125,0.026419622823596,-0.06547887623310089,0.03148895129561424
1783002590298398700,1.151398681640625,0.015844210982322693,-0.053518086671829224,-0.009975935332477093
1783002590308449800,1.16144970703125,0.007815845310688019,-0.011834555305540562,-0.03591006249189377
1783002590318501600,1.171501708984375,-0.009563677944242954,0.050044525414705276,-0.019028019160032272
1783002590328553700,1.1815537109375,-0.029679864645004272,0.07692460715770721,0.02684519626200199
1783002590338604800,1.191604736328125,-0.024835309013724327,0.0662250891327858,0.08936823159456253
1783002590348657000,1.201656982421875,-0.012518721632659435,0.03476117551326752,0.12869219481945038
1783002590358708700,1.211708740234375,-0.013919011689722538,-0.005271993577480316,0.13985590636730194
1783002590368759800,1.221759765625,-0.024477113038301468,0.0008146609761752188,0.11355159431695938
1783002590378812000,1.23181201171875,-0.0246635340154171,0.030063891783356667,0.08085170388221741
1783002590388863000,1.241863037109375,-0.023037409409880638,0.022130336612462997,0.04715739190578461
1783002590398914800,1.251914794921875,-0.012716327793896198,0.004625111818313599,0.014240188524127007
1783002590408966700,1.261966552734375,-0.009612679481506348,-0.0038426751270890236,-0.0005275722360238433
1783002590419017700,1.272017822265625,-0.0063798688352108,0.0033995250705629587,0.009003348648548126
1783002590429069800,1.28206982421875,0.002944657113403082,0.033853571861982346,0.048181112855672836
1783002590439121700,1.29212158203125,0.01793159544467926,0.06596703082323074,0.10751660913228989
1783002590449172700,1.3021728515625,0.023380955681204796,0.07567265629768372,0.14365330338478088
1783002590459224600,1.312224609375,0.03037947788834572,0.052014999091625214,0.1500864326953888
1783002590469277000,1.32227685546875,0.039798811078071594,0.043408725410699844,0.13599830865859985
1783002590479327700,1.33232763671875,0.05285416170954704,0.04285958409309387,0.09602879732847214
1783002590489379800,1.3423798828125,0.06220238655805588,-0.0030887341126799583,0.03844725713133812
1783002590499432000,1.352431884765625,0.0614796057343483,-0.05083468556404114,0.007376956287771463
1783002590509482800,1.362482666015625,0.05962817743420601,0.003406981937587261,0.024831846356391907
1783002590519534800,1.372534912109375,0.06852845847606659,0.0718664675951004,0.052433647215366364
1783002590529586000,1.3825859375,0.06433185189962387,0.09262341260910034,0.06467460095882416
1783002590539637800,1.3926376953125,0.05775890499353409,0.10378845036029816,0.053341250866651535
1783002590549689900,1.40268994140625,0.052626993507146835,0.10256898403167725,0.02022457867860794
1783002590559740700,1.41274072265625,0.0385146364569664,0.07448914647102356,-0.04205717146396637
1783002590569792800,1.422792724609375,0.016952352598309517,0.0032740901224315166,-0.09857477992773056
1783002590579844600,1.4328447265625,-0.0011954930378124118,-0.03912343457341194,-0.10618209838867188
1783002590589895700,1.442895751953125,-0.012684369459748268,-0.021147895604372025,-0.05910379812121391
1783002590599947800,1.45294775390625,-0.02129490301012993,-0.0016708672046661377,-0.0024442493449896574
1783002590610000000,1.462999755859375,-0.014613830484449863,-0.006608900614082813,0.04373230040073395
1783002590620051000,1.473051025390625,-0.003602457931265235,-0.014990401454269886,0.07095833122730255
1783002590630102800,1.483102783203125,0.010076070204377174,0.00615296745672822,0.0830536037683487
1783002590640155000,1.49315478515625,0.01955346204340458,0.03428260609507561,0.07478982210159302
1783002590650206000,1.5032060546875,0.009920541197061539,0.01804158464074135,0.06722591072320938
1783002590660257800,1.5132578125,0.006197175942361355,-0.010698184370994568,0.08131802827119827
1783002590670310000,1.523309814453125,-0.00811811350286007,-0.012748552486300468,0.10386940836906433
1783002590680360700,1.533360595703125,-0.021388646215200424,-0.013133911415934563,0.12394777685403824
1783002590690412800,1.543412841796875,-0.019754528999328613,-0.03140212967991829,0.12637285888195038
1783002590700463900,1.5534638671875,-0.011918976902961731,-0.029869748279452324,0.11325278878211975
1783002590710515700,1.563515625,-0.012924587354063988,0.003971838392317295,0.09248945116996765
1783002590720567800,1.57356787109375,-0.019827233627438545,0.029460687190294266,0.06775534152984619
1783002590730618600,1.58361865234375,-0.01895531453192234,0.014932077378034592,0.048288434743881226
1783002590740670700,1.593670654296875,-0.014372813515365124,-0.020795559510588646,0.04276956617832184
1783002590750722800,1.603722900390625,-0.014008493162691593,-0.018853316083550453,0.05616020783782005
1783002590760774000,1.61377392578125,-0.021794777363538742,0.0012777847005054355,0.061958976089954376
1783002590770826000,1.623825927734375,-0.03068680688738823,-0.004786765668541193,0.03476676717400551
1783002590780877800,1.6338779296875,-0.02298467792570591,-0.021078120917081833,0.0029699571896344423
1783002590790929000,1.643928955078125,-0.0171480942517519,-0.027663052082061768,0.0012716593919321895
1783002590800980700,1.653980712890625,-0.01612863689661026,-0.0485379733145237,0.01920059323310852
1783002590811032800,1.66403271484375,-0.019752399995923042,-0.04218340665102005,0.05661507695913315
1783002590821084000,1.674083984375,-0.023489080369472504,-0.0128761176019907,0.10482388734817505
1783002590831135700,1.6841357421875,-0.02700764872133732,-0.007918110117316246,0.14588743448257446
1783002590841187800,1.694187744140625,-0.029941920191049576,0.010900052264332771,0.17297737300395966
1783002590851238700,1.70423876953125,-0.028615932911634445,-0.010794058442115784,0.1541576087474823
1783002590861290800,1.714290771484375,-0.024570856243371964,-0.04246330261230469,0.09644877165555954
1783002590871341800,1.724341796875,-0.019534286111593246,-0.056357283145189285,0.03015630505979061
1783002590881393700,1.7343935546875,-0.02087918296456337,-0.06148306652903557,-0.02130662091076374
1783002590891445800,1.74444580078125,-0.013215670362114906,-0.05920233577489853,-0.03356435149908066
1783002590901496800,1.754496826171875,-0.0057106162421405315,-0.06650499254465103,-0.012618057429790497
1783002590911549000,1.764548828125,-0.002246642718091607,-0.0345582440495491,0.03154380992054939
1783002590921600800,1.774600830078125,0.00023276027059182525,0.018366755917668343,0.0512637197971344
1783002590931651800,1.78465185546875,0.00729493098333478,0.05944308638572693,0.042441997677087784
1783002590941703700,1.79470361328125,0.015111841261386871,0.0645771250128746,0.016393620520830154
1783002590951755800,1.804755859375,0.012508867308497429,0.03242664784193039,-0.0019017633749172091
1783002590961806800,1.814806884765625,-0.0065314024686813354,0.021131383255124092,-0.0036101811565458775
1783002590971858700,1.824858642578125,-0.012060657143592834,0.010384730063378811,0.0021909826900810003
1783002590981910800,1.834910888671875,-0.0009592706337571144,-0.029750438407063484,0.00430127140134573
1783002590991961600,1.844961669921875,0.006082393694669008,-0.08051268756389618,0.016654344275593758
1783002591002013700,1.855013671875,0.011018828488886356,-0.09694625437259674,0.039752472192049026
1783002591012064800,1.865064697265625,-0.0009960222523659468,-0.054599594324827194,0.03917589783668518
1783002591022116900,1.875116943359375,-0.005289304070174694,0.011807923205196857,-0.00971734244376421
1783002591032169000,1.8851689453125,0.009779660031199455,0.05597645044326782,-0.07340311259031296
1783002591042219800,1.8952197265625,0.01619148626923561,0.07893183082342148,-0.10362599045038223
1783002591052271900,1.90527197265625,0.003998736385256052,0.07669557631015778,-0.0862661749124527
1783002591062323700,1.91532373046875,-0.012112589552998543,0.04460129141807556,-0.04147207736968994
1783002591072374800,1.925374755859375,-0.017421601340174675,0.010053965263068676,0.02123578079044819
1783002591082427000,1.935427001953125,-0.010644654743373394,-0.036204077303409576,0.07279723882675171
1783002591092478700,1.945478759765625,-0.014129401184618473,-0.037944450974464417,0.09757369756698608
1783002591102529800,1.95552978515625,-0.015280152671039104,0.006836600601673126,0.07849667221307755
1783002591112577500,1.96557763671875,-0.01477868016809225,0.026942668482661247,0.01128301490098238
1783002591122629600,1.975629638671875,0.002769687445834279,0.020305272191762924,-0.05943403020501137
1783002591132680700,1.9856806640625,0.014461230486631393,0.04797657951712608,-0.08939246088266373
1783002591142732500,1.995732666015625,0.008745554834604263,0.04737577214837074,-0.07994010299444199
1783002591152784600,2.00578466796875,0.0009108011145144701,0.02130688726902008,-0.03821662813425064
1783002591162835700,2.015835693359375,0.004246144089847803,0.02821565978229046,0.017522800713777542
1783002591172887600,2.025887451171875,0.007089334540069103,-0.005357481073588133,0.05055345594882965
1783002591182938600,2.035938720703125,0.012092615477740765,-0.06078239157795906,0.049979012459516525
1783002591192990500,2.045990478515625,0.049857571721076965,-0.11370765417814255,0.0662277564406395
1783002591203042600,2.05604248046875,0.09748021513223648,-0.13722017407417297,0.10411681234836578
1783002591213093600,2.06609375,0.13515383005142212,-0.11534044146537781,0.12368226051330566
1783002591223145500,2.0761455078125,0.16188956797122955,-0.12957876920700073,0.08887580782175064
1783002591233197600,2.086197509765625,0.18265023827552795,-0.1822664737701416,0.033787526190280914
1783002591243248400,2.096248291015625,0.17741526663303375,-0.18890920281410217,-0.02604704722762108
1783002591253300500,2.106300537109375,0.14524933695793152,-0.15545083582401276,-0.08188048750162125
1783002591263352600,2.1163525390625,0.11888457834720612,-0.11367782950401306,-0.13439269363880157
1783002591273403600,2.126403564453125,0.09611481428146362,-0.08501369506120682,-0.16870619356632233
1783002591283455500,2.13645556640625,0.076266810297966,-0.02149197645485401,-0.18324066698551178
1783002591293507600,2.146507568359375,0.05903668701648712,0.05841084569692612,-0.19389969110488892
1783002591303558700,2.15655859375,0.0452396497130394,0.10425343364477158,-0.22497399151325226
1783002591313610500,2.166610595703125,0.02912326343357563,0.11240456998348236,-0.2596515417098999
1783002591323662600,2.17666259765625,0.018183531239628792,0.11018749326467514,-0.28289854526519775
1783002591333713400,2.18671337890625,0.010487262159585953,0.1118229404091835,-0.26013171672821045
1783002591343765500,2.196765625,-0.0036362800747156143,0.08503100275993347,-0.17179332673549652
1783002591353816600,2.206816650390625,-0.007123423274606466,0.06190198287367821,-0.037764955312013626
1783002591363868400,2.216868408203125,-0.00512924836948514,0.03976898267865181,0.08437640219926834
1783002591373920500,2.22692041015625,-0.004976915195584297,0.010090717114508152,0.1449555903673172
1783002591383971300,2.236971435546875,-0.0009496832499280572,0.04333096370100975,0.15038897097110748
1783002591394023700,2.247023681640625,-0.00039281626231968403,0.08111642301082611,0.12476883083581924
1783002591404075500,2.257075439453125,0.00006657902849838138,0.07890014350414276,0.07964635640382767
1783002591414126600,2.267126708984375,0.005440838169306517,0.0872315764427185,0.034987013787031174
1783002591424178700,2.2771787109375,-0.0012237224727869034,0.09473183751106262,-0.0013720606220886111
1783002591434230500,2.28723046875,-0.009905361570417881,0.06655159592628479,-0.03538595512509346
1783002591444281600,2.297281494140625,-0.016748620197176933,0.024168185889720917,-0.051655735820531845
1783002591454333400,2.30733349609375,-0.022719694301486015,0.009726130403578281,-0.02991608716547489
1783002591464385500,2.317385498046875,-0.02317376248538494,-0.00782676413655281,-0.015490543097257614
1783002591474436600,2.3274365234375,-0.02052791230380535,-0.028915004804730415,0.00242134602740407
1783002591484488400,2.337488525390625,-0.012862801551818848,-0.05607019364833832,0.01955452561378479
1783002591494540500,2.34754052734375,-0.009065932594239712,-0.057740259915590286,0.03476729989051819
1783002591504591400,2.35759130859375,-0.01233656145632267,-0.021285314112901688,0.04628067836165428
1783002591514643500,2.3676435546875,-0.02110981196165085,0.012402074411511421,0.04430461302399635
1783002591524694500,2.377694580078125,-0.03026283159852028,0.04647109657526016,0.028970131650567055
1783002591534746600,2.38774658203125,-0.03465331718325615,0.053712230175733566,-0.003058640519157052
1783002591544798700,2.397798828125,-0.036022983491420746,0.03269056975841522,-0.034872494637966156
1783002591554849500,2.407849609375,-0.04466840252280235,-0.012435364536941051,-0.05497989431023598
1783002591564901600,2.417901611328125,-0.05341475456953049,-0.02544570527970791,-0.04882426559925079
1783002591574953500,2.427953369140625,-0.06022392585873604,-0.032453812658786774,-0.02883191406726837
1783002591585004500,2.438004638671875,-0.0545886754989624,-0.023201193660497665,0.0029704899061471224
1783002591595056600,2.448056640625,-0.04075675085186958,-0.007388940546661615,0.03563149645924568
1783002591605108500,2.4581083984375,-0.03235287964344025,0.009724532254040241,0.049316417425870895
1783002591615159600,2.46815966796875,-0.0316961444914341,0.014533136039972305,0.047569118440151215
1783002591625211400,2.47821142578125,-0.02648433856666088,0.010659568943083286,0.03748692199587822
1783002591635263500,2.488263427734375,-0.032037828117609024,0.004131628200411797,0.030785609036684036
1783002591645314600,2.498314453125,-0.04199538752436638,0.001374723738990724,0.036379311233758926
1783002591655366400,2.508366455078125,-0.05401316657662392,0.017476461827754974,0.05895892530679703
1783002591665418800,2.518418701171875,-0.057977017015218735,0.023663517087697983,0.07983358204364777
1783002591675469600,2.528469482421875,-0.05740417167544365,0.01188355777412653,0.09088782966136932
1783002591685521700,2.538521728515625,-0.04255678132176399,-0.001826662220992148,0.07743220776319504
1783002591695572700,2.54857275390625,-0.03202104941010475,-0.009465673007071018,0.05357321351766586
1783002591705624600,2.55862451171875,-0.023006515577435493,-0.011302988044917583,0.010973555035889149
1783002591715676700,2.5686767578125,-0.01781867817044258,-0.01263989508152008,-0.0366608090698719
1783002591725727500,2.5787275390625,-0.01679469272494316,-0.0057162088342010975,-0.06382398307323456
1783002591735779600,2.588779541015625,-0.024056067690253258,-0.0032772859558463097,-0.06821846961975098
1783002591745831400,2.59883154296875,-0.030283337458968163,0.00037390782381407917,-0.058884888887405396
1783002591755882500,2.608882568359375,-0.02773389220237732,-0.0182301364839077,-0.03942517191171646
1783002591765934600,2.6189345703125,-0.017901236191391945,-0.021887721493840218,-0.01673370599746704
1783002591775986400,2.628986328125,-0.003067428944632411,-0.016986440867185593,-0.013134177774190903
1783002591786037500,2.63903759765625,0.0036155073903501034,-0.009947439655661583,-0.01768738403916359
1783002591796089600,2.649089599609375,0.0008692557457834482,0.013997840695083141,-0.014665495604276657
1783002591806141700,2.6591416015625,-0.008480303920805454,0.03478647768497467,-0.009152219630777836
1783002591816192500,2.669192626953125,-0.021225128322839737,0.022598519921302795,-0.014213823713362217
1783002591826244600,2.67924462890625,-0.019946809858083725,0.02640737220644951,-0.006704241503030062
1783002591836296400,2.68929638671875,-0.023397201672196388,0.02936428040266037,0.008246478624641895
1783002591846347500,2.699347412109375,-0.026158099994063377,0.01266705896705389,0.011782890185713768
1783002591856399600,2.709399658203125,-0.011969044804573059,-0.026158632710576057,0.016537165269255638
1783002591866451500,2.719451416015625,0.006491721607744694,-0.04777977243065834,0.037587057799100876
1783002591876502500,2.72950244140625,0.008990032598376274,-0.03760915994644165,0.06191210448741913
1783002591886554400,2.739554443359375,0.004790760576725006,-0.02839861810207367,0.0818389430642128
1783002591896605400,2.74960546875,0.0012327772565186024,-0.014909973368048668,0.08588933944702148
1783002591906657500,2.759657470703125,-0.005379585549235344,0.0024623586796224117,0.07897470891475677
1783002591916709400,2.76970947265625,-0.01540798507630825,0.001288171042688191,0.05501504987478256
1783002591926760400,2.779760498046875,-0.016572585329413414,-0.0054786549881100655,0.0356149859726429
1783002591936812500,2.7898125,-0.009637180715799332,-0.01267078798264265,0.005025384947657585
1783002591946864600,2.79986474609375,-0.0020394488237798214,-0.025013474747538567,-0.021281586959958076
1783002591956915700,2.809915771484375,0.007200388703495264,-0.04105689004063606,-0.04188007116317749
1783002591966967600,2.819967529296875,0.017887387424707413,-0.033178724348545074,-0.029155755415558815
1783002591977019600,2.83001953125,0.018428541719913483,-0.004954811185598373,0.012374377809464931
1783002591987070500,2.840070556640625,0.004503671545535326,-0.003153448924422264,0.0475936159491539
1783002591997122600,2.85012255859375,-0.011445733718574047,-0.007635282818228006,0.05817462131381035
1783002592007174400,2.86017431640625,-0.019630160182714462,0.013803696259856224,0.05673038959503174
1783002592017225500,2.8702255859375,-0.028138427063822746,0.0406278520822525,0.03435078263282776
1783002592027277600,2.880277587890625,-0.022645391523838043,0.030467094853520393,-0.00848722830414772
1783002592037329400,2.890329345703125,-0.003299390198662877,0.004479170776903629,-0.029985329136252403
1783002592047380500,2.90038037109375,0.009920274838805199,-0.0017757958266884089,-0.033366210758686066
1783002592057432600,2.9104326171875,0.00926247425377369,-0.005184908397495747,-0.018247447907924652
1783002592067484700,2.920484619140625,0.003584614722058177,-0.0008564725867472589,0.010581538081169128
1783002592077535700,2.93053564453125,-0.004911135416477919,0.020250409841537476,0.05078168958425522
1783002592087587600,2.940587646484375,-0.012003133073449135,0.022761771455407143,0.07316102832555771
1783002592097638700,2.950638671875,-0.006717291194945574,0.03369830921292305,0.09157625585794449
1783002592107694300,2.9606943359375,0.000006924218723725062,0.0394749715924263,0.08892348408699036
1783002592117746400,2.970746337890625,0.0023928501177579165,0.033856235444545746,0.06583786755800247
1783002592127797200,2.98079736328125,0.0022682142443954945,0.041004158556461334,0.02142300084233284
1783002592137849300,2.990849365234375,-0.000499875342939049,0.02395353652536869,-0.017376061528921127
1783002592147901200,3.000901123046875,-0.010437194257974625,-0.02479615993797779,-0.045886266976594925
1783002592157952300,3.0109521484375,-0.018678613007068634,-0.08342671394348145,-0.03712792694568634
1783002592168004600,3.021004638671875,-0.027542944997549057,-0.10130877792835236,0.028546422719955444
1783002592178056400,3.031056396484375,-0.03531857579946518,-0.06132248044013977,0.11103171110153198
1783002592188107500,3.041107421875,-0.0421205572783947,-0.024764735251665115,0.17248974740505219
1783002592198159400,3.051159423828125,-0.03184927627444267,-0.030107302591204643,0.18988125026226044
1783002592208211500,3.06121142578125,-0.01846502721309662,-0.01968262530863285,0.18183398246765137
1783002592218262500,3.071262451171875,-0.017859159037470818,0.01317918486893177,0.1687549352645874
1783002592228314400,3.081314453125,-0.011522432789206505,0.026695527136325836,0.14562751352787018
1783002592238366500,3.091366455078125,0.00043063313933089375,0.027933629229664803,0.11724433302879333
1783002592248417300,3.101417236328125,0.002460494404658675,0.01660214550793171,0.09243512153625488
1783002592258469400,3.111469482421875,-0.0011592740193009377,0.007957791909575462,0.0761972963809967
1783002592268520400,3.1215205078125,-0.009317069314420223,-0.00695058424025774,0.054121825844049454
1783002592278572300,3.131572265625,-0.006943393498659134,-0.02546141855418682,0.03290575370192528
1783002592288624600,3.141624755859375,-0.0009081379394046962,-0.02955176681280136,0.00968378596007824
1783002592298675200,3.15167529296875,-0.0011819108622148633,0.0012170645641162992,-0.014387461356818676
1783002592308727600,3.1617275390625,0.004752943757921457,0.023213976994156837,-0.04212455078959465
1783002592318779400,3.171779296875,0.00681263254955411,0.05271035060286522,-0.0500732883810997
1783002592328830500,3.18183056640625,0.013522733002901077,0.06011926382780075,-0.057904843240976334
1783002592338882600,3.191882568359375,0.02220437116920948,0.03201678767800331,-0.07994703203439713
1783002592348934400,3.201934326171875,0.024209732189774513,0.06216324120759964,-0.10396821051836014
1783002592358985500,3.2119853515625,0.004605404566973448,0.08193614333868027,-0.14167217910289764
1783002592369037300,3.222037353515625,-0.011371963657438755,0.059362128376960754,-0.17376886308193207
1783002592379089400,3.23208935546875,0.002397910226136446,0.027485420927405357,-0.17577609419822693
1783002592389140500,3.242140380859375,0.014096111990511417,0.04379009082913399,-0.13392797112464905
1783002592399192300,3.2521923828125,0.005961486138403416,0.0527162067592144,-0.09374779462814331
1783002592409244400,3.262244384765625,-0.0011108045000582933,0.0510309599339962,-0.07223264873027802
1783002592419295200,3.272295166015625,0.005988916382193565,0.04880296066403389,-0.0725138783454895
1783002592429347600,3.28234765625,0.01116370502859354,0.06293076276779175,-0.09339705854654312
1783002592439399400,3.2923994140625,0.012401808053255081,0.0775243490934372,-0.1139523983001709
1783002592449450500,3.302450439453125,0.016932910308241844,0.07980215549468994,-0.13278254866600037
1783002592459502300,3.31250244140625,0.018733207136392593,0.058518435806035995,-0.121640145778656
1783002592469554400,3.322554443359375,0.00869415607303381,0.03834685683250427,-0.10363824665546417
1783002592479605500,3.33260546875,-0.0016298545524477959,0.0014415690675377846,-0.10010635852813721
1783002592489657300,3.3426572265625,-0.007738347165286541,-0.056114401668310165,-0.09541440010070801
1783002592499708400,3.35270849609375,-0.01146623957902193,-0.06696225702762604,-0.0680360421538353
1783002592509760300,3.36276025390625,-0.0201026052236557,-0.05564648285508156,-0.023318905383348465
1783002592519812400,3.372812255859375,-0.027153590694069862,-0.04595257714390755,0.036790505051612854
1783002592529863400,3.382863525390625,-0.029383454471826553,-0.005775331053882837,0.09902005642652512
1783002592539915300,3.392915283203125,-0.02971581742167473,0.019288210198283195,0.12877342104911804
1783002592549967600,3.402967529296875,-0.025921344757080078,0.02864575944840908,0.12421276420354843
1783002592560018200,3.41301806640625,-0.019699402153491974,0.0307477917522192,0.09439308196306229
1783002592570070500,3.423070556640625,-0.020565995946526527,0.036384906619787216,0.058635082095861435
1783002592580122400,3.433122314453125,-0.01913774199783802,0.034094322472810745,0.02840900421142578
1783002592590173400,3.44317333984375,-0.02015933021903038,0.004621915984898806,0.006724747829139233
1783002592600225500,3.4532255859375,-0.014129933901131153,-0.05048741027712822,0.0041558630764484406
1783002592610277400,3.46327734375,-0.005819273181259632,-0.07765724509954453,0.03014671616256237
1783002592620328400,3.473328369140625,-0.0013140037190169096,-0.05462835729122162,0.07315117865800858
1783002592630380300,3.48338037109375,-0.00040187101694755256,-0.019510051235556602,0.10225766152143478
1783002592640432400,3.493432373046875,-0.0001304948964389041,-0.0015030881622806191,0.09078370034694672
1783002592650483500,3.5034833984375,0.007903196848928928,0.010040383785963058,0.05169035866856575
1783002592660535300,3.513535400390625,0.016275376081466675,0.002487392397597432,0.008518652990460396
1783002592670587400,3.52358740234375,0.017621871083974838,-0.030778685584664345,-0.02684812620282173
1783002592680638200,3.53363818359375,0.011955728754401207,-0.050154246389865875,-0.03310149535536766
1783002592690690600,3.543690673828125,-0.005298092495650053,-0.03611805662512779,-0.022307170554995537
1783002592700742400,3.553742431640625,-0.008703743107616901,-0.03780011087656021,-0.00410526292398572
1783002592710793500,3.56379345703125,-0.0025923210196197033,-0.05576872453093529,0.013655890710651875
1783002592720845600,3.573845458984375,0.004270378965884447,-0.04855768382549286,0.021952437236905098
1783002592730896400,3.583896484375,0.005292233545333147,-0.021763619035482407,0.029397569596767426
1783002592740948500,3.593948486328125,0.00737242866307497,0.014822888188064098,0.02719966322183609
1783002592751000300,3.604000244140625,0.01005050353705883,0.029289977625012398,0.011865448206663132
1783002592761051400,3.614051513671875,0.01853693276643753,0.024117587134242058,-0.010867827571928501
1783002592771103500,3.624103515625,0.00908537395298481,0.01016928069293499,-0.03229828551411629
1783002592781155300,3.6341552734375,-0.01146650593727827,0.003899933071807027,-0.044192492961883545
1783002592791206400,3.644206298828125,-0.018187260255217552,0.000565122754778713,-0.03696414455771446
1783002592801258200,3.65425830078125,-0.02130821719765663,0.01312166079878807,-0.01486603170633316
1783002592811310600,3.664310546875,-0.017490843310952187,0.000630636524874717,0.013173059560358524
1783002592821361400,3.674361328125,-0.013885188847780228,-0.020899688825011253,0.05606912821531296
1783002592831413500,3.68441357421875,0.0009110674145631492,-0.05868195369839668,0.1037096157670021
1783002592841465600,3.694465576171875,0.02184031717479229,-0.11425813287496567,0.1570388823747635
1783002592851516400,3.704516357421875,0.02382437326014042,-0.14144288003444672,0.18251600861549377
1783002592861568500,3.714568603515625,0.014976819045841694,-0.14915433526039124,0.16979889571666718
1783002592871620400,3.724620361328125,0.012968795374035835,-0.14818547666072845,0.13056892156600952
1783002592881671400,3.73467138671875,0.008436894044280052,-0.12975533306598663,0.0826416164636612
1783002592891723500,3.7447236328125,-0.0035065840929746628,-0.10468433797359467,0.02875335142016411
1783002592901775400,3.754775390625,-0.00686163455247879,-0.0875018835067749,0.0035451999865472317
1783002592911826400,3.764826416015625,0.002064482541754842,-0.049976613372564316,0.0017334514996036887
1783002592921878300,3.774878173828125,-0.004048803821206093,-0.006396912969648838,-0.006810501683503389
1783002592931930400,3.784930419921875,0.005694104824215174,0.015127020888030529,-0.018914302811026573
1783002592941981400,3.7949814453125,0.02599911019206047,0.023484820500016212,-0.011199391447007656
1783002592952033500,3.805033447265625,0.02948225848376751,0.00752156600356102,0.005772135220468044
1783002592962084600,3.815084716796875,0.034093789756298065,-0.04015514254570007,0.03043966554105282
1783002592972136400,3.825136474609375,0.03422801196575165,-0.0710478127002716,0.054356448352336884
1783002592982188500,3.8351884765625,0.034318823367357254,-0.0583471953868866,0.07164036482572556
1783002592992239400,3.8452392578125,0.012071576900780201,-0.04313815012574196,0.059213787317276
1783002593002291500,3.85529150390625,0.004210990387946367,-0.05029939115047455,0.034329477697610855
1783002593012343300,3.86534326171875,0.004748149774968624,-0.04728522524237633,0.00857378076761961
1783002593022394400,3.875394287109375,-0.005774531979113817,-0.0336221419274807,-0.02009062096476555
1783002593032446500,3.885446533203125,-0.010310428217053413,-0.019715381786227226,-0.052443232387304306
1783002593042498300,3.895498291015625,-0.00569996377453208,-0.000901480030734092,-0.059490758925676346
1783002593052549400,3.90554931640625,-0.004878911189734936,0.016619190573692322,-0.055155396461486816
1783002593062601200,3.915601318359375,-0.003216299694031477,0.024113858118653297,-0.04581436142325401
1783002593072653600,3.925653564453125,-0.001371527905575931,0.023207584396004677,-0.047988031059503555
1783002593082704400,3.935704345703125,0.004024302586913109,0.012513394467532635,-0.03886058181524277
1783002593092756500,3.945756591796875,0.000999750685878098,0.016207732260227203,-0.036186233162879944
1783002593102808600,3.95580859375,-0.010862501338124275,0.031773641705513,-0.03508634865283966
1783002593112855600,3.96585546875,-0.011152786202728748,0.04549797624349594,-0.03033500164747238
1783002593122907600,3.97590771484375,-0.004975850228220224,0.04970390722155571,-0.020364394411444664
1783002593132959500,3.98595947265625,0.005707953125238419,0.025534121319651604,0.007711182814091444
1783002593143010600,3.996010498046875,0.012239355593919754,0.0047028763219714165,0.03272705525159836
1783002593153062700,4.006062744140625,0.009543970227241516,-0.004990497604012489,0.032218921929597855
1783002593163113500,4.016113525390625,0.010805776342749596,0.0012833772925660014,-0.017371799796819687
1783002593173165600,4.02616552734375,0.018789665773510933,0.013836720027029514,-0.09661948680877686
1783002593183217400,4.036217529296875,0.01671959087252617,0.06076561287045479,-0.18735498189926147
1783002593193268500,4.0462685546875,0.009839048609137535,0.09905973821878433,-0.2618960440158844
1783002593203320600,4.056320556640625,-0.0057444386184215546,0.08220059424638748,-0.30193349719047546
1783002593213372400,4.066372314453125,-0.02767610177397728,0.013447898440063,-0.2798079550266266
1783002593223423500,4.076423583984375,-0.02791605331003666,-0.04364921152591705,-0.18475785851478577
1783002593233475300,4.086475341796875,-0.012492089532315731,-0.06584692746400833,-0.04301324859261513
1783002593243527700,4.096527587890625,0.0005424859118647873,-0.06799502670764923,0.10358551144599915
1783002593253578500,4.10657861328125,0.0006767092272639275,-0.048703622072935104,0.19153587520122528
1783002593263630600,4.116630615234375,0.011677960865199566,-0.019147861748933792,0.21823646128177643
1783002593273682700,4.1266826171875,0.020679712295532227,0.013226855546236038,0.17669008672237396
1783002593283733500,4.1367333984375,0.020854415372014046,0.06318323314189911,0.10995019972324371
1783002593293785600,4.14678564453125,0.009802296757698059,0.09481359273195267,0.05424060299992561
1783002593303837400,4.15683740234375,0.005744704511016607,0.09836439043283463,0.007990015670657158
1783002593313888500,4.166888427734375,-0.0030213561840355396,0.05703026428818703,-0.01720135658979416
1783002593323940600,4.176940673828125,-0.002953445538878441,0.01209980621933937,-0.007993211969733238
1783002593333992400,4.186992431640625,0.006413957104086876,-0.017288442701101303,0.026101374998688698
1783002593344043500,4.19704345703125,0.00700837466865778,-0.048471927642822266,0.05555194243788719
1783002593354095400,4.207095458984375,0.0075820195488631725,-0.06610791385173798,0.07598477602005005
1783002593364147500,4.2171474609375,0.009239304810762405,-0.04507080465555191,0.08708536624908447
1783002593374198500,4.227198486328125,0.01053306832909584,-0.01176025252789259,0.09406524896621704
1783002593384250600,4.237250732421875,0.012162922881543636,0.0163616631180048,0.09415099769830704
1783002593394301700,4.2473017578125,0.008259793743491173,0.029944051057100296,0.07738213986158371
1783002593404353500,4.257353515625,0.00564110791310668,0.039624907076358795,0.04857685789465904
1783002593414405600,4.267405517578125,0.0005438174703158438,0.036385439336299896,0.014572285115718842
1783002593424456700,4.277456787109375,0.001820270554162562,0.044925130903720856,-0.01152536179870367
1783002593434508500,4.287508544921875,0.0017156084068119526,0.042817503213882446,-0.015247928909957409
1783002593444560600,4.297560546875,0.0020785972010344267,0.03808187320828438,-0.016645289957523346
1783002593454611500,4.307611572265625,0.0034549187403172255,0.026680080220103264,-0.018486332148313522
1783002593464663600,4.31766357421875,0.004833104554563761,0.018016017973423004,-0.034035731106996536
1783002593474715400,4.32771533203125,0.006335660349577665,0.027210848405957222,-0.04730253294110298
1783002593484766500,4.337766357421875,0.0022272015921771526,0.04953879117965698,-0.04562021419405937
1783002593494818600,4.347818603515625,-0.0070342072285711765,0.06035308912396431,-0.04092879220843315
1783002593504870700,4.35787060546875,-0.0062736086547374725,0.079677514731884,-0.030359769240021706
1783002593514921500,4.36792138671875,-0.012528042308986187,0.08539772033691406,-0.026012426242232323
1783002593524973600,4.3779736328125,-0.006315952632576227,0.08384376764297485,-0.036569993942976
1783002593535025700,4.388025634765625,0.00004367584188003093,0.07766284048557281,-0.06016107648611069
1783002593545076700,4.39807666015625,-0.00016058860637713224,0.0716925635933876,-0.08330607414245605
1783002593555128600,4.408128662109375,-0.006530071143060923,0.13837918639183044,-0.09031151980161667
1783002593565180400,4.418180419921875,-0.022523418068885803,0.17673403024673462,-0.10508114844560623
1783002593575231500,4.4282314453125,-0.03025856986641884,0.17027905583381653,-0.1341570019721985
1783002593585283600,4.43828369140625,-0.033137448132038116,0.11747176945209503,-0.16779592633247375
1783002593595335400,4.44833544921875,-0.017197895795106888,0.06599659472703934,-0.14822515845298767
1783002593605386500,4.458386474609375,0.0017132115317508578,0.02261476404964924,-0.08911816030740738
1783002593615438300,4.468438232421875,0.004351871553808451,-0.014489460736513138,-0.025858229026198387
1783002593625490400,4.478490478515625,0.009946107864379883,-0.04247289150953293,0.008191617205739021
1783002593635541500,4.48854150390625,0.009096825495362282,-0.06954126060009003,-0.005906624719500542
1783002593645593600,4.498593505859375,0.00827683787792921,-0.04974278807640076,-0.04237062484025955
1783002593655644700,4.508644775390625,-0.010277139022946358,-0.008665393106639385,-0.09829407930374146
1783002593665696500,4.518696533203125,-0.03527596592903137,0.014516091905534267,-0.14495691657066345
1783002593675748600,4.52874853515625,-0.04381539300084114,0.007473628968000412,-0.1412482112646103
1783002593685799700,4.538799560546875,-0.047807201743125916,-0.01179300993680954,-0.08809284120798111
1783002593695851500,4.5488515625,-0.03912130370736122,-0.052752960473299026,-0.014939800836145878
1783002593705903600,4.558903564453125,-0.03271427005529404,-0.11536706984043121,0.04982268437743187
1783002593715954400,4.568954345703125,-0.02425074391067028,-0.1459241807460785,0.10820023715496063
1783002593726006500,4.579006591796875,-0.021445637568831444,-0.13795015215873718,0.14625334739685059
1783002593736058400,4.589058349609375,-0.016277773305773735,-0.09494009613990784,0.1631620228290558
1783002593746109400,4.599109375,-0.01464925054460764,-0.05804705619812012,0.14525359869003296
1783002593756161500,4.60916162109375,-0.020171048119664192,-0.05421343818306923,0.11309699714183807
1783002593766213600,4.619213623046875,-0.02449548989534378,-0.05038115009665489,0.0869375616312027
1783002593776264400,4.629264404296875,-0.03466743230819702,-0.06226737052202225,0.05845052748918533
1783002593786316500,4.639316650390625,-0.03062848374247551,-0.0788055956363678,0.04218074306845665
1783002593796368600,4.64936865234375,-0.028799157589673996,-0.08384936302900314,0.0336730070412159
1783002593806419700,4.659419677734375,-0.032830916345119476,-0.06938440352678299,0.03235527500510216
1783002593816471600,4.669471435546875,-0.03567863628268242,-0.0368240624666214,0.028136029839515686
1783002593826523600,4.679523681640625,-0.0346706286072731,-0.009280850179493427,0.018979283049702644
1783002593836574500,4.689574462890625,-0.03903208673000336,-0.005252552684396505,0.00130920996889472
1783002593846626600,4.69962646484375,-0.05234895646572113,-0.03503122180700302,-0.023210780695080757
1783002593856678400,4.709678466796875,-0.06447326391935349,-0.046364568173885345,-0.017106017097830772
1783002593866729500,4.7197294921875,-0.06247829273343086,-0.0019108180422335863,0.01697605475783348
1783002593876781600,4.729781494140625,-0.07194023579359055,0.06587382405996323,0.04042891412973404
1783002593886832400,4.739832275390625,-0.06887813657522202,0.05886464938521385,0.022117553278803825
1783002593896884500,4.749884521484375,-0.05016836151480675,0.027118436992168427,0.002782470779493451
1783002593906936600,4.7599365234375,-0.02797277830541134,0.004252269398421049,-0.001989913871511817
1783002593916987600,4.769987548828125,-0.015446067787706852,-0.013256949372589588,0.012266519479453564
1783002593927039700,4.780039794921875,-0.021684521809220314,-0.01948847994208336,0.03883341699838638
1783002593937091600,4.790091552734375,-0.02881859801709652,-0.03947603702545166,0.05222858488559723
1783002593947142700,4.800142578125,-0.02322569489479065,-0.060562413185834885,0.05483075976371765
1783002593957194500,4.810194580078125,-0.024405207484960556,-0.06563334167003632,0.0484575480222702
1783002593967246600,4.82024658203125,-0.03828746825456619,-0.05140167102217674,0.03586825355887413
1783002593977297700,4.830297607421875,-0.04081560671329498,-0.032464198768138885,0.027149595320224762
1783002593987349500,4.840349609375,-0.03813007473945618,-0.003972104750573635,0.034505248069763184
1783002593997401600,4.850401611328125,-0.031980834901332855,0.0032778186723589897,0.040950361639261246
1783002594007452400,4.860452392578125,-0.01570546068251133,-0.0044019389897584915,0.05955467373132706
1783002594017504500,4.87050439453125,-0.0037326866295188665,0.008382299914956093,0.09645543247461319
1783002594027556600,4.880556640625,-0.005879460833966732,-0.011115767993032932,0.1263025403022766
1783002594037607400,4.890607421875,-0.012750416062772274,-0.04042092710733414,0.17387539148330688
1783002594047659500,4.900659423828125,-0.020177971571683884,-0.07080439478158951,0.2223324030637741
1783002594057711600,4.910711669921875,-0.0080310283228755,-0.10535145550966263,0.23097117245197296
1783002594067762700,4.9207626953125,-0.003482881933450699,-0.06958813220262527,0.2175152748823166
1783002594077814500,4.930814453125,-0.005997971165925264,-0.005287706386297941,0.19024504721164703
1783002594087866600,4.94086669921875,-0.021320201456546783,0.027149861678481102,0.14271347224712372
1783002594097917400,4.95091748046875,-0.022495189681649208,0.017797106876969337,0.10905937850475311
1783002594107969500,4.960969482421875,-0.020859742537140846,0.028314994648098946,0.1178632527589798
1783002594118025700,4.971025634765625,-0.022184930741786957,0.024212662130594254,0.15310272574424744
1783002594128076800,4.981076904296875,-0.022113557904958725,-0.014935540035367012,0.18510088324546814
1783002594138128600,4.991128662109375,-0.019773172214627266,-0.0606662780046463,0.20221062004566193
1783002594148179700,5.0011796875,-0.019901003688573837,-0.0780378133058548,0.1897270530462265
1783002594158231800,5.011231689453125,-0.03666666895151138,-0.0695876032114029,0.14565706253051758
1783002594168283600,5.02128369140625,-0.04528891667723656,-0.03916870802640915,0.07120014727115631
1783002594178334700,5.031334716796875,-0.037639785557985306,-0.014993596822023392,-0.005032841581851244
1783002594188386600,5.041386474609375,-0.027167439460754395,-0.01281912624835968,-0.0705290287733078
1783002594198439000,5.05143896484375,-0.012404471635818481,-0.024405473843216896,-0.10804657638072968
1783002594208490000,5.061489990234375,-0.0023241406306624413,-0.040347423404455185,-0.09907624870538712
1783002594218541800,5.071541748046875,-0.00023276027059182525,-0.00808935146778822,-0.05006476491689682
1783002594228594000,5.081593994140625,0.0031220237724483013,0.037210218608379364,0.040288567543029785
1783002594238644700,5.091644775390625,0.0009496832499280572,0.04935210198163986,0.11720412224531174
1783002594248696800,5.10169677734375,0.0012772521004080772,0.022837406024336815,0.14773912727832794
1783002594258748700,5.111748779296875,0.008533567190170288,0.0028541097417473793,0.14011316001415253
1783002594268799700,5.1217998046875,0.00890747457742691,-0.005940979812294245,0.10825936496257782
1783002594278851800,5.131851806640625,0.014535000547766685,-0.02610856667160988,0.05837303027510643
1783002594288903700,5.141903564453125,0.0065135592594742775,-0.04730093479156494,0.016574449837207794
1783002594298954800,5.151954833984375,0.007274424657225609,-0.04649319872260094,-0.00839508231729269
1783002594309006600,5.162006591796875,0.010667824186384678,-0.04519304260611534,-0.037405695766210556
1783002594319059000,5.172058837890625,0.02130076102912426,-0.04327929764986038,-0.054542072117328644
1783002594329110000,5.182110107421875,0.026585537940263748,-0.047324106097221375,-0.04108671471476555
1783002594339161900,5.192161865234375,0.02268933318555355,-0.014515026472508907,-0.025480592623353004
1783002594349214000,5.2022138671875,0.023484021425247192,-0.007784153334796429,-0.008347944356501102
1783002594359264800,5.2122646484375,0.012796222232282162,0.052934855222702026,0.007513842545449734
1783002594369316900,5.22231689453125,-0.0022144184913486242,0.13903164863586426,0.010573015548288822
1783002594379368000,5.232367919921875,-0.08119818568229675,0.24507206678390503,0.34362953901290894
1783002594389419800,5.242419677734375,-0.1265411674976349,0.08687817305326462,0.3799172341823578
1783002594399471900,5.252471923828125,-0.0673723816871643,0.029810892418026924,0.20076052844524384
1783002594409522700,5.262522705078125,-0.0016375777777284384,0.04043477401137352,-0.051724180579185486
1783002594419574800,5.27257470703125,0.049377936869859695,-0.041599906980991364,-0.24680311977863312
1783002594429626600,5.282626708984375,0.08264587819576263,-0.08371513336896896,-0.3685612380504608
1783002594439677700,5.292677734375,0.1020805612206459,-0.03212571144104004,-0.4251704812049866
1783002594449729800,5.302729736328125,0.10857388377189636,-0.01411475334316492,-0.47424641251564026
1783002594459782000,5.312781982421875,0.086421437561512,-0.03702166676521301,-0.45656487345695496
1783002594469833000,5.3228330078125,0.0750713124871254,-0.03244609013199806,-0.3119392395019531
