time,seconds_elapsed,z,y,x
1783002755012049700,0.071049560546875,-0.9955902099609375,-0.3128204345703125,0.0812225341796875
1783002755022100700,0.081100830078125,-0.975799560546875,-0.3144378662109375,0.075439453125
1783002755032152600,0.091152587890625,-0.9647064208984375,-0.326202392578125,0.074005126953125
1783002755042203600,0.10120361328125,-0.95770263671875,-0.3412933349609375,0.074615478515625
1783002755052255700,0.111255859375,-0.9502105712890625,-0.345794677734375,0.0732574462890625
1783002755062306600,0.121306640625,-0.9676971435546875,-0.3401947021484375,0.073944091796875
1783002755072359000,0.13135888671875,-1.0027923583984375,-0.330780029296875,0.08197021484375
1783002755082409700,0.14140966796875,-1.0263519287109375,-0.32232666015625,0.105438232421875
1783002755092461800,0.1514619140625,-1.028656005859375,-0.3117523193359375,0.119720458984375
1783002755102513000,0.161512939453125,-1.033538818359375,-0.290435791015625,0.128509521484375
1783002755112564700,0.171564697265625,-1.0442047119140625,-0.273773193359375,0.1383209228515625
1783002755122615800,0.18161572265625,-1.032745361328125,-0.2763824462890625,0.14886474609375
1783002755132668000,0.19166796875,-1.004852294921875,-0.2905731201171875,0.1618499755859375
1783002755142718700,0.20171875,-0.9801483154296875,-0.3064727783203125,0.170684814453125
1783002755152770800,0.211770751953125,-0.943023681640625,-0.3247528076171875,0.1689910888671875
1783002755162822000,0.22182177734375,-0.901611328125,-0.3397674560546875,0.161834716796875
1783002755172873700,0.231873779296875,-0.89520263671875,-0.3523712158203125,0.166778564453125
1783002755182924800,0.2419248046875,-0.884033203125,-0.370819091796875,0.171051025390625
1783002755192976600,0.2519765625,-0.869354248046875,-0.3794097900390625,0.17108154296875
1783002755203027700,0.26202783203125,-0.8604278564453125,-0.3782958984375,0.1748199462890625
1783002755213079800,0.272079833984375,-0.854339599609375,-0.382598876953125,0.1825714111328125
1783002755223130600,0.282130615234375,-0.8561248779296875,-0.3889923095703125,0.1885833740234375
1783002755233182700,0.2921826171875,-0.8634796142578125,-0.3913421630859375,0.1829071044921875
1783002755243233800,0.30223388671875,-0.8632965087890625,-0.391754150390625,0.1752166748046875
1783002755253285600,0.31228564453125,-0.866668701171875,-0.388824462890625,0.1714935302734375
1783002755263336700,0.322336669921875,-0.864105224609375,-0.3888397216796875,0.1694183349609375
1783002755273391900,0.332391845703125,-0.852569580078125,-0.39111328125,0.164581298828125
1783002755283443000,0.34244287109375,-0.8539276123046875,-0.392608642578125,0.1591033935546875
1783002755293495000,0.3524951171875,-0.859832763671875,-0.399017333984375,0.152984619140625
1783002755303545900,0.3625458984375,-0.852508544921875,-0.40679931640625,0.146575927734375
1783002755313598000,0.372597900390625,-0.8434600830078125,-0.4093475341796875,0.1401824951171875
1783002755323649000,0.38264892578125,-0.84063720703125,-0.408233642578125,0.1309356689453125
1783002755333700900,0.392700927734375,-0.844818115234375,-0.405242919921875,0.1250762939453125
1783002755343752000,0.402751953125,-0.84539794921875,-0.409515380859375,0.120025634765625
1783002755353803800,0.4128037109375,-0.82000732421875,-0.41552734375,0.112701416015625
1783002755363854800,0.422854736328125,-0.7942962646484375,-0.405517578125,0.10760498046875
1783002755373907200,0.4329072265625,-0.7993621826171875,-0.39215087890625,0.1074066162109375
1783002755383957800,0.442957763671875,-0.8213348388671875,-0.3922882080078125,0.1195220947265625
1783002755394010000,0.453010009765625,-0.8308563232421875,-0.4017181396484375,0.12518310546875
1783002755404061200,0.463061279296875,-0.84088134765625,-0.3934326171875,0.133819580078125
1783002755414113000,0.473113037109375,-0.875732421875,-0.3752899169921875,0.147857666015625
1783002755424164000,0.4831640625,-0.9141082763671875,-0.3652801513671875,0.157623291015625
1783002755434216000,0.4932158203125,-0.9381256103515625,-0.3631134033203125,0.1679534912109375
1783002755444267000,0.50326708984375,-0.9607086181640625,-0.3647918701171875,0.178955078125
1783002755454319000,0.513319091796875,-0.973480224609375,-0.366363525390625,0.1811981201171875
1783002755464370000,0.523369873046875,-0.9737701416015625,-0.362060546875,0.1868438720703125
1783002755474422000,0.533422119140625,-0.98284912109375,-0.35443115234375,0.1912994384765625
1783002755484473000,0.54347314453125,-1.00067138671875,-0.3438720703125,0.19970703125
1783002755494525000,0.55352490234375,-1.00262451171875,-0.338958740234375,0.199981689453125
1783002755504576000,0.563575927734375,-1.0024261474609375,-0.326873779296875,0.188507080078125
1783002755514627800,0.5736279296875,-1.008575439453125,-0.311248779296875,0.16558837890625
1783002755524679000,0.583678955078125,-1.0066680908203125,-0.29766845703125,0.144012451171875
1783002755534731000,0.59373095703125,-1.007415771484375,-0.2920074462890625,0.1248626708984375
1783002755544781800,0.60378173828125,-0.9960784912109375,-0.299407958984375,0.10443115234375
1783002755554834000,0.613833984375,-0.9878692626953125,-0.303497314453125,0.088897705078125
1783002755564885000,0.623885009765625,-0.9920501708984375,-0.3063812255859375,0.0737762451171875
1783002755574936800,0.633936767578125,-0.999786376953125,-0.314727783203125,0.060150146484375
1783002755584988000,0.64398779296875,-0.9875335693359375,-0.3216400146484375,0.0523834228515625
1783002755595040000,0.6540400390625,-0.9695892333984375,-0.3197021484375,0.0501251220703125
1783002755605091000,0.664091064453125,-0.9680328369140625,-0.31591796875,0.0431365966796875
1783002755615143200,0.67414306640625,-0.9649658203125,-0.3130340576171875,0.03271484375
1783002755625194000,0.684194091796875,-0.9651031494140625,-0.3106689453125,0.0292816162109375
1783002755635246000,0.69424609375,-0.969818115234375,-0.3170623779296875,0.0321197509765625
1783002755645297200,0.704297119140625,-0.985443115234375,-0.3246002197265625,0.0310516357421875
1783002755655349000,0.714348876953125,-0.984161376953125,-0.36279296875,0.0106658935546875
1783002755665400000,0.724400146484375,-0.9458770751953125,-0.42230224609375,0.0143585205078125
1783002755675452000,0.734451904296875,-0.924163818359375,-0.422210693359375,0.0475311279296875
1783002755685503000,0.7445029296875,-0.9512176513671875,-0.3900146484375,0.0569000244140625
1783002755695555000,0.75455517578125,-1.00653076171875,-0.3676300048828125,0.0439605712890625
1783002755705606000,0.76460595703125,-1.0477294921875,-0.3459320068359375,0.0392913818359375
1783002755715658000,0.774657958984375,-1.0634002685546875,-0.320037841796875,0.0378265380859375
1783002755725709000,0.784708984375,-1.0973358154296875,-0.2972564697265625,0.035491943359375
1783002755735761000,0.794760986328125,-1.1320343017578125,-0.2845916748046875,0.035888671875
1783002755745812000,0.80481201171875,-1.144500732421875,-0.273101806640625,0.0348663330078125
1783002755755863800,0.81486376953125,-1.1472320556640625,-0.2626190185546875,0.0246734619140625
1783002755765915000,0.824914794921875,-1.1391448974609375,-0.2491912841796875,0.008270263671875
1783002755775967000,0.834967041015625,-1.1090240478515625,-0.2305755615234375,-0.006500244140625
1783002755786017800,0.845017822265625,-1.09112548828125,-0.2058563232421875,-0.01947021484375
1783002755796070100,0.855070068359375,-1.0995635986328125,-0.1766815185546875,-0.033233642578125
1783002755806121000,0.865120849609375,-1.117340087890625,-0.1634521484375,-0.0473175048828125
1783002755816173000,0.875173095703125,-1.12957763671875,-0.1658172607421875,-0.05230712890625
1783002755826224000,0.88522412109375,-1.111083984375,-0.1737213134765625,-0.057861328125
1783002755836276000,0.89527587890625,-1.0839996337890625,-0.180389404296875,-0.05804443359375
1783002755846327000,0.9053271484375,-1.06982421875,-0.1864166259765625,-0.0575714111328125
1783002755856379100,0.915379150390625,-1.045166015625,-0.2045745849609375,-0.0648193359375
1783002755866430000,0.925429931640625,-1.002532958984375,-0.220611572265625,-0.0683441162109375
1783002755876482000,0.93548193359375,-0.9527435302734375,-0.237152099609375,-0.07843017578125
1783002755886533000,0.945533203125,-0.9065399169921875,-0.259124755859375,-0.0888671875
1783002755896585000,0.9555849609375,-0.87548828125,-0.2775115966796875,-0.0932769775390625
1783002755906636000,0.965635986328125,-0.853607177734375,-0.279205322265625,-0.101654052734375
1783002755916688000,0.97568798828125,-0.853912353515625,-0.269866943359375,-0.1141357421875
1783002755926739000,0.985739013671875,-0.8799896240234375,-0.26312255859375,-0.1204986572265625
1783002755936791000,0.995791015625,-0.8981781005859375,-0.2611846923828125,-0.12005615234375
1783002755946841900,1.005841796875,-0.9110260009765625,-0.2580108642578125,-0.1109771728515625
1783002755956894000,1.01589404296875,-0.9244384765625,-0.260955810546875,-0.0991668701171875
1783002755966945000,1.025945068359375,-0.915802001953125,-0.2686767578125,-0.0895233154296875
1783002755976996900,1.035996826171875,-0.8914794921875,-0.273590087890625,-0.082366943359375
1783002755987048000,1.0460478515625,-0.8757476806640625,-0.27301025390625,-0.0689544677734375
1783002755997099800,1.056099853515625,-0.8616790771484375,-0.2762451171875,-0.064697265625
1783002756007150800,1.06615087890625,-0.8535614013671875,-0.276702880859375,-0.0652313232421875
1783002756017203200,1.076203125,-0.8496856689453125,-0.2701416015625,-0.0681915283203125
1783002756027253800,1.086253662109375,-0.86083984375,-0.26416015625,-0.0699920654296875
1783002756037306000,1.09630615234375,-0.885162353515625,-0.2715911865234375,-0.0664520263671875
1783002756047357200,1.106357177734375,-0.88482666015625,-0.2797088623046875,-0.0662384033203125
1783002756057409000,1.116408935546875,-0.8667755126953125,-0.2762298583984375,-0.061737060546875
1783002756067460000,1.126460205078125,-0.86639404296875,-0.2840728759765625,-0.0529022216796875
1783002756077512000,1.136511962890625,-0.8797149658203125,-0.2947540283203125,-0.0416412353515625
1783002756087563000,1.14656298828125,-0.8812255859375,-0.30816650390625,-0.035491943359375
1783002756097615000,1.156614990234375,-0.86138916015625,-0.3171234130859375,-0.0339508056640625
1783002756107666000,1.166666015625,-0.8440093994140625,-0.3184661865234375,-0.028533935546875
1783002756117718000,1.176718017578125,-0.8504180908203125,-0.3316192626953125,-0.02825927734375
1783002756127769000,1.18676904296875,-0.8607635498046875,-0.3515777587890625,-0.0264434814453125
1783002756137821000,1.196821044921875,-0.8638763427734375,-0.371673583984375,-0.0244903564453125
1783002756147872000,1.2068720703125,-0.87255859375,-0.3865509033203125,-0.036468505859375
1783002756157923800,1.216923828125,-0.8865814208984375,-0.38201904296875,-0.0532073974609375
1783002756167975000,1.226974853515625,-0.8916015625,-0.374847412109375,-0.0691986083984375
1783002756178027000,1.237027099609375,-0.90753173828125,-0.37738037109375,-0.07745361328125
1783002756188077800,1.247077880859375,-0.9322052001953125,-0.3769073486328125,-0.077667236328125
1783002756198130000,1.2571298828125,-0.947113037109375,-0.376800537109375,-0.0760955810546875
1783002756208181000,1.267180908203125,-0.9583282470703125,-0.381744384765625,-0.079498291015625
1783002756218232800,1.27723291015625,-0.9656982421875,-0.380462646484375,-0.0756072998046875
1783002756228284000,1.287283935546875,-0.9662628173828125,-0.3817138671875,-0.0698089599609375
1783002756238336000,1.2973359375,-0.969512939453125,-0.38775634765625,-0.07098388671875
1783002756248387000,1.307386962890625,-0.973175048828125,-0.3936309814453125,-0.0644073486328125
1783002756258439200,1.317439208984375,-0.9832763671875,-0.4019927978515625,-0.05316162109375
1783002756268487400,1.3274873046875,-0.979827880859375,-0.4102325439453125,-0.041900634765625
1783002756278539500,1.33753955078125,-0.969268798828125,-0.415679931640625,-0.0334625244140625
1783002756288590300,1.34759033203125,-0.9644927978515625,-0.4127960205078125,-0.024810791015625
1783002756298642400,1.357642333984375,-0.95355224609375,-0.40673828125,-0.01275634765625
1783002756308693500,1.367693603515625,-0.9594573974609375,-0.40826416015625,-0.0050506591796875
1783002756318745300,1.377745361328125,-0.9661407470703125,-0.414947509765625,0.005096435546875
1783002756328796400,1.38779638671875,-0.9618682861328125,-0.4166107177734375,0.008453369140625
1783002756338848300,1.39784814453125,-0.9534149169921875,-0.415863037109375,0.004302978515625
1783002756348899300,1.4078994140625,-0.93804931640625,-0.4169921875,0.0004119873046875
1783002756358951400,1.417951416015625,-0.92431640625,-0.4183807373046875,-0.0020599365234375
1783002756369002200,1.428002197265625,-0.9129486083984375,-0.4171905517578125,-0.0050506591796875
1783002756379054300,1.438054443359375,-0.9121551513671875,-0.4253082275390625,-0.0057373046875
1783002756389105400,1.44810546875,-0.921356201171875,-0.4404754638671875,-0.003997802734375
1783002756399157200,1.4581572265625,-0.9210052490234375,-0.449981689453125,-0.001739501953125
1783002756409208300,1.468208251953125,-0.91717529296875,-0.45172119140625,0.0009918212890625
1783002756419260400,1.478260498046875,-0.92034912109375,-0.45123291015625,0.003570556640625
1783002756429311500,1.4883115234375,-0.9277496337890625,-0.458221435546875,0.001434326171875
1783002756439363600,1.498363525390625,-0.9301910400390625,-0.4576568603515625,-0.002410888671875
1783002756449414400,1.508414306640625,-0.936920166015625,-0.4457244873046875,-0.0105438232421875
1783002756459466500,1.518466552734375,-0.949066162109375,-0.435791015625,-0.0213775634765625
1783002756469517600,1.528517578125,-0.9521484375,-0.419586181640625,-0.030059814453125
1783002756479569400,1.5385693359375,-0.9579010009765625,-0.4032440185546875,-0.03173828125
1783002756489620500,1.548620361328125,-0.95819091796875,-0.390350341796875,-0.0338287353515625
1783002756499672300,1.55867236328125,-0.961334228515625,-0.405059814453125,-0.045166015625
1783002756509723400,1.568723388671875,-0.958709716796875,-0.4827117919921875,-0.0633697509765625
1783002756519775500,1.578775390625,-0.9388885498046875,-0.4961700439453125,-0.035430908203125
1783002756529826300,1.588826416015625,-0.94158935546875,-0.453369140625,-0.0371551513671875
1783002756539878400,1.59887841796875,-0.9688568115234375,-0.459381103515625,-0.040252685546875
1783002756549929500,1.608929443359375,-1.016845703125,-0.4670562744140625,-0.023345947265625
1783002756559981300,1.618981201171875,-1.07568359375,-0.4518890380859375,-0.0127105712890625
1783002756570032400,1.629032470703125,-1.129486083984375,-0.4374847412109375,-0.010711669921875
1783002756580084200,1.639084228515625,-1.1783599853515625,-0.415435791015625,-0.0040435791015625
1783002756590135300,1.64913525390625,-1.212127685546875,-0.3814239501953125,0.0094451904296875
1783002756600187400,1.6591875,-1.229248046875,-0.3398284912109375,0.0217742919921875
1783002756610238200,1.66923828125,-1.233154296875,-0.3022918701171875,0.03375244140625
1783002756620290300,1.679290283203125,-1.2185211181640625,-0.2767791748046875,0.04083251953125
1783002756630341400,1.68934130859375,-1.1882781982421875,-0.2468414306640625,0.055328369140625
1783002756640393500,1.6993935546875,-1.1649627685546875,-0.2195892333984375,0.0735626220703125
1783002756650444500,1.709444580078125,-1.1433868408203125,-0.2075042724609375,0.0797271728515625
1783002756660496400,1.719496337890625,-1.1132965087890625,-0.1904449462890625,0.085205078125
1783002756670547500,1.72954736328125,-1.0887908935546875,-0.1774444580078125,0.083343505859375
1783002756680599600,1.739599609375,-1.0573272705078125,-0.1751556396484375,0.0760040283203125
1783002756690650400,1.749650390625,-1.011505126953125,-0.1831512451171875,0.071746826171875
1783002756700702500,1.759702392578125,-0.95751953125,-0.1988525390625,0.0751800537109375
1783002756710753500,1.76975341796875,-0.906982421875,-0.218536376953125,0.0785675048828125
1783002756720805400,1.779805419921875,-0.8664093017578125,-0.236907958984375,0.0828704833984375
1783002756730856400,1.7898564453125,-0.8430633544921875,-0.2470703125,0.0966949462890625
1783002756740908300,1.799908203125,-0.8494415283203125,-0.2564849853515625,0.1117095947265625
1783002756750959400,1.80995947265625,-0.8678131103515625,-0.2695159912109375,0.1191864013671875
1783002756761011500,1.820011474609375,-0.87847900390625,-0.279815673828125,0.123138427734375
1783002756771062300,1.830062255859375,-0.886260986328125,-0.283111572265625,0.13067626953125
1783002756781114400,1.8401142578125,-0.895233154296875,-0.27838134765625,0.1357269287109375
1783002756791165400,1.85016552734375,-0.9022369384765625,-0.2703094482421875,0.13629150390625
1783002756801217300,1.86021728515625,-0.9173583984375,-0.2676239013671875,0.13385009765625
1783002756811268400,1.870268310546875,-0.9315032958984375,-0.2656707763671875,0.135833740234375
1783002756821320200,1.8803203125,-0.9308319091796875,-0.2715911865234375,0.134368896484375
1783002756831371300,1.890371337890625,-0.9377899169921875,-0.2642059326171875,0.120849609375
1783002756841423600,1.900423583984375,-0.95855712890625,-0.2457275390625,0.110504150390625
1783002756851474200,1.91047412109375,-0.98004150390625,-0.235137939453125,0.098297119140625
1783002756861526500,1.920526611328125,-0.98931884765625,-0.2333221435546875,0.091156005859375
1783002756871577600,1.93057763671875,-0.9771881103515625,-0.2369537353515625,0.0948333740234375
1783002756881629400,1.94062939453125,-0.952880859375,-0.2520599365234375,0.1034088134765625
1783002756891680500,1.950680419921875,-0.8984527587890625,-0.2742156982421875,0.1060943603515625
1783002756901732400,1.960732421875,-0.8462066650390625,-0.2888641357421875,0.10858154296875
1783002756911783400,1.970783447265625,-0.8161468505859375,-0.29730224609375,0.1100006103515625
1783002756921835500,1.98083544921875,-0.79901123046875,-0.314239501953125,0.107513427734375
1783002756931886300,1.99088623046875,-0.780731201171875,-0.336883544921875,0.103485107421875
1783002756941938400,2.0009384765625,-0.7629241943359375,-0.350799560546875,0.0964202880859375
1783002756951989500,2.010989501953125,-0.76092529296875,-0.3567047119140625,0.0893096923828125
1783002756962041300,2.021041259765625,-0.7797088623046875,-0.36199951171875,0.0889892578125
1783002756972092400,2.031092529296875,-0.823638916015625,-0.37457275390625,0.0863494873046875
1783002756982144300,2.041144287109375,-0.8599700927734375,-0.3798370361328125,0.0853424072265625
1783002756992195300,2.0511953125,-0.8843536376953125,-0.3745574951171875,0.0945281982421875
1783002757002247400,2.061247314453125,-0.9241180419921875,-0.37481689453125,0.1035308837890625
1783002757012298200,2.07129833984375,-0.9536285400390625,-0.384185791015625,0.1100616455078125
1783002757022350300,2.081350341796875,-0.955047607421875,-0.388427734375,0.11651611328125
1783002757032401400,2.0914013671875,-0.9369354248046875,-0.3911285400390625,0.11627197265625
1783002757042453200,2.101453369140625,-0.922454833984375,-0.397491455078125,0.120819091796875
1783002757052504300,2.11150439453125,-0.9080047607421875,-0.4086151123046875,0.1225433349609375
1783002757062556400,2.121556396484375,-0.8877716064453125,-0.414794921875,0.1198272705078125
1783002757072607200,2.131607177734375,-0.871063232421875,-0.420745849609375,0.117645263671875
1783002757082659600,2.14165966796875,-0.845184326171875,-0.4268798828125,0.119415283203125
1783002757092710400,2.15171044921875,-0.833526611328125,-0.4362030029296875,0.1214599609375
1783002757102762500,2.161762451171875,-0.840240478515625,-0.4414520263671875,0.120635986328125
1783002757112813600,2.1718134765625,-0.8502655029296875,-0.4429168701171875,0.113006591796875
1783002757122865400,2.181865478515625,-0.854248046875,-0.44659423828125,0.1134796142578125
1783002757132916500,2.19191650390625,-0.8476409912109375,-0.4522247314453125,0.119659423828125
1783002757142968300,2.20196826171875,-0.8397979736328125,-0.454803466796875,0.123443603515625
1783002757153019400,2.212019287109375,-0.819915771484375,-0.4528045654296875,0.1205291748046875
1783002757163071500,2.222071533203125,-0.814666748046875,-0.455657958984375,0.1155548095703125
1783002757173122300,2.232122314453125,-0.82415771484375,-0.465087890625,0.1103363037109375
1783002757183174400,2.24217431640625,-0.8324127197265625,-0.461700439453125,0.1074676513671875
1783002757193225500,2.2522255859375,-0.857269287109375,-0.4580535888671875,0.1015167236328125
1783002757203277300,2.26227734375,-0.900146484375,-0.462890625,0.0976409912109375
1783002757213328400,2.272328369140625,-0.9153594970703125,-0.464630126953125,0.09808349609375
1783002757223380200,2.282380126953125,-0.916015625,-0.4579620361328125,0.1038055419921875
1783002757233431300,2.292431396484375,-0.917694091796875,-0.4521026611328125,0.114501953125
1783002757243483400,2.3024833984375,-0.9291534423828125,-0.4528656005859375,0.124969482421875
1783002757253534200,2.3125341796875,-0.947265625,-0.4597930908203125,0.1215972900390625
1783002757263586300,2.32258642578125,-0.9426727294921875,-0.4575958251953125,0.1159820556640625
1783002757273636400,2.33263623046875,-0.932342529296875,-0.4602203369140625,0.10906982421875
1783002757283688200,2.342688232421875,-0.9311370849609375,-0.4716033935546875,0.110565185546875
1783002757293739300,2.3527392578125,-0.930908203125,-0.471343994140625,0.1189422607421875
1783002757303791400,2.362791259765625,-0.9407806396484375,-0.4568634033203125,0.1200408935546875
1783002757313842200,2.37284228515625,-0.952117919921875,-0.44610595703125,0.1168670654296875
1783002757323894500,2.38289453125,-0.951324462890625,-0.4385833740234375,0.117431640625
1783002757333945600,2.392945556640625,-0.9430389404296875,-0.4391632080078125,0.1208648681640625
1783002757343997400,2.40299755859375,-0.9317474365234375,-0.4634552001953125,0.1151123046875
1783002757354048500,2.413048583984375,-0.9075775146484375,-0.5216064453125,0.1050262451171875
1783002757364100400,2.423100341796875,-0.8773956298828125,-0.5697784423828125,0.108245849609375
1783002757374152400,2.43315234375,-0.8686065673828125,-0.5803680419921875,0.0949554443359375
1783002757384203500,2.44320361328125,-0.8989715576171875,-0.5711517333984375,0.0741119384765625
1783002757394255400,2.45325537109375,-0.9608612060546875,-0.5470733642578125,0.0639801025390625
1783002757404306400,2.463306396484375,-1.027740478515625,-0.5100555419921875,0.048828125
1783002757414358300,2.473358154296875,-1.0887603759765625,-0.4516143798828125,0.0403900146484375
1783002757424409300,2.483409423828125,-1.1503143310546875,-0.39337158203125,0.0377655029296875
1783002757434461400,2.49346142578125,-1.1810302734375,-0.346893310546875,0.042083740234375
1783002757444512300,2.50351220703125,-1.1842041015625,-0.3061370849609375,0.0502471923828125
1783002757454564400,2.513564453125,-1.1586761474609375,-0.278411865234375,0.0460662841796875
1783002757464615400,2.523615478515625,-1.1024627685546875,-0.2610626220703125,0.0387115478515625
1783002757474667300,2.533667236328125,-1.0395660400390625,-0.2481842041015625,0.035675048828125
1783002757484718300,2.54371826171875,-0.9864959716796875,-0.2486724853515625,0.025390625
1783002757494770200,2.553770263671875,-0.9434356689453125,-0.256622314453125,0.0155792236328125
1783002757504821200,2.5638212890625,-0.911834716796875,-0.2800445556640625,0.0013580322265625
1783002757514873600,2.57387353515625,-0.89410400390625,-0.307861328125,-0.0058746337890625
1783002757524924200,2.583924072265625,-0.88421630859375,-0.330474853515625,-0.013671875
1783002757534976500,2.5939765625,-0.8755035400390625,-0.3411407470703125,-0.0265960693359375
1783002757545027600,2.604027587890625,-0.863861083984375,-0.3439178466796875,-0.035064697265625
1783002757555079400,2.614079345703125,-0.86212158203125,-0.337554931640625,-0.0388946533203125
1783002757565130500,2.624130615234375,-0.8780059814453125,-0.334625244140625,-0.0491485595703125
1783002757575182300,2.634182373046875,-0.90728759765625,-0.33489990234375,-0.060791015625
1783002757585233400,2.6442333984375,-0.9399871826171875,-0.332275390625,-0.07086181640625
1783002757595285500,2.654285400390625,-0.9597625732421875,-0.32342529296875,-0.0812835693359375
1783002757605336300,2.66433642578125,-0.9733428955078125,-0.30352783203125,-0.0792388916015625
1783002757615388400,2.674388427734375,-0.98565673828125,-0.2916412353515625,-0.065277099609375
1783002757625439500,2.684439453125,-1.0037841796875,-0.2954254150390625,-0.0567169189453125
1783002757635491300,2.6944912109375,-1.0194854736328125,-0.2959747314453125,-0.047088623046875
1783002757645542400,2.70454248046875,-1.0126190185546875,-0.291900634765625,-0.0358734130859375
1783002757655594200,2.71459423828125,-0.983489990234375,-0.2968902587890625,-0.0335235595703125
1783002757665645300,2.724645263671875,-0.9539642333984375,-0.3043365478515625,-0.0162200927734375
1783002757675697400,2.734697509765625,-0.925933837890625,-0.323944091796875,-0.005859375
1783002757685748200,2.744748291015625,-0.896514892578125,-0.340606689453125,-0.009307861328125
1783002757695800300,2.75480029296875,-0.8667144775390625,-0.3453369140625,-0.0147552490234375
1783002757705851400,2.764851318359375,-0.8383026123046875,-0.3536834716796875,-0.029876708984375
1783002757715903200,2.7749033203125,-0.8133544921875,-0.3661041259765625,-0.0399932861328125
1783002757725954300,2.784954345703125,-0.792022705078125,-0.374053955078125,-0.051422119140625
1783002757736006400,2.79500634765625,-0.7790374755859375,-0.3787384033203125,-0.058624267578125
1783002757746057500,2.805057373046875,-0.78363037109375,-0.372894287109375,-0.0508880615234375
1783002757756109600,2.815109619140625,-0.7916259765625,-0.3819122314453125,-0.0462646484375
1783002757766160400,2.825160400390625,-0.802093505859375,-0.3961029052734375,-0.037200927734375
1783002757776212500,2.83521240234375,-0.80877685546875,-0.4007110595703125,-0.0256500244140625
1783002757786263600,2.845263671875,-0.8092193603515625,-0.3965911865234375,-0.0152435302734375
1783002757796315400,2.8553154296875,-0.816375732421875,-0.3942718505859375,-0.0040435791015625
1783002757806366500,2.865366455078125,-0.8407440185546875,-0.39501953125,0.0045623779296875
1783002757816418300,2.875418212890625,-0.8589935302734375,-0.39697265625,0.01434326171875
1783002757826469400,2.885469482421875,-0.87451171875,-0.3964385986328125,0.0242156982421875
1783002757836521500,2.895521484375,-0.892303466796875,-0.39471435546875,0.02880859375
1783002757846572300,2.905572265625,-0.900665283203125,-0.387054443359375,0.0308990478515625
1783002757856624400,2.915624267578125,-0.92169189453125,-0.37982177734375,0.034912109375
1783002757866675500,2.925675537109375,-0.944793701171875,-0.3802032470703125,0.0345916748046875
1783002757876727300,2.935727294921875,-0.9613189697265625,-0.3807525634765625,0.0355682373046875
1783002757886778400,2.9457783203125,-0.9758758544921875,-0.3811187744140625,0.03851318359375
1783002757896830200,2.955830322265625,-0.9830474853515625,-0.3872222900390625,0.0357208251953125
1783002757906881300,2.96588134765625,-0.9738616943359375,-0.39227294921875,0.034332275390625
1783002757916933400,2.975933349609375,-0.960693359375,-0.401336669921875,0.034088134765625
1783002757926984200,2.985984130859375,-0.9413909912109375,-0.41583251953125,0.0291290283203125
1783002757937036500,2.99603662109375,-0.9207305908203125,-0.422515869140625,0.0286865234375
1783002757947087400,3.00608740234375,-0.8927459716796875,-0.432830810546875,0.031463623046875
1783002757957139500,3.016139404296875,-0.87091064453125,-0.45269775390625,0.0293426513671875
1783002757967190500,3.0261904296875,-0.86578369140625,-0.4632568359375,0.0368804931640625
1783002757977242400,3.036242431640625,-0.85919189453125,-0.470367431640625,0.0359649658203125
1783002757987293400,3.04629345703125,-0.851409912109375,-0.470123291015625,0.03192138671875
1783002757997345500,3.056345458984375,-0.84942626953125,-0.4684906005859375,0.0289459228515625
1783002758007396400,3.066396240234375,-0.86041259765625,-0.47247314453125,0.032012939453125
1783002758017448400,3.076448486328125,-0.880859375,-0.4766998291015625,0.0358734130859375
1783002758027499500,3.08649951171875,-0.89727783203125,-0.4724273681640625,0.034637451171875
1783002758037551400,3.09655126953125,-0.909454345703125,-0.4661865234375,0.0338287353515625
1783002758047602400,3.1066025390625,-0.91680908203125,-0.46527099609375,0.0355987548828125
1783002758057654300,3.116654296875,-0.9360504150390625,-0.4637908935546875,0.0374908447265625
1783002758067705300,3.126705322265625,-0.9498138427734375,-0.4661712646484375,0.036376953125
1783002758077757400,3.13675732421875,-0.95001220703125,-0.4599151611328125,0.0339508056640625
1783002758087808300,3.146808349609375,-0.954315185546875,-0.4493865966796875,0.0261077880859375
1783002758097860400,3.1568603515625,-0.960174560546875,-0.4423675537109375,0.0192718505859375
1783002758107911400,3.166911376953125,-0.968048095703125,-0.4436492919921875,0.01080322265625
1783002758117963300,3.17696337890625,-0.9644775390625,-0.442626953125,0.0027618408203125
1783002758128014300,3.187014404296875,-0.9544219970703125,-0.440826416015625,0.001983642578125
1783002758138066200,3.197066162109375,-0.9357452392578125,-0.44805908203125,0.0077972412109375
1783002758148117200,3.2071171875,-0.922454833984375,-0.4555206298828125,0.013092041015625
1783002758158169600,3.217169677734375,-0.9208526611328125,-0.455322265625,0.013275146484375
1783002758168220200,3.22722021484375,-0.9118804931640625,-0.447906494140625,0.0146026611328125
1783002758178272500,3.2372724609375,-0.898223876953125,-0.44561767578125,0.0170745849609375
1783002758188323600,3.247323486328125,-0.8929443359375,-0.4536895751953125,0.028472900390625
1783002758198375400,3.25737548828125,-0.8754425048828125,-0.494842529296875,0.026153564453125
1783002758208426500,3.267426513671875,-0.8393402099609375,-0.55224609375,0.0406646728515625
1783002758218478300,3.277478271484375,-0.819793701171875,-0.5216522216796875,0.07647705078125
1783002758228529400,3.287529296875,-0.8486785888671875,-0.4912109375,0.0803375244140625
1783002758238581500,3.29758154296875,-0.902374267578125,-0.463958740234375,0.09722900390625
1783002758248632300,3.30763232421875,-0.9827423095703125,-0.433502197265625,0.1083221435546875
1783002758258684400,3.317684326171875,-1.0899200439453125,-0.4111175537109375,0.1122589111328125
1783002758268735500,3.327735595703125,-1.172943115234375,-0.362457275390625,0.1427459716796875
1783002758278787300,3.337787353515625,-1.2292633056640625,-0.31353759765625,0.1554412841796875
1783002758288838400,3.34783837890625,-1.2888031005859375,-0.25579833984375,0.177825927734375
1783002758298890200,3.35789013671875,-1.327239990234375,-0.224273681640625,0.187225341796875
1783002758308941300,3.36794140625,-1.293487548828125,-0.187652587890625,0.199432373046875
1783002758318993400,3.377993408203125,-1.2176666259765625,-0.140228271484375,0.216064453125
1783002758329044200,3.388044189453125,-1.150421142578125,-0.122802734375,0.2006072998046875
1783002758339096300,3.398096435546875,-1.091217041015625,-0.1321258544921875,0.1669921875
1783002758349147400,3.4081474609375,-1.0517425537109375,-0.144439697265625,0.1324615478515625
1783002758359199200,3.41819921875,-1.0131988525390625,-0.1658172607421875,0.1079864501953125
1783002758369250300,3.428250244140625,-0.9798431396484375,-0.2064056396484375,0.0904541015625
1783002758379302400,3.438302490234375,-0.9591522216796875,-0.245086669921875,0.0866241455078125
1783002758389353500,3.448353515625,-0.9507293701171875,-0.27655029296875,0.0823516845703125
1783002758399405600,3.458405517578125,-0.94354248046875,-0.2900848388671875,0.091644287109375
1783002758409456400,3.468456298828125,-0.9417266845703125,-0.3014984130859375,0.1184539794921875
1783002758419508500,3.478508544921875,-0.9597625732421875,-0.3233184814453125,0.1653289794921875
1783002758429559600,3.4885595703125,-0.971923828125,-0.34881591796875,0.2053680419921875
1783002758439611400,3.498611328125,-0.9697265625,-0.36370849609375,0.223846435546875
1783002758449662500,3.508662353515625,-0.9710235595703125,-0.3538055419921875,0.233856201171875
1783002758459714300,3.51871435546875,-0.9612274169921875,-0.3399200439453125,0.22186279296875
1783002758469765400,3.528765380859375,-0.9610443115234375,-0.319244384765625,0.1984405517578125
1783002758479817500,3.5388173828125,-0.9730224609375,-0.296356201171875,0.1732177734375
1783002758489868300,3.548868408203125,-0.97064208984375,-0.2857513427734375,0.159912109375
1783002758499920400,3.55892041015625,-0.95281982421875,-0.280792236328125,0.1551971435546875
1783002758509971500,3.568971435546875,-0.9303741455078125,-0.2801055908203125,0.1528472900390625
1783002758520023300,3.579023193359375,-0.907623291015625,-0.2846832275390625,0.1448211669921875
1783002758530074400,3.589074462890625,-0.888031005859375,-0.288360595703125,0.13568115234375
1783002758540126200,3.599126220703125,-0.86981201171875,-0.293853759765625,0.1266326904296875
1783002758550177300,3.60917724609375,-0.842926025390625,-0.3031768798828125,0.1140899658203125
1783002758560229400,3.6192294921875,-0.8105621337890625,-0.310302734375,0.09765625
1783002758570280200,3.6292802734375,-0.8105621337890625,-0.3145751953125,0.07745361328125
1783002758580332300,3.639332275390625,-0.8323974609375,-0.32476806640625,0.07275390625
1783002758590383400,3.64938330078125,-0.8322296142578125,-0.338836669921875,0.06939697265625
1783002758600435500,3.659435546875,-0.8354949951171875,-0.343536376953125,0.0558624267578125
1783002758610487600,3.669487548828125,-0.81610107421875,-0.3433837890625,0.039520263671875
1783002758620538400,3.679538330078125,-0.8180694580078125,-0.3451080322265625,0.0200653076171875
1783002758630590500,3.689590576171875,-0.8459014892578125,-0.3505096435546875,0.01483154296875
1783002758640641500,3.6996416015625,-0.8641815185546875,-0.365020751953125,0.02325439453125
1783002758650693400,3.709693359375,-0.865020751953125,-0.38494873046875,0.0416717529296875
1783002758660744400,3.719744384765625,-0.8576202392578125,-0.4033660888671875,0.0543060302734375
1783002758670796300,3.72979638671875,-0.85821533203125,-0.4068450927734375,0.072906494140625
1783002758680847400,3.739847412109375,-0.8706207275390625,-0.4066162109375,0.084747314453125
1783002758690899500,3.7498994140625,-0.86846923828125,-0.3965911865234375,0.0919952392578125
1783002758700950300,3.7599501953125,-0.872589111328125,-0.385833740234375,0.0963897705078125
1783002758711002400,3.77000244140625,-0.8845672607421875,-0.3843231201171875,0.0976409912109375
1783002758721053400,3.780053466796875,-0.889556884765625,-0.37896728515625,0.1002960205078125
1783002758731105300,3.790105224609375,-0.88531494140625,-0.378448486328125,0.10052490234375
1783002758741156400,3.80015625,-0.880767822265625,-0.38629150390625,0.1059722900390625
1783002758751208200,3.810208251953125,-0.8849945068359375,-0.404144287109375,0.1131134033203125
1783002758761259300,3.82025927734375,-0.8814239501953125,-0.4193572998046875,0.1242523193359375
1783002758771311400,3.830311279296875,-0.8755340576171875,-0.4307708740234375,0.1324462890625
1783002758781362200,3.840362060546875,-0.859649658203125,-0.44683837890625,0.1268768310546875
1783002758791414500,3.85041455078125,-0.8545379638671875,-0.454132080078125,0.1189727783203125
1783002758801465600,3.860465576171875,-0.8541259765625,-0.45806884765625,0.10650634765625
1783002758811517400,3.870517333984375,-0.8543548583984375,-0.461334228515625,0.0960845947265625
1783002758821568500,3.880568603515625,-0.857330322265625,-0.4706878662109375,0.09564208984375
1783002758831620400,3.890620361328125,-0.8548431396484375,-0.476959228515625,0.09716796875
1783002758841671400,3.90067138671875,-0.8546295166015625,-0.481201171875,0.103363037109375
1783002758851723500,3.9107236328125,-0.858062744140625,-0.4969482421875,0.1014404296875
1783002758861774300,3.9207744140625,-0.8737640380859375,-0.5033111572265625,0.102020263671875
1783002758871826400,3.930826416015625,-0.909942626953125,-0.5041351318359375,0.109588623046875
1783002758881877500,3.94087744140625,-0.92340087890625,-0.5101470947265625,0.111572265625
1783002758891929300,3.950929443359375,-0.8999786376953125,-0.50555419921875,0.1039581298828125
1783002758901980400,3.96098046875,-0.878082275390625,-0.4969024658203125,0.092041015625
1783002758912032300,3.9710322265625,-0.865447998046875,-0.4959259033203125,0.083587646484375
1783002758922083300,3.981083251953125,-0.855377197265625,-0.5037689208984375,0.0765228271484375
1783002758932135400,3.991135498046875,-0.837493896484375,-0.5161590576171875,0.073974609375
1783002758942186200,4.001186279296875,-0.8194580078125,-0.52923583984375,0.0823822021484375
1783002758952238300,4.01123828125,-0.82635498046875,-0.537506103515625,0.0855560302734375
1783002758962289400,4.021289306640625,-0.850830078125,-0.5401763916015625,0.088623046875
1783002758972341200,4.03134130859375,-0.8546295166015625,-0.5379180908203125,0.095672607421875
1783002758982392300,4.041392333984375,-0.8494415283203125,-0.5291290283203125,0.1013946533203125
1783002758992444400,4.0514443359375,-0.8545074462890625,-0.513671875,0.1089324951171875
1783002759002495200,4.0614951171875,-0.8504486083984375,-0.5063629150390625,0.1110382080078125
1783002759012547600,4.071547607421875,-0.84295654296875,-0.5018768310546875,0.109619140625
1783002759022598400,4.081598388671875,-0.8485260009765625,-0.496856689453125,0.109222412109375
1783002759032650500,4.091650390625,-0.8612518310546875,-0.4934539794921875,0.1096649169921875
1783002759042701600,4.10170166015625,-0.85113525390625,-0.494415283203125,0.1123199462890625
1783002759052753400,4.11175341796875,-0.854217529296875,-0.501922607421875,0.112518310546875
1783002759062804500,4.121804443359375,-0.8751068115234375,-0.552490234375,0.0941162109375
1783002759072856300,4.131856201171875,-0.8370361328125,-0.644744873046875,0.074676513671875
1783002759082907400,4.141907470703125,-0.7871551513671875,-0.6485137939453125,0.086517333984375
1783002759092959500,4.15195947265625,-0.8190155029296875,-0.6116943359375,0.0477294921875
1783002759103010300,4.16201025390625,-0.8783721923828125,-0.593231201171875,0.015869140625
1783002759113062400,4.1720625,-0.9350738525390625,-0.5984039306640625,0.00335693359375
1783002759123113500,4.182113525390625,-1.011444091796875,-0.5725860595703125,-0.0018310546875
1783002759133165300,4.192165283203125,-1.1025543212890625,-0.5140533447265625,0.0025634765625
1783002759143216400,4.20221630859375,-1.1822662353515625,-0.4562225341796875,-0.0001983642578125
1783002759153268200,4.212268310546875,-1.20941162109375,-0.40081787109375,0.0069580078125
1783002759163319300,4.2223193359375,-1.212432861328125,-0.353729248046875,0.0294647216796875
1783002759173371400,4.232371337890625,-1.2013702392578125,-0.331878662109375,0.0496063232421875
1783002759183422200,4.242422119140625,-1.1531982421875,-0.31866455078125,0.0607452392578125
1783002759193474300,4.252474365234375,-1.1183929443359375,-0.286376953125,0.073822021484375
1783002759203525400,4.262525390625,-1.1194305419921875,-0.2502593994140625,0.0847320556640625
1783002759213577500,4.272577392578125,-1.122100830078125,-0.23455810546875,0.092071533203125
1783002759223628300,4.282628173828125,-1.105255126953125,-0.241302490234375,0.0894927978515625
1783002759233680400,4.292680419921875,-1.06085205078125,-0.248565673828125,0.0923919677734375
1783002759243731500,4.3027314453125,-1.0065155029296875,-0.265838623046875,0.083465576171875
1783002759253783600,4.312783447265625,-0.969482421875,-0.274017333984375,0.06158447265625
1783002759263834400,4.32283447265625,-0.943939208984375,-0.2752838134765625,0.034515380859375
1783002759273886700,4.33288671875,-0.9197998046875,-0.2878875732421875,0.0056304931640625
1783002759283937800,4.342937744140625,-0.8937225341796875,-0.30511474609375,-0.0198974609375
1783002759293989600,4.35298974609375,-0.871490478515625,-0.31683349609375,-0.0315704345703125
1783002759304040700,4.363040771484375,-0.875457763671875,-0.310272216796875,-0.037139892578125
1783002759314092800,4.3730927734375,-0.89593505859375,-0.3117523193359375,-0.047576904296875
1783002759324143900,4.383143798828125,-0.914459228515625,-0.3229522705078125,-0.0533294677734375
1783002759334196000,4.393196044921875,-0.9070281982421875,-0.333343505859375,-0.05908203125
1783002759344246800,4.403246826171875,-0.9049835205078125,-0.3321685791015625,-0.0605621337890625
1783002759354299000,4.413298828125,-0.9247589111328125,-0.3248748779296875,-0.052734375
1783002759364350000,4.423349853515625,-0.947021484375,-0.321563720703125,-0.04864501953125
1783002759374401800,4.43340185546875,-0.9684295654296875,-0.319488525390625,-0.042938232421875
1783002759384452900,4.443452880859375,-0.9765625,-0.316436767578125,-0.0326995849609375
1783002759394504700,4.453504638671875,-0.9762725830078125,-0.31201171875,-0.0251922607421875
1783002759404555800,4.4635556640625,-0.97698974609375,-0.3138427734375,-0.015960693359375
1783002759414608000,4.47360791015625,-0.962738037109375,-0.3257598876953125,-0.0046539306640625
1783002759424658700,4.48365869140625,-0.9357452392578125,-0.3384857177734375,0.0111846923828125
1783002759434710800,4.493710693359375,-0.9087371826171875,-0.342071533203125,0.024200439453125
1783002759444761900,4.503761962890625,-0.8737030029296875,-0.352020263671875,0.0264739990234375
1783002759454813700,4.513813720703125,-0.8444061279296875,-0.3702239990234375,0.031219482421875
1783002759464864800,4.52386474609375,-0.82086181640625,-0.387542724609375,0.028961181640625
1783002759474916600,4.53391650390625,-0.80230712890625,-0.4032135009765625,0.0259552001953125
1783002759484967700,4.5439677734375,-0.78521728515625,-0.4157867431640625,0.0215301513671875
1783002759495019800,4.554019775390625,-0.769073486328125,-0.4237060546875,0.018829345703125
1783002759505070600,4.564070556640625,-0.7588043212890625,-0.4286651611328125,0.0174102783203125
1783002759515123000,4.574123046875,-0.7525177001953125,-0.4407196044921875,0.0126800537109375
1783002759525173800,4.584173828125,-0.752777099609375,-0.44775390625,0.0028839111328125
1783002759535225900,4.594225830078125,-0.7491912841796875,-0.4470672607421875,-0.005340576171875
1783002759545277000,4.60427685546875,-0.741729736328125,-0.4449462890625,-0.0101318359375
1783002759555328800,4.614328857421875,-0.7382049560546875,-0.44378662109375,-0.01373291015625
1783002759565379800,4.6243798828125,-0.749755859375,-0.44073486328125,-0.0154876708984375
1783002759575432000,4.634431884765625,-0.7712554931640625,-0.4339752197265625,-0.01654052734375
1783002759585482800,4.644482666015625,-0.79180908203125,-0.4235992431640625,-0.01763916015625
1783002759595534800,4.654534912109375,-0.824981689453125,-0.4190216064453125,-0.0217437744140625
1783002759605586000,4.6645859375,-0.8543853759765625,-0.4113922119140625,-0.0193634033203125
1783002759615637800,4.6746376953125,-0.8785858154296875,-0.41021728515625,-0.010833740234375
1783002759625688800,4.684688720703125,-0.8937530517578125,-0.4136199951171875,-0.01373291015625
1783002759635740700,4.69474072265625,-0.913970947265625,-0.408660888671875,-0.0060272216796875
1783002759645791700,4.704791748046875,-0.9383697509765625,-0.4116363525390625,0.0045318603515625
1783002759655843800,4.71484375,-0.9358978271484375,-0.4162750244140625,0.0109100341796875
1783002759665894700,4.724894775390625,-0.917236328125,-0.427825927734375,0.0126953125
1783002759675946800,4.73494677734375,-0.899444580078125,-0.43365478515625,0.010986328125
1783002759685997800,4.744997802734375,-0.8879241943359375,-0.44073486328125,0.012908935546875
1783002759696049700,4.755049560546875,-0.87908935546875,-0.460968017578125,0.0142974853515625
1783002759706100700,4.765100830078125,-0.874359130859375,-0.482269287109375,0.0222930908203125
1783002759716152600,4.775152587890625,-0.8570404052734375,-0.49896240234375,0.0292205810546875
1783002759726203600,4.78520361328125,-0.8402099609375,-0.507598876953125,0.0363922119140625
1783002759736256000,4.795256103515625,-0.8419036865234375,-0.51654052734375,0.0435943603515625
1783002759746306600,4.805306640625,-0.8508758544921875,-0.522125244140625,0.0510406494140625
1783002759756359000,4.81535888671875,-0.85888671875,-0.528106689453125,0.0632781982421875
1783002759766410000,4.825409912109375,-0.866729736328125,-0.530731201171875,0.0728302001953125
1783002759776461800,4.8354619140625,-0.87158203125,-0.526458740234375,0.0778961181640625
1783002759786513000,4.845512939453125,-0.8766937255859375,-0.5198822021484375,0.0808563232421875
1783002759796564700,4.855564697265625,-0.8875732421875,-0.514678955078125,0.082489013671875
1783002759806615800,4.86561572265625,-0.89593505859375,-0.5156097412109375,0.0864410400390625
1783002759816668000,4.87566796875,-0.8906097412109375,-0.521728515625,0.08563232421875
1783002759826718700,4.88571875,-0.88671875,-0.5267181396484375,0.0832977294921875
1783002759836770800,4.895770751953125,-0.893310546875,-0.5254669189453125,0.0724639892578125
1783002759846822000,4.90582177734375,-0.886383056640625,-0.518402099609375,0.06072998046875
1783002759856873700,4.915873779296875,-0.8824920654296875,-0.509674072265625,0.0543060302734375
1783002759866925800,4.92592578125,-0.882904052734375,-0.5065155029296875,0.046844482421875
1783002759876976600,4.9359765625,-0.883514404296875,-0.5061492919921875,0.0391998291015625
1783002759887027700,4.94602783203125,-0.8914794921875,-0.510223388671875,0.0352783203125
1783002759897079800,4.956079833984375,-0.9032135009765625,-0.512725830078125,0.0308837890625
1783002759907131600,4.966131591796875,-0.9274749755859375,-0.4990234375,0.02978515625
1783002759917182700,4.9761826171875,-0.9521942138671875,-0.49346923828125,0.0277099609375
1783002759927234800,4.98623486328125,-0.9576416015625,-0.4953460693359375,0.0235595703125
1783002759937285600,4.99628564453125,-0.954010009765625,-0.4972991943359375,0.020843505859375
1783002759947336700,5.006336669921875,-0.957122802734375,-0.5287017822265625,-0.0030059814453125
1783002759957388800,5.016388916015625,-0.9512939453125,-0.580657958984375,-0.0061492919921875
1783002759967440000,5.02643994140625,-0.934539794921875,-0.558685302734375,0.0165557861328125
1783002759977492000,5.036491943359375,-0.92108154296875,-0.50201416015625,0.0066070556640625
1783002759987542800,5.046542724609375,-0.919891357421875,-0.4562225341796875,0.0088348388671875
1783002759997595000,5.056594970703125,-0.9974212646484375,-0.425537109375,0.02838134765625
1783002760007646000,5.06664599609375,-1.0938568115234375,-0.4170379638671875,0.03607177734375
1783002760017697800,5.07669775390625,-1.147125244140625,-0.406280517578125,0.0621795654296875
1783002760027750000,5.08675,-1.15264892578125,-0.386993408203125,0.097930908203125
1783002760037800700,5.09680078125,-1.137054443359375,-0.359344482421875,0.1063690185546875
1783002760047852800,5.106852783203125,-1.1241455078125,-0.3202362060546875,0.10107421875
1783002760057903900,5.11690380859375,-1.098968505859375,-0.2821044921875,0.0847320556640625
1783002760067955700,5.126955810546875,-1.0493011474609375,-0.25408935546875,0.055877685546875
1783002760078006800,5.1370068359375,-1.02545166015625,-0.2371063232421875,0.012359619140625
1783002760088058600,5.14705859375,-1.0247039794921875,-0.22271728515625,-0.0288238525390625
1783002760098109700,5.157109619140625,-1.037322998046875,-0.1994171142578125,-0.0445098876953125
1783002760108161800,5.167161865234375,-1.0394744873046875,-0.1916961669921875,-0.0498046875
1783002760118212600,5.177212646484375,-1.0367431640625,-0.2027587890625,-0.0470123291015625
1783002760128264700,5.1872646484375,-1.0341949462890625,-0.210693359375,-0.0314788818359375
1783002760138315800,5.197315673828125,-1.027740478515625,-0.2197265625,-0.006011962890625
1783002760148368000,5.207367919921875,-1.009185791015625,-0.2248077392578125,0.023193359375
1783002760158418700,5.217418701171875,-0.9902496337890625,-0.2270355224609375,0.056427001953125
1783002760168470800,5.227470703125,-1.0006866455078125,-0.2325897216796875,0.0913238525390625
1783002760178521900,5.23752197265625,-0.9958953857421875,-0.243560791015625,0.117340087890625
1783002760188574000,5.247573974609375,-0.9974365234375,-0.231719970703125,0.1373138427734375
1783002760198624800,5.257624755859375,-1.0093231201171875,-0.20977783203125,0.1489715576171875
1783002760208676900,5.2676767578125,-1.0142669677734375,-0.1963348388671875,0.1519012451171875
1783002760218728000,5.27772802734375,-1.0152587890625,-0.188629150390625,0.1532745361328125
1783002760228779800,5.28777978515625,-1.019378662109375,-0.1837310791015625,0.1512603759765625
1783002760238830800,5.297830810546875,-1.0143585205078125,-0.183197021484375,0.143768310546875
1783002760248882700,5.307882568359375,-0.9951019287109375,-0.182098388671875,0.137115478515625
1783002760258933800,5.317933837890625,-0.9816436767578125,-0.186676025390625,0.137786865234375
1783002760268985900,5.32798583984375,-0.9612884521484375,-0.1995697021484375,0.13128662109375
1783002760279037000,5.338036865234375,-0.9378814697265625,-0.20989990234375,0.126678466796875
1783002760289089000,5.348089111328125,-0.917694091796875,-0.225006103515625,0.125701904296875
1783002760299140000,5.35814013671875,-0.8947296142578125,-0.2383575439453125,0.11724853515625
1783002760309192000,5.36819189453125,-0.871978759765625,-0.2433929443359375,0.115570068359375
1783002760319243000,5.378242919921875,-0.864990234375,-0.2546539306640625,0.117431640625
1783002760329294800,5.388294921875,-0.841796875,-0.268096923828125,0.1152496337890625
1783002760339346000,5.398345947265625,-0.696502685546875,-0.27630615234375,0.1263275146484375
1783002760349398000,5.40839794921875,-0.679718017578125,-0.2866363525390625,0.1328125
1783002760359448800,5.41844873046875,-0.8752899169921875,-0.28094482421875,0.1147613525390625
1783002760369501000,5.4285009765625,-0.9491424560546875,-0.2744903564453125,0.1251983642578125
1783002760379552000,5.438552001953125,-0.899261474609375,-0.2913970947265625,0.1356048583984375
1783002760389604000,5.44860400390625,-0.8409271240234375,-0.2902679443359375,0.12969970703125
1783002760399655000,5.458655029296875,-0.8544464111328125,-0.2773895263671875,0.1124420166015625
1783002760409707000,5.46870703125,-0.8777008056640625,-0.2772216796875,0.09637451171875
1783002760419758000,5.478758056640625,-0.8827056884765625,-0.2653656005859375,0.082489013671875
1783002760429810000,5.488809814453125,-0.8638763427734375,-0.261199951171875,0.0560760498046875
