time,seconds_elapsed,z,y,x
1783002755035920600,0.094920654296875,0.03522462397813797,0.17945729196071625,0.05044388025999069
1783002755045971700,0.1049716796875,0.036497537046670914,0.2525177299976349,0.04850360378623009
1783002755056023800,0.11502392578125,0.02806011028587818,0.24338790774345398,0.014061740599572659
1783002755066075000,0.125074951171875,0.003575178561732173,0.14491067826747894,-0.052491504698991776
1783002755076126700,0.135126708984375,-0.013237357139587402,0.04459313303232193,-0.118073970079422
1783002755086177800,0.145177734375,-0.004383993335068226,0.03677038848400116,-0.16364739835262299
1783002755096230000,0.15522998046875,0.011071927845478058,0.09185627847909927,-0.17771899700164795
1783002755106280700,0.16528076171875,0.013636818155646324,0.13720804452896118,-0.16586953401565552
1783002755116332800,0.175332763671875,0.02023932710289955,0.16708073019981384,-0.12108209729194641
1783002755126383900,0.1853837890625,0.023415273055434227,0.1948520541191101,-0.060617174953222275
1783002755136435700,0.195435791015625,0.01904635690152645,0.1831354796886444,-0.000506166834384203
1783002755146486800,0.20548681640625,0.024314166978001595,0.15658020973205566,0.07836804538965225
1783002755156538600,0.21553857421875,0.036947138607501984,0.14293444156646729,0.15553845465183258
1783002755166589700,0.225589599609375,0.04256593436002731,0.06464444845914841,0.21431849896907806
1783002755176641800,0.235641845703125,0.06089594215154648,-0.017013931646943092,0.24876967072486877
1783002755186692600,0.245692626953125,0.08225972950458527,-0.06600753217935562,0.26157239079475403
1783002755196744700,0.25574462890625,0.10025204718112946,-0.10745297372341156,0.25045397877693176
1783002755206795800,0.265795654296875,0.10610337555408478,-0.1378578394651413,0.2354883849620819
1783002755216847600,0.27584765625,0.10910102725028992,-0.17269811034202576,0.20177677273750305
1783002755226898700,0.285898681640625,0.1136394813656807,-0.21608015894889832,0.151658833026886
1783002755236950500,0.295950439453125,0.10868281126022339,-0.23798544704914093,0.08729742467403412
1783002755247001600,0.306001708984375,0.09909278899431229,-0.2740051746368408,0.009205015376210213
1783002755257053700,0.3160537109375,0.09570232033729553,-0.3089410662651062,-0.07550614327192307
1783002755267104500,0.3261044921875,0.09261684119701385,-0.3456033170223236,-0.13963983952999115
1783002755277160000,0.336159912109375,0.07944750785827637,-0.3841123580932617,-0.1955111026763916
1783002755287211000,0.3462109375,0.07005000114440918,-0.4189739227294922,-0.23989619314670563
1783002755297262800,0.356262939453125,0.07269451767206192,-0.4014551043510437,-0.25797319412231445
1783002755307314000,0.36631396484375,0.07815928757190704,-0.33708304166793823,-0.25155872106552124
1783002755317365800,0.37636572265625,0.07826848328113556,-0.2655385434627533,-0.23135226964950562
1783002755327416800,0.386416748046875,0.07965673506259918,-0.21659117937088013,-0.2273969054222107
1783002755337469000,0.396468994140625,0.09409613162279129,-0.19949209690093994,-0.2208615243434906
1783002755347520000,0.40652001953125,0.13006293773651123,-0.0977604016661644,-0.21907757222652435
1783002755357572000,0.416572021484375,0.15691985189914703,0.06876413524150848,-0.22718583047389984
1783002755367623200,0.426623046875,0.1660744994878769,0.218925341963768,-0.269059956073761
1783002755377675000,0.436675048828125,0.18302179872989655,0.2858673632144928,-0.35151541233062744
1783002755387726000,0.44672607421875,0.2025497704744339,0.30187082290649414,-0.45174258947372437
1783002755397778000,0.45677783203125,0.20891232788562775,0.31894513964653015,-0.5730255842208862
1783002755407829000,0.4668291015625,0.1934845745563507,0.2929950952529907,-0.707185685634613
1783002755417881000,0.476881103515625,0.16756802797317505,0.2161857783794403,-0.8303736448287964
1783002755427932000,0.486931884765625,0.14729523658752441,0.11482980102300644,-0.9187036752700806
1783002755437984000,0.49698388671875,0.12561523914337158,-0.022852696478366852,-0.9564241766929626
1783002755448035000,0.50703515625,0.11197417974472046,-0.17461231350898743,-0.92354816198349
1783002755458087000,0.5170869140625,0.10735679417848587,-0.3054816424846649,-0.8290640115737915
1783002755468138000,0.527137939453125,0.12067869305610657,-0.4025897681713104,-0.7036054730415344
1783002755478189800,0.53718994140625,0.14919741451740265,-0.4693528115749359,-0.5779306292533875
1783002755488241000,0.547240966796875,0.17902503907680511,-0.48958906531333923,-0.44115692377090454
1783002755498293000,0.55729296875,0.19763468205928802,-0.458073228597641,-0.2970373034477234
1783002755508343800,0.56734375,0.21679159998893738,-0.3781997263431549,-0.16956157982349396
1783002755518396000,0.57739599609375,0.21785767376422882,-0.28321969509124756,-0.049441028386354446
1783002755528447000,0.587447021484375,0.20118263363838196,-0.2514360547065735,0.052664779126644135
1783002755538498800,0.597498779296875,0.184853196144104,-0.2611355483531952,0.14200425148010254
1783002755548550000,0.6075498046875,0.15796715021133423,-0.28556114435195923,0.20890089869499207
1783002755558602000,0.61760205078125,0.1286630630493164,-0.33175498247146606,0.24138745665550232
1783002755568652800,0.62765283203125,0.0953022912144661,-0.4014965891838074,0.2549712061882019
1783002755578705200,0.637705078125,0.08123733848333359,-0.44309064745903015,0.2766141891479492
1783002755588756000,0.647755859375,0.06672821938991547,-0.441445916891098,0.3130462169647217
1783002755598808000,0.65780810546875,0.06654952466487885,-0.41971027851104736,0.35071930289268494
1783002755608859100,0.667859130859375,0.07181546092033386,-0.3595450520515442,0.38361552357673645
1783002755618911000,0.677910888671875,0.06725000590085983,-0.3045307993888855,0.41902437806129456
1783002755628962000,0.687962158203125,0.04949468374252319,-0.2937411963939667,0.4581552743911743
1783002755639014000,0.698013916015625,0.04418300837278366,-0.35372862219810486,0.501580536365509
1783002755649065000,0.70806494140625,0.06158490106463432,-0.40500354766845703,0.5456224083900452
1783002755659117000,0.718116943359375,0.05831480771303177,-0.358713299036026,0.6013472080230713
1783002755669167900,0.72816796875,0.01653316430747509,-0.3069799244403839,0.6677072048187256
1783002755679220000,0.738219970703125,0.010102961212396622,-0.3160703778266907,0.7190697193145752
1783002755689271000,0.74827099609375,0.04888322204351425,-0.39168161153793335,0.7046607732772827
1783002755699323000,0.758322998046875,0.07552548497915268,-0.46359124779701233,0.6375254392623901
1783002755709374000,0.7683740234375,0.07844708114862442,-0.4480978846549988,0.5451329946517944
1783002755719425800,0.77842578125,0.08137522637844086,-0.41383737325668335,0.4230590760707855
1783002755729476900,0.788476806640625,0.08215171098709106,-0.3987504541873932,0.2830365002155304
1783002755739529000,0.798529052734375,0.07877455651760101,-0.38414061069488525,0.16216175258159637
1783002755749580000,0.808580078125,0.0675373375415802,-0.3587351143360138,0.06511307507753372
1783002755759632000,0.8186318359375,0.05322524160146713,-0.32929548621177673,0.00019772909581661224
1783002755769683000,0.828682861328125,0.037225235253572464,-0.26716604828834534,-0.02568553388118744
1783002755779735000,0.838735107421875,0.016173746436834335,-0.17481748759746552,-0.02291930839419365
1783002755789785900,0.848785888671875,-0.003088365774601698,-0.11829988658428192,-0.02376619353890419
1783002755799838000,0.858837890625,-0.015124255791306496,-0.09516260772943497,-0.03534162417054176
1783002755809889000,0.868888916015625,-0.04005477949976921,-0.08461816608905792,-0.04923524707555771
1783002755819941000,0.878941162109375,-0.06592153012752533,-0.03305164724588394,-0.03317718580365181
1783002755829992000,0.888991943359375,-0.11051598936319351,0.034997761249542236,0.02179456129670143
1783002755840044000,0.8990439453125,-0.1521550416946411,0.06662040203809738,0.08486434072256088
1783002755850095000,0.90909521484375,-0.1744762361049652,0.06980309635400772,0.1769384890794754
1783002755860147000,0.91914697265625,-0.1947823166847229,0.05048239603638649,0.3148215413093567
1783002755870198000,0.929197998046875,-0.20877692103385925,0.011051299050450325,0.4810398817062378
1783002755880249900,0.939249755859375,-0.21107521653175354,-0.030952610075473785,0.6566479206085205
1783002755890301000,0.949301025390625,-0.2040812075138092,-0.06792367249727249,0.8014821410179138
1783002755900353000,0.95935302734375,-0.1974179744720459,-0.0804959237575531,0.896886944770813
1783002755910403800,0.96940380859375,-0.1949186623096466,-0.0755528062582016,0.9132118821144104
1783002755920456000,0.9794560546875,-0.20294490456581116,-0.06432785093784332,0.8422623872756958
1783002755930507000,0.989507080078125,-0.21380159258842468,-0.027070961892604828,0.6915633678436279
1783002755940558800,0.999558837890625,-0.22811688482761383,0.03561478853225708,0.47888869047164917
1783002755950610000,1.00960986328125,-0.2439666986465454,0.08474104851484299,0.2558325529098511
1783002755960662000,1.019662109375,-0.2404169738292694,0.15074856579303741,0.06130141764879227
1783002755970712800,1.029712890625,-0.21653060615062714,0.2595054805278778,-0.06957751512527466
1783002755980765000,1.039764892578125,-0.20214366912841797,0.3223331868648529,-0.12117839604616165
1783002755990816000,1.04981591796875,-0.17743569612503052,0.34948280453681946,-0.11402133852243423
1783002756000868000,1.0598681640625,-0.14510785043239594,0.3985350430011749,-0.0785733312368393
1783002756010919200,1.069919189453125,-0.1082167699933052,0.48990580439567566,-0.04542715102434158
1783002756020971000,1.079970947265625,-0.0683460533618927,0.5882949829101562,-0.029504910111427307
1783002756031022000,1.09002197265625,-0.04082668572664261,0.6148055791854858,-0.018011528998613358
1783002756041074000,1.100073974609375,-0.021324092522263527,0.5800257325172424,-0.014845562167465687
1783002756051125000,1.110125,-0.020943688228726387,0.5574296712875366,0.0025291545316576958
1783002756061177000,1.120177001953125,-0.03288956359028816,0.4863954782485962,0.027933845296502113
1783002756071228000,1.130227783203125,-0.04862160608172417,0.3687170147895813,0.0199859868735075
1783002756081280000,1.140280029296875,-0.047949690371751785,0.24207013845443726,-0.003923340700566769
1783002756091331000,1.1503310546875,-0.037918537855148315,0.15794235467910767,-0.034925784915685654
1783002756101383000,1.1603828125,-0.030282454565167427,0.10235712677240372,-0.059066008776426315
1783002756111434000,1.17043408203125,-0.025709522888064384,0.02878223918378353,-0.07129829376935959
1783002756121485800,1.18048583984375,-0.017038535326719284,-0.07160987704992294,-0.07772316783666611
1783002756131537000,1.190536865234375,-0.022246815264225006,-0.15620175004005432,-0.08592786639928818
1783002756141589000,1.200589111328125,-0.04554707929491997,-0.23598553240299225,-0.10554151982069016
1783002756151640000,1.21064013671875,-0.07855357974767685,-0.33892279863357544,-0.15557338297367096
1783002756161692000,1.22069189453125,-0.10944890975952148,-0.40143120288848877,-0.21395759284496307
1783002756171743000,1.230742919921875,-0.12681598961353302,-0.3778538405895233,-0.29346364736557007
1783002756181794800,1.240794921875,-0.13426457345485687,-0.2991049587726593,-0.3834550678730011
1783002756191846000,1.250845947265625,-0.14006653428077698,-0.2023584395647049,-0.4394492208957672
1783002756201898000,1.26089794921875,-0.15267235040664673,-0.09444555640220642,-0.44603946805000305
1783002756211948800,1.27094873046875,-0.16011090576648712,0.016648758202791214,-0.4114086329936981
1783002756222001200,1.281001220703125,-0.16678158938884735,0.1502973735332489,-0.3594178557395935
1783002756232052000,1.291052001953125,-0.17525623738765717,0.28097066283226013,-0.2963096499443054
1783002756242104000,1.30110400390625,-0.19138062000274658,0.3673289716243744,-0.2275923788547516
1783002756252155100,1.311155029296875,-0.20379595458507538,0.36775848269462585,-0.16333965957164764
1783002756262207000,1.32120703125,-0.205951526761055,0.3293229639530182,-0.11539210379123688
1783002756272255500,1.33125537109375,-0.209490105509758,0.2630627751350403,-0.0862368568778038
1783002756282307300,1.341307373046875,-0.21594588458538055,0.17872045934200287,-0.07049091160297394
1783002756292358400,1.3513583984375,-0.22522367537021637,0.10270657390356064,-0.05042097717523575
1783002756302410200,1.36141015625,-0.21856790781021118,0.04578257352113724,-0.02679021842777729
1783002756312461300,1.37146142578125,-0.20020484924316406,0.007824201136827469,0.0035699009895324707
1783002756322513400,1.381513427734375,-0.17398816347122192,0.010253271088004112,0.03987091779708862
1783002756332564500,1.391564453125,-0.13650138676166534,0.062428202480077744,0.09449777007102966
1783002756342616300,1.4016162109375,-0.11212441325187683,0.11326102912425995,0.17142504453659058
1783002756352667400,1.41166748046875,-0.09675818681716919,0.12289199233055115,0.2643246352672577
1783002756362719200,1.42171923828125,-0.09110269695520401,0.10174862295389175,0.3623225688934326
1783002756372770300,1.431770263671875,-0.07664842903614044,0.06860434263944626,0.436969518661499
1783002756382822400,1.441822509765625,-0.057949043810367584,0.03800302743911743,0.4748910665512085
1783002756392873200,1.451873291015625,-0.04769375920295715,0.0339459627866745,0.4669773280620575
1783002756402925600,1.461925537109375,-0.03451750427484512,0.03449670225381851,0.44519081711769104
1783002756412976400,1.471976318359375,-0.019939720630645752,0.014879148453474045,0.4167245030403137
1783002756423028500,1.482028564453125,-0.007983459159731865,-0.01583588682115078,0.3765659034252167
1783002756433079600,1.49207958984375,-0.011638697236776352,-0.030799895524978638,0.32339686155319214
1783002756443131400,1.50213134765625,-0.02559233084321022,-0.057792097330093384,0.2742924392223358
1783002756453182500,1.512182373046875,-0.03666294738650322,-0.10505665838718414,0.23256295919418335
1783002756463234300,1.522234375,-0.04778856784105301,-0.13644148409366608,0.19705823063850403
1783002756473285400,1.532285400390625,-0.06735752522945404,-0.1375916749238968,0.1722707897424698
1783002756483337500,1.54233740234375,-0.07994841784238815,-0.10187229514122009,0.1822456568479538
1783002756493388300,1.55238818359375,-0.09185241907835007,-0.0338493250310421,0.21630771458148956
1783002756503440400,1.5624404296875,-0.09343619644641876,0.03455742821097374,0.24346503615379333
1783002756513491500,1.572491455078125,-0.13276974856853485,0.03882564231753349,0.26580190658569336
1783002756523543300,1.582543212890625,-0.14521923661231995,-0.031131340190768242,0.2438521385192871
1783002756533594400,1.592594482421875,-0.15958617627620697,-0.08986598998308182,0.1370949149131775
1783002756543646200,1.602646240234375,-0.1965937316417694,-0.13375647366046906,-0.08700236678123474
1783002756553697300,1.612697265625,-0.20824362337589264,-0.19822777807712555,-0.3635813593864441
1783002756563749400,1.622749267578125,-0.2064739465713501,-0.2329237014055252,-0.6245373487472534
1783002756573800400,1.632800537109375,-0.21185310184955597,-0.24194583296775818,-0.8344762921333313
1783002756583852300,1.642852294921875,-0.22857588529586792,-0.24946899712085724,-0.9498806595802307
1783002756593903400,1.6529033203125,-0.23668043315410614,-0.27799898386001587,-0.9660676717758179
1783002756603955500,1.66295556640625,-0.2294270396232605,-0.32572174072265625,-0.8832854628562927
1783002756614006300,1.67300634765625,-0.22792498767375946,-0.3743361532688141,-0.716713547706604
1783002756624058400,1.683058349609375,-0.24482114613056183,-0.41474056243896484,-0.46895918250083923
1783002756634109400,1.693109375,-0.26497355103492737,-0.45515698194503784,-0.17245987057685852
1783002756644161500,1.70316162109375,-0.26519086956977844,-0.48932772874832153,0.13210588693618774
1783002756654212400,1.71321240234375,-0.2530907094478607,-0.499249666929245,0.42124685645103455
1783002756664264400,1.723264404296875,-0.24004629254341125,-0.4514238238334656,0.6564692258834839
1783002756674315500,1.7333154296875,-0.2224833071231842,-0.3393087089061737,0.8276128172874451
1783002756684367400,1.743367431640625,-0.20859572291374207,-0.19559067487716675,0.9285354614257812
1783002756694418400,1.75341845703125,-0.208078995347023,-0.0846802294254303,0.9981171488761902
1783002756704470300,1.76347021484375,-0.20721666514873505,-0.00478193536400795,1.0229259729385376
1783002756714521300,1.773521240234375,-0.20593082904815674,0.06935085356235504,0.9830816984176636
1783002756724573400,1.783573486328125,-0.20377285778522491,0.1017649918794632,0.8857088088989258
1783002756734624500,1.79362451171875,-0.18538732826709747,0.0772954449057579,0.7344285249710083
1783002756744676400,1.80367626953125,-0.14665459096431732,0.026024270802736282,0.5365996360778809
1783002756754727400,1.8137275390625,-0.11579813808202744,0.0428495891392231,0.32051342725753784
1783002756764779300,1.823779296875,-0.10149243474006653,0.09721296280622482,0.12331113964319229
1783002756774830300,1.833830322265625,-0.07882940769195557,0.17235638201236725,-0.02893633209168911
1783002756784882400,1.84388232421875,-0.053662531077861786,0.2725849747657776,-0.13957363367080688
1783002756794933200,1.853933349609375,-0.016808485612273216,0.35013347864151,-0.23260821402072906
1783002756804985300,1.8639853515625,0.019496526569128036,0.396344393491745,-0.2989339828491211
1783002756815036400,1.874036376953125,0.06209196895360947,0.4161086678504944,-0.32236701250076294
1783002756825088500,1.884088623046875,0.10595476627349854,0.393611341714859,-0.30725860595703125
1783002756835139600,1.8941396484375,0.14638827741146088,0.31501656770706177,-0.2709451913833618
1783002756845191400,1.90419140625,0.1663806289434433,0.1919761300086975,-0.23247236013412476
1783002756855242500,1.914242431640625,0.18030038475990295,0.06147654354572296,-0.19327518343925476
1783002756865294300,1.92429443359375,0.1685158908367157,-0.059399813413619995,-0.13393037021160126
1783002756875345400,1.934345458984375,0.1693059802055359,-0.1550799459218979,-0.04139111191034317
1783002756885397500,1.9443974609375,0.1704721748828888,-0.16183584928512573,0.09170196205377579
1783002756895448300,1.9544482421875,0.15779690444469452,-0.11869053542613983,0.23474733531475067
1783002756905500400,1.96450048828125,0.15407034754753113,-0.07791461050510406,0.3494901657104492
1783002756915551500,1.974551513671875,0.17606821656227112,-0.022773168981075287,0.40519896149635315
1783002756925603300,1.984603271484375,0.20122230052947998,0.06724327057600021,0.4144417345523834
1783002756935654400,1.994654296875,0.2106098234653473,0.1757487803697586,0.3974006175994873
1783002756945706200,2.004706298828125,0.22559835016727448,0.26049935817718506,0.363575279712677
1783002756955757300,2.01475732421875,0.25034603476524353,0.3272663950920105,0.28613999485969543
1783002756965809400,2.024809326171875,0.2633126974105835,0.32106390595436096,0.1774611920118332
1783002756975860500,2.034860595703125,0.2621150314807892,0.2704510986804962,0.047045689076185226
1783002756985912300,2.044912353515625,0.2709716260433197,0.29095080494880676,-0.07846775650978088
1783002756995963400,2.05496337890625,0.2752952575683594,0.33500564098358154,-0.19403301179409027
1783002757006015200,2.06501513671875,0.25758737325668335,0.34221401810646057,-0.26915013790130615
1783002757016066300,2.07506640625,0.2277938723564148,0.3356989920139313,-0.2904917895793915
1783002757026118400,2.085118408203125,0.19902294874191284,0.36298811435699463,-0.24866792559623718
1783002757036169200,2.095169189453125,0.18197636306285858,0.38099488615989685,-0.1649772971868515
1783002757046221600,2.1052216796875,0.17215275764465332,0.3592424690723419,-0.04706158488988876
1783002757056272400,2.1152724609375,0.16693970561027527,0.31225988268852234,0.07479661703109741
1783002757066324500,2.125324462890625,0.1612895429134369,0.23264573514461517,0.18579211831092834
1783002757076375600,2.13537548828125,0.15793950855731964,0.13502661883831024,0.284957617521286
1783002757086427400,2.145427490234375,0.1441483348608017,0.03235296159982681,0.3511291742324829
1783002757096478500,2.155478515625,0.11583255231380463,-0.0646439641714096,0.3513014018535614
1783002757106530300,2.1655302734375,0.08475186675786972,-0.1490645706653595,0.27953481674194336
1783002757116581400,2.175581298828125,0.057758115231990814,-0.21471817791461945,0.1618918776512146
1783002757126633500,2.185633544921875,0.04034237191081047,-0.24704068899154663,0.03845089673995972
1783002757136684500,2.1956845703125,0.03652606159448624,-0.2546219229698181,-0.061384618282318115
1783002757146736400,2.205736328125,0.04651318117976189,-0.19615140557289124,-0.1101316511631012
1783002757156787500,2.215787353515625,0.05323608219623566,-0.09154035151004791,-0.11835864931344986
1783002757166839300,2.22583935546875,0.05470854416489601,-0.013690827414393425,-0.09683284908533096
1783002757176890400,2.235890380859375,0.052670255303382874,0.019788749516010284,-0.06320372968912125
1783002757186942500,2.2459423828125,0.04673699662089348,0.024595752358436584,-0.035209111869335175
1783002757196993300,2.2559931640625,0.040078453719615936,-0.03932371735572815,-0.029052777215838432
1783002757207045400,2.26604541015625,0.023514922708272934,-0.10949402302503586,-0.032911963760852814
1783002757217096400,2.276096435546875,0.0148050207644701,-0.14569996297359467,-0.03181104734539986
1783002757227148300,2.286148193359375,0.030790379270911217,-0.15311607718467712,-0.02467404305934906
1783002757237199400,2.296199462890625,0.09399842470884323,-0.0923488512635231,-0.02330605685710907
1783002757247251500,2.30625146484375,0.14975009858608246,-0.014815175905823708,-0.0029938602820038795
1783002757257302300,2.31630224609375,0.16334359347820282,0.03786091133952141,0.05956443026661873
1783002757267354400,2.326354248046875,0.14833055436611176,0.04754256829619408,0.15294843912124634
1783002757277404400,2.336404296875,0.13264869153499603,-0.015958067029714584,0.24292728304862976
1783002757287456500,2.34645654296875,0.10798116028308868,-0.1128406748175621,0.3019048571586609
1783002757297507300,2.35650732421875,0.09707966446876526,-0.21060389280319214,0.3078805208206177
1783002757307559400,2.366559326171875,0.0899123027920723,-0.25421661138534546,0.27270230650901794
1783002757317610500,2.376610595703125,0.06919560581445694,-0.26222947239875793,0.21902163326740265
1783002757327662600,2.38666259765625,0.04416535794734955,-0.24763937294483185,0.19202330708503723
1783002757337713400,2.39671337890625,0.02031012251973152,-0.2438678741455078,0.2093629688024521
1783002757347765500,2.406765625,0.019770298153162003,-0.20593567192554474,0.2568087875843048
1783002757357816600,2.416816650390625,0.006597551051527262,-0.1930588185787201,0.32940998673439026
1783002757367868400,2.426868408203125,-0.0032588080503046513,-0.25635549426078796,0.39490535855293274
1783002757377920500,2.43692041015625,0.002033223630860448,-0.3369728624820709,0.3704149127006531
1783002757387971300,2.446971435546875,0.008791526779532433,-0.3932524025440216,0.22774402797222137
1783002757398023400,2.4570234375,0.013405406847596169,-0.42206457257270813,0.002872224897146225
1783002757408074500,2.467074462890625,0.00015964265912771225,-0.3917039930820465,-0.27074679732322693
1783002757418126300,2.477126220703125,-0.01730738952755928,-0.30003252625465393,-0.548836350440979
1783002757428177400,2.487177490234375,-0.0360371358692646,-0.12466736137866974,-0.7910932302474976
1783002757438229200,2.497229248046875,-0.07342655211687088,0.07746787369251251,-0.9447585344314575
1783002757448280300,2.5072802734375,-0.11005673557519913,0.2375294417142868,-0.9490967988967896
1783002757458332400,2.51733251953125,-0.12041693180799484,0.32277193665504456,-0.7889328598976135
1783002757468383200,2.52738330078125,-0.12344387918710709,0.3339308500289917,-0.4897318184375763
1783002757478435300,2.537435302734375,-0.12329278886318207,0.269320011138916,-0.12048432976007462
1783002757488486400,2.547486328125,-0.11735500395298004,0.19196796417236328,0.2463618516921997
1783002757498538500,2.55753857421875,-0.11029890179634094,0.11014225333929062,0.564248263835907
1783002757508589600,2.567589599609375,-0.1254485547542572,0.011903834529221058,0.7897799015045166
1783002757518641400,2.577641357421875,-0.15074928104877472,-0.10834220796823502,0.9097522497177124
1783002757528692500,2.5876923828125,-0.1688731610774994,-0.22661663591861725,0.929523229598999
1783002757538744600,2.59774462890625,-0.1744491010904312,-0.3198181390762329,0.8702813386917114
1783002757548795400,2.60779541015625,-0.16073542833328247,-0.3188604712486267,0.7338201999664307
1783002757558847500,2.617847412109375,-0.13056333363056183,-0.2319519817829132,0.5200147032737732
1783002757568898600,2.627898681640625,-0.1050310730934143,-0.12741172313690186,0.25170469284057617
1783002757578950400,2.637950439453125,-0.10324397683143616,-0.013402760960161686,-0.05462755262851715
1783002757589001500,2.64800146484375,-0.09724893420934677,0.11429981142282486,-0.343812495470047
1783002757599053300,2.65805322265625,-0.0920683965086937,0.24218891561031342,-0.5695011615753174
1783002757609104400,2.6681044921875,-0.08476600795984268,0.3731743395328522,-0.7233383655548096
1783002757619156500,2.678156494140625,-0.0761885792016983,0.45541495084762573,-0.808648943901062
1783002757629207300,2.688207275390625,-0.07631507515907288,0.42332813143730164,-0.8057426810264587
1783002757639259400,2.69825927734375,-0.09568381309509277,0.3062729835510254,-0.7104707956314087
1783002757649310500,2.708310546875,-0.10880840569734573,0.15537559986114502,-0.530292809009552
1783002757659362300,2.7183623046875,-0.11021944135427475,0.01868578791618347,-0.30966100096702576
1783002757669413400,2.728413330078125,-0.08777165412902832,-0.08591918647289276,-0.07555823028087616
1783002757679465200,2.73846533203125,-0.055817682296037674,-0.1527262032032013,0.13959528505802155
1783002757689516300,2.748516357421875,-0.03593318909406662,-0.16124805808067322,0.30787912011146545
1783002757699568400,2.758568359375,-0.02213497832417488,-0.15233241021633148,0.41223955154418945
1783002757709619200,2.768619140625,-0.025881513953208923,-0.14181531965732574,0.46463724970817566
1783002757719671600,2.778671630859375,-0.03451007604598999,-0.12062308192253113,0.451978474855423
1783002757729722600,2.78872265625,-0.033038679510354996,-0.07996992766857147,0.3916911780834198
1783002757739774500,2.7987744140625,-0.02786032296717167,-0.03938107192516327,0.2673482596874237
1783002757749825500,2.808825439453125,-0.015863314270973206,0.02925790846347809,0.10572528839111328
1783002757759877400,2.81887744140625,-0.025277916342020035,0.10216043889522552,-0.05158684775233269
1783002757769928400,2.828928466796875,-0.04179084673523903,0.18292292952537537,-0.18631324172019958
1783002757779980500,2.83898046875,-0.049509815871715546,0.28807950019836426,-0.2791881561279297
1783002757790031400,2.84903125,-0.06261922419071198,0.34910210967063904,-0.33045694231987
1783002757800083500,2.85908349609375,-0.0798918828368187,0.32215216755867004,-0.3483622968196869
1783002757810134500,2.869134521484375,-0.09749617427587509,0.23814113438129425,-0.3366886079311371
1783002757820186400,2.879186279296875,-0.10646127164363861,0.1475626826286316,-0.308921217918396
1783002757830237400,2.889237548828125,-0.10977743566036224,0.12149138748645782,-0.2689226567745209
1783002757840289300,2.899289306640625,-0.11134899407625198,0.1763242781162262,-0.23387552797794342
1783002757850340400,2.90934033203125,-0.12046313285827637,0.2332533299922943,-0.215340718626976
1783002757860392400,2.919392333984375,-0.117009736597538,0.2505589723587036,-0.22530381381511688
1783002757870443300,2.929443359375,-0.10860878974199295,0.23446467518806458,-0.2648370862007141
1783002757880495400,2.939495361328125,-0.09688741713762283,0.22048844397068024,-0.3126327693462372
1783002757890546400,2.94954638671875,-0.07554750889539719,0.20620033144950867,-0.32289552688598633
1783002757900598300,2.959598388671875,-0.0488085113465786,0.23744842410087585,-0.29115167260169983
1783002757910649300,2.9696494140625,-0.026762600988149643,0.26371997594833374,-0.23370490968227386
1783002757920701400,2.979701416015625,0.00511315418407321,0.25894829630851746,-0.15370281040668488
1783002757930752500,2.98975244140625,0.041873298585414886,0.20881429314613342,-0.0649135559797287
1783002757940804600,2.9998046875,0.06789304316043854,0.14676466584205627,0.04297614097595215
1783002757950855400,3.00985546875,0.10164354741573334,0.10746359080076218,0.14933747053146362
1783002757960907500,3.019907470703125,0.13943836092948914,0.10205654799938202,0.20672479271888733
1783002757970958600,3.02995849609375,0.1615428626537323,0.11028038710355759,0.19775712490081787
1783002757981010400,3.040010498046875,0.18835365772247314,0.10901647806167603,0.14834314584732056
1783002757991061500,3.0500615234375,0.20482957363128662,0.09586764872074127,0.06978043913841248
1783002758001113300,3.06011328125,0.21496224403381348,0.05727647244930267,-0.04114088788628578
1783002758011164400,3.070164306640625,0.2158123254776001,0.0039008655585348606,-0.1578081101179123
1783002758021216500,3.080216552734375,0.21622328460216522,0.004081064835190773,-0.27439266443252563
1783002758031267300,3.090267333984375,0.19153045117855072,0.028965909034013748,-0.3438071608543396
1783002758041319400,3.1003193359375,0.17206799983978271,0.045525796711444855,-0.3590821325778961
1783002758051370500,3.11037060546875,0.15290789306163788,0.031813714653253555,-0.32982224225997925
1783002758061422300,3.12042236328125,0.13950125873088837,0.016761528328061104,-0.2801065146923065
1783002758071473400,3.130473388671875,0.1353139728307724,0.04912319779396057,-0.20541790127754211
1783002758081525200,3.140525146484375,0.12009721249341965,0.09657113999128342,-0.13127107918262482
1783002758091576300,3.150576416015625,0.10351690649986267,0.11357222497463226,-0.08080285042524338
1783002758101628400,3.16062841796875,0.07880675047636032,0.0993211567401886,-0.06010453775525093
1783002758111679200,3.17067919921875,0.052428409457206726,0.08160793781280518,-0.055129218846559525
1783002758121731300,3.1807314453125,0.03304501250386238,0.061309441924095154,-0.03799506649374962
1783002758131782400,3.190782470703125,0.025190819054841995,0.0493055135011673,0.011857443489134312
1783002758141834500,3.20083447265625,0.026480291038751602,0.0386614166200161,0.08179132640361786
1783002758151885600,3.210885498046875,0.0394541472196579,0.02109653875231743,0.15113578736782074
1783002758161937400,3.2209375,0.05336814373731613,0.015578405931591988,0.21494430303573608
1783002758171988500,3.230988525390625,0.06057598814368248,0.006972135044634342,0.2817174792289734
1783002758182040600,3.24104052734375,0.07365716993808746,-0.02311542071402073,0.33540078997612
1783002758192091400,3.25109130859375,0.11541952937841415,-0.004605919122695923,0.3669198155403137
1783002758202143500,3.2611435546875,0.13690032064914703,0.09418639540672302,0.36112815141677856
1783002758212194600,3.271194580078125,0.13647688925266266,0.1294940561056137,0.33379772305488586
1783002758222246400,3.281246337890625,0.17498984932899475,0.10029388219118118,0.24011316895484924
1783002758232297500,3.29129736328125,0.20134341716766357,0.14267942309379578,0.028928758576512337
1783002758242349300,3.301349365234375,0.20462940633296967,0.2142387181520462,-0.2822229862213135
1783002758252400400,3.311400390625,0.21773694455623627,0.269076943397522,-0.6355664134025574
1783002758262452500,3.321452392578125,0.22136721014976501,0.33237797021865845,-0.9682180881500244
1783002758272503300,3.33150341796875,0.21983109414577484,0.400522381067276,-1.1966139078140259
1783002758282555400,3.341555419921875,0.21396681666374207,0.41924920678138733,-1.2875912189483643
1783002758292606500,3.3516064453125,0.21275028586387634,0.36218884587287903,-1.1859279870986938
1783002758302658300,3.361658203125,0.20511609315872192,0.3091655671596527,-0.8656140565872192
1783002758312709400,3.37170947265625,0.17313498258590698,0.2661523222923279,-0.38458487391471863
1783002758322761200,3.38176123046875,0.16087499260902405,0.2006954401731491,0.17403419315814972
1783002758332812300,3.391812255859375,0.1969858556985855,0.19164788722991943,0.7002335786819458
1783002758342864600,3.40186474609375,0.26933759450912476,0.2541983127593994,1.0991312265396118
1783002758352915200,3.411915283203125,0.3496611714363098,0.34329676628112793,1.3644510507583618
1783002758362967600,3.421967529296875,0.41186070442199707,0.42539021372795105,1.4897615909576416
1783002758373018600,3.4320185546875,0.4364318251609802,0.5005014538764954,1.4872742891311646
1783002758383070500,3.442070556640625,0.4538799524307251,0.5553440451622009,1.3781007528305054
1783002758393121500,3.45212158203125,0.47254180908203125,0.6169799566268921,1.1821129322052002
1783002758403173400,3.46217333984375,0.48516735434532166,0.674948513507843,0.9326861500740051
1783002758413224400,3.472224365234375,0.48235583305358887,0.6836186647415161,0.6527383923530579
1783002758423276500,3.482276611328125,0.46486130356788635,0.6631232500076294,0.37594783306121826
1783002758433327400,3.492327392578125,0.4707074761390686,0.5774924755096436,0.1615026593208313
1783002758443379500,3.50237939453125,0.48073360323905945,0.4399680197238922,0.01428244635462761
1783002758453430500,3.512430419921875,0.4833917021751404,0.3206690549850464,-0.09124664217233658
1783002758463482400,3.522482421875,0.4704231023788452,0.23637770116329193,-0.20335225760936737
1783002758473533400,3.532533447265625,0.4573448598384857,0.1468385010957718,-0.31872865557670593
1783002758483585300,3.542585205078125,0.45510831475257874,0.06266474723815918,-0.4221400320529938
1783002758493636400,3.55263623046875,0.4608394205570221,0.013588548637926579,-0.4765132665634155
1783002758503688400,3.5626884765625,0.45343315601348877,0.007802359759807587,-0.46851789951324463
1783002758513739300,3.5727392578125,0.4307379424571991,-0.012567359954118729,-0.3981585204601288
1783002758523791400,3.582791259765625,0.39976561069488525,-0.07887977361679077,-0.28747719526290894
1783002758533842400,3.592842529296875,0.36359190940856934,-0.16443249583244324,-0.15993015468120575
1783002758543894300,3.602894287109375,0.3255777657032013,-0.23297753930091858,-0.028605489060282707
1783002758553945300,3.6129453125,0.28437334299087524,-0.25918838381767273,0.10387904942035675
1783002758563997400,3.62299755859375,0.2563353478908539,-0.23905889689922333,0.19740334153175354
1783002758574048300,3.63304833984375,0.21268241107463837,-0.21513599157333374,0.2497357875108719
1783002758584100600,3.6431005859375,0.171335369348526,-0.18085883557796478,0.31215280294418335
1783002758594151400,3.6531513671875,0.1427157074213028,-0.2050991952419281,0.39963284134864807
1783002758604203500,3.66320361328125,0.10534735769033432,-0.18903852999210358,0.4903556704521179
1783002758614255400,3.67325537109375,0.0703214630484581,-0.08291075378656387,0.5158442258834839
1783002758624306400,3.683306396484375,0.03592108562588692,0.019241198897361755,0.45750829577445984
1783002758634358500,3.693358642578125,0.0053360117599368095,0.036745354533195496,0.3461463451385498
1783002758644409300,3.703409423828125,-0.016393156722187996,0.008095514960587025,0.21449889242649078
1783002758654461400,3.71346142578125,-0.03279823064804077,-0.004168874118477106,0.0737668052315712
1783002758664512500,3.723512451171875,-0.049868591129779816,0.027381662279367447,-0.052409857511520386
1783002758674564400,3.733564453125,-0.06904920935630798,0.07524292916059494,-0.16680434346199036
1783002758684615400,3.743615478515625,-0.07914794236421585,0.12371249496936798,-0.24404872953891754
1783002758694667300,3.753667236328125,-0.09073802083730698,0.15681664645671844,-0.2824786901473999
1783002758704718300,3.76371826171875,-0.11153706163167953,0.1490362137556076,-0.29038041830062866
1783002758714770400,3.7737705078125,-0.13050143420696259,0.12315402179956436,-0.26257357001304626
1783002758724821200,3.7838212890625,-0.14270778000354767,0.09519325941801071,-0.20651912689208984
1783002758734873300,3.793873291015625,-0.16057145595550537,0.06845885515213013,-0.1491338610649109
1783002758744924400,3.80392431640625,-0.1783679872751236,-0.0038649779744446278,-0.09947600960731506
1783002758754976500,3.8139765625,-0.18675054609775543,-0.07635915279388428,-0.059351496398448944
1783002758765027300,3.82402734375,-0.18014663457870483,-0.1153995543718338,-0.022800402715802193
1783002758775079400,3.834079345703125,-0.1754874289035797,-0.1271078735589981,0.019004832953214645
1783002758785130500,3.844130615234375,-0.1792188584804535,-0.13817454874515533,0.0642714872956276
1783002758795182600,3.8541826171875,-0.19529955089092255,-0.13879533112049103,0.07794228941202164
1783002758805233400,3.8642333984375,-0.20178921520709991,-0.12894293665885925,0.07283198088407516
1783002758815285500,3.874285400390625,-0.21322402358055115,-0.14263798296451569,0.04586907848715782
1783002758825336600,3.884336669921875,-0.22285093367099762,-0.16277877986431122,0.01640653982758522
1783002758835388400,3.894388427734375,-0.23627886176109314,-0.1861184537410736,-0.0005324953235685825
1783002758845439500,3.904439453125,-0.24911457300186157,-0.2134687900543213,-0.0034622480161488056
1783002758855491300,3.9144912109375,-0.27384495735168457,-0.25390756130218506,-0.00595709728077054
1783002758865542400,3.92454248046875,-0.29384738206863403,-0.31476348638534546,-0.005773295182734728
1783002758875594500,3.934594482421875,-0.3012365996837616,-0.3580009937286377,0.015437982976436615
1783002758885645300,3.944645263671875,-0.31194570660591125,-0.3480455279350281,0.08802281320095062
1783002758895697400,3.954697509765625,-0.32151949405670166,-0.3085811734199524,0.1759508103132248
1783002758905748500,3.96474853515625,-0.339219868183136,-0.2736789882183075,0.24921241402626038
1783002758915800300,3.97480029296875,-0.3444836139678955,-0.2565918564796448,0.2741963267326355
1783002758925851400,3.984851318359375,-0.33771347999572754,-0.25836724042892456,0.2697771489620209
1783002758935903200,3.9949033203125,-0.3398362696170807,-0.2762911319732666,0.2391931414604187
1783002758945954300,4.004954345703125,-0.3535861074924469,-0.32656922936439514,0.16615337133407593
1783002758956006400,4.01500634765625,-0.3679666519165039,-0.43071773648262024,0.07411692291498184
1783002758966057200,4.02505712890625,-0.37300607562065125,-0.5141589045524597,-0.015967752784490585
1783002758976109600,4.035109619140625,-0.3734864890575409,-0.5209798216819763,-0.08624032139778137
1783002758986160400,4.045160400390625,-0.3949582278728485,-0.5257143974304199,-0.13354003429412842
1783002758996212500,4.05521240234375,-0.40389394760131836,-0.5296377539634705,-0.14167280495166779
1783002759006263600,4.065263671875,-0.4065799415111542,-0.5098364353179932,-0.12034079432487488
1783002759016315400,4.0753154296875,-0.39451876282691956,-0.48443248867988586,-0.08778631687164307
1783002759026366500,4.085366455078125,-0.38077905774116516,-0.47628054022789,-0.039688680320978165
1783002759036418600,4.09541845703125,-0.38135483860969543,-0.455690860748291,0.031917598098516464
1783002759046469400,4.105469482421875,-0.3934459686279297,-0.437503457069397,0.11365599185228348
1783002759056521500,4.115521484375,-0.3677070438861847,-0.4468514025211334,0.2045866996049881
1783002759066572500,4.125572509765625,-0.32499948143959045,-0.42594459652900696,0.32053643465042114
1783002759076624400,4.135624267578125,-0.30333971977233887,-0.4586580693721771,0.46768221259117126
1783002759086675500,4.145675537109375,-0.2634618580341339,-0.6780513525009155,0.5679284334182739
1783002759096727300,4.155727294921875,-0.20352955162525177,-0.9612295031547546,0.5500503778457642
1783002759106778400,4.1657783203125,-0.14161279797554016,-1.1406335830688477,0.37369346618652344
1783002759116830500,4.17583056640625,-0.07222387194633484,-1.1818605661392212,0.06103994697332382
1783002759126881300,4.18588134765625,-0.02787603624165058,-1.0287669897079468,-0.3649705946445465
1783002759136933400,4.195933349609375,-0.020631970837712288,-0.7728734016418457,-0.7875489592552185
1783002759146984400,4.205984375,-0.03644677996635437,-0.4125741422176361,-1.1179934740066528
1783002759157036300,4.216036376953125,-0.08065658062696457,-0.08352646976709366,-1.2857667207717896
1783002759167087400,4.22608740234375,-0.1572602242231369,0.12356775254011154,-1.2752456665039062
1783002759177139200,4.23613916015625,-0.24602684378623962,0.2661949396133423,-1.0782750844955444
1783002759187190300,4.246190185546875,-0.3334519565105438,0.3026386797428131,-0.744322657585144
1783002759197242600,4.25624267578125,-0.405313104391098,0.1945127546787262,-0.36526164412498474
1783002759207293400,4.26629345703125,-0.4604283273220062,0.028156515210866928,-0.00516464002430439
1783002759217345500,4.276345458984375,-0.4861376881599426,-0.10952357947826385,0.302670955657959
1783002759227396600,4.286396728515625,-0.5140479803085327,-0.1901613473892212,0.5576930642127991
1783002759237448400,4.296448486328125,-0.542263925075531,-0.2516436278820038,0.7850343585014343
1783002759247499500,4.30649951171875,-0.5623661279678345,-0.309426873922348,0.9536305069923401
1783002759257551400,4.31655126953125,-0.5661110877990723,-0.33673200011253357,1.0134629011154175
1783002759267602400,4.3266025390625,-0.544580340385437,-0.35613778233528137,0.9868919253349304
1783002759277654800,4.33665478515625,-0.5112732648849487,-0.40549254417419434,0.9097406268119812
1783002759287705600,4.34670556640625,-0.5055304169654846,-0.4408875107765198,0.7868512272834778
1783002759297758000,4.356758056640625,-0.5107874870300293,-0.4403730034828186,0.6209362745285034
1783002759307808800,4.366808837890625,-0.5100865364074707,-0.4152916967868805,0.42673084139823914
1783002759317860900,4.37686083984375,-0.5216755270957947,-0.36872926354408264,0.24234367907047272
1783002759327912000,4.386911865234375,-0.5420001149177551,-0.24318206310272217,0.09037303924560547
1783002759337963800,4.3969638671875,-0.5580437779426575,-0.09922303259372711,-0.012495025992393494
1783002759348014800,4.407014892578125,-0.562586784362793,-0.029069896787405014,-0.06916593760251999
1783002759358066700,4.417066650390625,-0.5508105158805847,-0.023060739040374756,-0.10712050646543503
1783002759368117800,4.42711767578125,-0.5208372473716736,-0.031294941902160645,-0.13294366002082825
1783002759378169900,4.437169921875,-0.49329668283462524,-0.02826959267258644,-0.1437169462442398
1783002759388220700,4.447220703125,-0.46523818373680115,-0.018837174400687218,-0.13719409704208374
1783002759398272800,4.457272705078125,-0.4310072362422943,-0.009977636858820915,-0.12345805764198303
1783002759408323800,4.46732373046875,-0.4060932695865631,0.0074047208763659,-0.09115949273109436
1783002759418375700,4.477375732421875,-0.38415786623954773,0.017781727015972137,-0.02810249663889408
1783002759428426800,4.4874267578125,-0.3556075096130371,0.02359706535935402,0.05283697322010994
1783002759438478600,4.497478515625,-0.3082549571990967,0.045774538069963455,0.14660874009132385
1783002759448529700,4.50752978515625,-0.2668434679508209,0.04032372683286667,0.23394399881362915
1783002759458581800,4.517581787109375,-0.22608380019664764,0.004329774063080549,0.29690271615982056
1783002759468632600,4.527632568359375,-0.17871323227882385,-0.01812448725104332,0.3037629723548889
1783002759478684700,4.5376845703125,-0.14007316529750824,-0.030749201774597168,0.2772386968135834
1783002759488735700,4.54773583984375,-0.10540049523115158,-0.04644658416509628,0.22704283893108368
1783002759498787800,4.557787841796875,-0.0682041272521019,-0.06867918372154236,0.1723977029323578
1783002759508838700,4.567838623046875,-0.03749316930770874,-0.0880187377333641,0.11669474840164185
1783002759518890800,4.577890869140625,-0.021919000893831253,-0.09641861170530319,0.07431933283805847
1783002759528941800,4.58794189453125,-0.008816419169306755,-0.11053691804409027,0.039743561297655106
1783002759538994000,4.597993896484375,-0.0032900935038924217,-0.13052873313426971,0.01944708079099655
1783002759549044700,4.608044677734375,0.002372337505221367,-0.12654703855514526,-0.005519106984138489
1783002759559096800,4.618096923828125,0.012132024392485619,-0.09981796145439148,-0.04342148080468178
1783002759569148000,4.62814794921875,0.033002279698848724,-0.07772023230791092,-0.10341347008943558
1783002759579199700,4.63819970703125,0.07272651791572571,-0.01436176523566246,-0.16677886247634888
1783002759589250800,4.648250732421875,0.11383561044931412,0.03833899646997452,-0.23618856072425842
1783002759599302700,4.658302734375,0.12649548053741455,0.047342877835035324,-0.30562248826026917
1783002759609353700,4.668353759765625,0.11759805679321289,0.03602294251322746,-0.3709229528903961
1783002759619405800,4.67840576171875,0.1133497804403305,0.011363934725522995,-0.41897568106651306
1783002759629456600,4.68845654296875,0.104970283806324,-0.01310933381319046,-0.46225789189338684
1783002759639508700,4.6985087890625,0.08924432098865509,-0.0404093973338604,-0.4857032895088196
1783002759649559800,4.708559814453125,0.09150213748216629,-0.017874065786600113,-0.4589217007160187
1783002759659611600,4.718611572265625,0.09975660592317581,0.08142562955617905,-0.3890073299407959
1783002759669662700,4.728662841796875,0.10276658833026886,0.22099843621253967,-0.2892436385154724
1783002759679714600,4.738714599609375,0.09458136558532715,0.33555299043655396,-0.190512552857399
1783002759689765600,4.748765625,0.09255234152078629,0.3930012881755829,-0.11441168934106827
1783002759699817700,4.758817626953125,0.09747812896966934,0.39598244428634644,-0.0745638757944107
1783002759709868500,4.76886865234375,0.10907363891601562,0.3940057158470154,-0.07607433199882507
1783002759719921000,4.7789208984375,0.1274782121181488,0.3944571316242218,-0.09817616641521454
1783002759729972000,4.788971923828125,0.15214049816131592,0.37231364846229553,-0.14873835444450378
1783002759740023800,4.79902392578125,0.18965432047843933,0.3671324551105499,-0.21258364617824554
1783002759750075000,4.809074951171875,0.22699622809886932,0.3858514428138733,-0.2709648609161377
1783002759760126700,4.819126708984375,0.26517531275749207,0.3933998942375183,-0.29941248893737793
1783002759770177800,4.829177734375,0.298897385597229,0.3946416676044464,-0.30035868287086487
1783002759780230000,4.83922998046875,0.32171669602394104,0.40607595443725586,-0.2835077941417694
1783002759790280700,4.84928076171875,0.3432956635951996,0.4188080430030823,-0.2604811489582062
1783002759800332800,4.859332763671875,0.35844212770462036,0.42278680205345154,-0.22370316088199615
1783002759810384000,4.8693837890625,0.38376155495643616,0.422698438167572,-0.15241016447544098
1783002759820435700,4.879435791015625,0.3857070207595825,0.3947134017944336,-0.06594078242778778
1783002759830486800,4.88948681640625,0.3849654197692871,0.33736902475357056,0.016038376837968826
1783002759840538600,4.89953857421875,0.38164234161376953,0.294268935918808,0.06598889827728271
1783002759850589700,4.909589599609375,0.3662363886833191,0.2680182456970215,0.08764581382274628
1783002759860641800,4.919641845703125,0.3609098196029663,0.253631055355072,0.07787041366100311
1783002759870693600,4.929693603515625,0.3622536361217499,0.2732199728488922,0.04161185398697853
1783002759880744700,4.93974462890625,0.3615873157978058,0.3031059503555298,-0.01574171520769596
1783002759890795800,4.949795654296875,0.36640194058418274,0.3256683945655823,-0.08598058670759201
1783002759900847600,4.95984765625,0.36929306387901306,0.3125126361846924,-0.15731549263000488
1783002759910900000,4.96989990234375,0.37462887167930603,0.26779264211654663,-0.2022133618593216
1783002759920950800,4.97995068359375,0.38229504227638245,0.23950722813606262,-0.1984172910451889
1783002759931003000,4.9900029296875,0.39669665694236755,0.28857672214508057,-0.15859392285346985
1783002759941054000,5.000053955078125,0.41927680373191833,0.38249602913856506,-0.09506981074810028
1783002759951104800,5.010104736328125,0.44025394320487976,0.45448797941207886,-0.013435214757919312
1783002759961156900,5.020156982421875,0.4417961537837982,0.4391753375530243,0.06852196902036667
1783002759971208000,5.0302080078125,0.44737398624420166,0.42648395895957947,0.1146661788225174
1783002759981259800,5.040259765625,0.4250958561897278,0.44156599044799805,0.07857182621955872
1783002759991310800,5.050310791015625,0.37540507316589355,0.30597984790802,-0.09194355458021164
1783002760001362700,5.06036279296875,0.3289954960346222,0.10764998197555542,-0.42105647921562195
1783002760011413800,5.070413818359375,0.29243478178977966,-0.09317843616008759,-0.8157368898391724
1783002760021465900,5.0804658203125,0.25326529145240784,-0.284333735704422,-1.1436811685562134
1783002760031517700,5.090517578125,0.22061005234718323,-0.4299052655696869,-1.3274052143096924
1783002760041568800,5.10056884765625,0.18063174188137054,-0.5778893828392029,-1.3346951007843018
1783002760051620600,5.11062060546875,0.14636754989624023,-0.7139042615890503,-1.1808253526687622
1783002760061671700,5.120671630859375,0.11942116171121597,-0.7450323700904846,-0.8908171057701111
1783002760071723800,5.130723876953125,0.1092992052435875,-0.6982238292694092,-0.5339871048927307
1783002760081774600,5.140774658203125,0.09406885504722595,-0.6022365689277649,-0.18480969965457916
1783002760091826700,5.15082666015625,0.06490816920995712,-0.5083000063896179,0.10930696129798889
1783002760101877800,5.160877685546875,0.04190697893500328,-0.38684600591659546,0.330722451210022
1783002760111929600,5.1709296875,0.03543659299612045,-0.2346959412097931,0.4558218717575073
1783002760121980700,5.180980712890625,0.023851575329899788,-0.07878383994102478,0.46583402156829834
1783002760132032800,5.19103271484375,0.014858301728963852,0.05885850265622139,0.38319483399391174
1783002760142083800,5.201083740234375,0.021866410970687866,0.17449001967906952,0.2469206154346466
1783002760152136000,5.211135986328125,0.04151344299316406,0.24977296590805054,0.1029546931385994
1783002760162186800,5.221186767578125,0.06165652722120285,0.2350643277168274,-0.043403320014476776
1783002760172238800,5.23123876953125,0.08165431767702103,0.23585884273052216,-0.16829541325569153
1783002760182290000,5.2412900390625,0.08600565791130066,0.25606024265289307,-0.27729329466819763
1783002760192341800,5.251341796875,0.08685905486345291,0.2730066776275635,-0.35165002942085266
1783002760202392800,5.261392822265625,0.07669590413570404,0.27401629090309143,-0.37566134333610535
1783002760212444700,5.271444580078125,0.06538920849561691,0.2542736828327179,-0.3506392538547516
1783002760222495700,5.281495849609375,0.04378644376993179,0.19569745659828186,-0.30135053396224976
1783002760232547800,5.2915478515625,0.026761019602417946,0.14738361537456512,-0.22321951389312744
1783002760242598700,5.3015986328125,0.016044458374381065,0.1405552625656128,-0.12198104709386826
1783002760252650800,5.311650634765625,0.014990348368883133,0.12364209443330765,-0.0064818114042282104
1783002760262701800,5.321701904296875,0.024335647001862526,0.0866374671459198,0.10269394516944885
1783002760272753700,5.331753662109375,0.03650018200278282,0.057578351348638535,0.20143388211727142
1783002760282805000,5.341804931640625,0.03980250284075737,0.04110057279467583,0.26085564494132996
1783002760292856800,5.35185693359375,0.04318014159798622,0.054536815732717514,0.27332568168640137
1783002760302908000,5.361907958984375,0.045683249831199646,0.09401365369558334,0.23892109096050262
1783002760312960000,5.3719599609375,0.047452449798583984,0.10548755526542664,0.16273537278175354
1783002760323010800,5.3820107421875,0.06143724173307419,0.13316020369529724,0.09324604272842407
1783002760333063000,5.39206298828125,0.05491240322589874,0.30306383967399597,0.15138599276542664
1783002760343114000,5.402114013671875,0.04508986696600914,0.35654595494270325,0.3000319302082062
1783002760353165800,5.412165771484375,0.06821468472480774,0.16786783933639526,0.24101150035858154
1783002760363217000,5.422216796875,0.06513846665620804,-0.025894707068800926,0.035473525524139404
1783002760373269000,5.43226904296875,0.07036161422729492,-0.11747723817825317,-0.067280113697052
1783002760383320000,5.442320068359375,0.07115683704614639,-0.11055408418178558,-0.04060988873243332
1783002760393372200,5.4523720703125,0.06715000420808792,-0.09694813191890717,-0.025236884132027626
1783002760403423000,5.462423095703125,0.05992750823497772,-0.10600608587265015,-0.0958266332745552
1783002760413475000,5.47247509765625,0.038573481142520905,-0.14176517724990845,-0.22423823177814484
1783002760423526100,5.482526123046875,0.02319265902042389,-0.1750277876853943,-0.33012497425079346
1783002760433578000,5.492577880859375,-0.00021321699023246765,-0.15157528221607208,-0.34725797176361084
