time,seconds_elapsed,z,y,x
1783002755017075000,0.076074951171875,0.017303623259067535,-0.04933372884988785,-0.02155456133186817
1783002755027126800,0.086126708984375,0.023380422964692116,0.08617669343948364,0.030903054401278496
1783002755037177900,0.096177734375,0.03050198219716549,0.1932312399148941,0.06000155210494995
1783002755047229700,0.106229736328125,0.032649822533130646,0.259565532207489,0.05697087571024895
1783002755057280800,0.11628076171875,0.022042185068130493,0.24166002869606018,0.0158881526440382
1783002755067332900,0.126332763671875,-0.004862665664404631,0.13401666283607483,-0.05342434346675873
1783002755077383700,0.1363837890625,-0.01780829206109047,0.03988270089030266,-0.11784914135932922
1783002755087435800,0.146435791015625,-0.007110639940947294,0.04643674194812775,-0.16104534268379211
1783002755097486800,0.15648681640625,0.00606428412720561,0.10188189148902893,-0.16856664419174194
1783002755107538700,0.16653857421875,0.01113627478480339,0.145864799618721,-0.15225930511951447
1783002755117589800,0.17658984375,0.01925572007894516,0.1754240244626999,-0.10428379476070404
1783002755127641600,0.1866416015625,0.01919100433588028,0.19900791347026825,-0.04717230424284935
1783002755137692700,0.196692626953125,0.015382152050733566,0.18182386457920074,0.016338227316737175
1783002755147744800,0.206744873046875,0.022305572405457497,0.16128529608249664,0.096842922270298
1783002755157795600,0.216795654296875,0.03412015363574028,0.13890941441059113,0.17100024223327637
1783002755167847700,0.22684765625,0.04200843721628189,0.05739564821124077,0.2294805943965912
1783002755177898800,0.236898681640625,0.06101008877158165,-0.02130954898893833,0.2611527740955353
1783002755187950600,0.24695068359375,0.07989270240068436,-0.06575611233711243,0.2679835259914398
1783002755198001700,0.257001708984375,0.09523037821054459,-0.10827161371707916,0.25506263971328735
1783002755208053800,0.2670537109375,0.10229680687189102,-0.13604891300201416,0.24053430557250977
1783002755218104800,0.277104736328125,0.10272664576768875,-0.174953430891037,0.20634837448596954
1783002755228157000,0.287156982421875,0.1090652346611023,-0.2157629132270813,0.15393443405628204
1783002755238207700,0.297207763671875,0.10471495985984802,-0.2382490485906601,0.08898153901100159
1783002755248259800,0.307259765625,0.09239091724157333,-0.2702498733997345,0.008176969364285469
1783002755258311000,0.317310791015625,0.09214324504137039,-0.30806034803390503,-0.07558450847864151
1783002755268366000,0.327365966796875,0.08591543883085251,-0.3442694842815399,-0.1363370716571808
1783002755278417000,0.3374169921875,0.07297753542661667,-0.38411223888397217,-0.19216997921466827
1783002755288469000,0.347468994140625,0.062435947358608246,-0.41635459661483765,-0.23411768674850464
1783002755298520000,0.35752001953125,0.06780114769935608,-0.39258456230163574,-0.24738529324531555
1783002755308572200,0.367572265625,0.0735439881682396,-0.32363611459732056,-0.24091248214244843
1783002755318623000,0.377623046875,0.0743650421500206,-0.25155553221702576,-0.22399182617664337
1783002755328675000,0.387675048828125,0.07618051767349243,-0.20956707000732422,-0.21833819150924683
1783002755338726100,0.39772607421875,0.09262953698635101,-0.18898962438106537,-0.2147599756717682
1783002755348778000,0.407778076171875,0.1312352567911148,-0.07174795866012573,-0.21225020289421082
1783002755358829000,0.4178291015625,0.15298235416412354,0.09434967488050461,-0.22228020429611206
1783002755368881000,0.427880859375,0.163779616355896,0.23646900057792664,-0.26748257875442505
1783002755378932000,0.437931884765625,0.17932528257369995,0.2933615744113922,-0.35332077741622925
1783002755388984000,0.447984130859375,0.19963641464710236,0.30724862217903137,-0.45693719387054443
1783002755399035000,0.458034912109375,0.20374193787574768,0.3242230713367462,-0.5817307829856873
1783002755409087000,0.4680869140625,0.18592245876789093,0.2886131703853607,-0.7157274484634399
1783002755419138000,0.478137939453125,0.16146612167358398,0.21102754771709442,-0.8382949233055115
1783002755429190000,0.48818994140625,0.13808836042881012,0.10446915030479431,-0.9174336791038513
1783002755439241000,0.498240966796875,0.12081829458475113,-0.039022501558065414,-0.9485828280448914
1783002755449292800,0.508292724609375,0.10315302014350891,-0.1882340908050537,-0.9072816967964172
1783002755459344000,0.51834375,0.10100997239351273,-0.31617528200149536,-0.8053934574127197
1783002755469396000,0.52839599609375,0.11769653856754303,-0.4096500873565674,-0.6798568367958069
1783002755479446800,0.53844677734375,0.1473870575428009,-0.47138723731040955,-0.5573476552963257
1783002755489499100,0.5484990234375,0.17787837982177734,-0.48305585980415344,-0.41209062933921814
1783002755499550000,0.558550048828125,0.19621025025844574,-0.4467977285385132,-0.2720371186733246
1783002755509602000,0.56860205078125,0.21100358664989471,-0.362227201461792,-0.14359231293201447
1783002755519653000,0.578653076171875,0.21111224591732025,-0.2717108726501465,-0.027574103325605392
1783002755529705000,0.588705078125,0.19731839001178741,-0.24718235433101654,0.07270696014165878
1783002755539756000,0.598756103515625,0.18006564676761627,-0.2603357136249542,0.15974199771881104
1783002755549808000,0.60880810546875,0.15215598046779633,-0.28709036111831665,0.22156009078025818
1783002755559859000,0.61885888671875,0.11977140605449677,-0.3357774615287781,0.2528682053089142
1783002755569911000,0.6289111328125,0.08829311281442642,-0.4052939713001251,0.26564231514930725
1783002755579962000,0.638962158203125,0.07322733849287033,-0.4402143955230713,0.2884182035923004
1783002755590014000,0.649013916015625,0.06006067246198654,-0.43485426902770996,0.3274580240249634
1783002755600065000,0.65906494140625,0.060984790325164795,-0.40965035557746887,0.3633587658405304
1783002755610116900,0.669116943359375,0.06779742240905762,-0.3488045930862427,0.39698436856269836
1783002755620168000,0.67916796875,0.060019396245479584,-0.29472190141677856,0.43055084347724915
1783002755630220000,0.689219970703125,0.043902475386857986,-0.29274505376815796,0.47185540199279785
1783002755640270800,0.699270751953125,0.04023823142051697,-0.35857146978378296,0.5162854790687561
1783002755650323000,0.709322998046875,0.057384997606277466,-0.40137672424316406,0.5608313679695129
1783002755660374000,0.7193740234375,0.048177916556596756,-0.34721043705940247,0.6149342656135559
1783002755670425900,0.72942578125,0.008610798977315426,-0.2997363805770874,0.684867799282074
1783002755680477000,0.739476806640625,0.00926140882074833,-0.31671881675720215,0.7270035743713379
1783002755690528800,0.74952880859375,0.049190182238817215,-0.3990589678287506,0.7056980133056641
1783002755700579800,0.759579833984375,0.07223425060510635,-0.4608645439147949,0.6364334225654602
1783002755710632200,0.769632080078125,0.07773847132921219,-0.4384271502494812,0.5408169031143188
1783002755720683000,0.77968310546875,0.07759279757738113,-0.40629398822784424,0.41324588656425476
1783002755730735000,0.789735107421875,0.07846072316169739,-0.3936287760734558,0.2766265273094177
1783002755740786200,0.7997861328125,0.07250482589006424,-0.3779433071613312,0.1571028083562851
1783002755750838000,0.809838134765625,0.05844440311193466,-0.3503875732421875,0.057863831520080566
1783002755760889000,0.81988916015625,0.04655631631612778,-0.3193817138671875,0.002469815546646714
1783002755770941000,0.82994091796875,0.028353344649076462,-0.25253185629844666,-0.01732918992638588
1783002755780992000,0.839991943359375,0.008115983568131924,-0.16130153834819794,-0.016416257247328758
1783002755791044000,0.850044189453125,-0.00746031291782856,-0.11030573397874832,-0.018795792013406754
1783002755801095000,0.860094970703125,-0.022829148918390274,-0.0931115671992302,-0.02984258346259594
1783002755811147000,0.87014697265625,-0.04507746174931526,-0.07704098522663116,-0.04042891412973404
1783002755821198800,0.88019873046875,-0.07761383801698685,-0.020609404891729355,-0.019596071913838387
1783002755831250000,0.89025,-0.12088301032781601,0.045525141060352325,0.03748612105846405
1783002755841301000,0.900301025390625,-0.16103628277778625,0.07160095125436783,0.10369683057069778
1783002755851352800,0.910352783203125,-0.180032879114151,0.07409925758838654,0.20063935220241547
1783002755861404000,0.92040380859375,-0.20184125006198883,0.049614690244197845,0.34078553318977356
1783002755871456000,0.9304560546875,-0.21470697224140167,0.010147974826395512,0.512714684009552
1783002755881506800,0.9405068359375,-0.21562176942825317,-0.030613303184509277,0.6838217377662659
1783002755891559000,0.950558837890625,-0.2082032710313797,-0.06643681228160858,0.8278196454048157
1783002755901610000,0.96060986328125,-0.1997261643409729,-0.07507584244012833,0.9113190770149231
1783002755911661800,0.970661865234375,-0.1991860717535019,-0.07047869265079498,0.9169474244117737
1783002755921713000,0.980712890625,-0.20905601978302002,-0.058268897235393524,0.8346868753433228
1783002755931765000,0.990764892578125,-0.22037018835544586,-0.01733877696096897,0.6761036515235901
1783002755941816000,1.000816162109375,-0.2362964153289795,0.047502271831035614,0.46054309606552124
1783002755951868200,1.0108681640625,-0.24746838212013245,0.09441598504781723,0.23478801548480988
1783002755961919000,1.0209189453125,-0.24187734723091125,0.16833041608333588,0.04874783009290695
1783002755971971000,1.03097119140625,-0.218006893992424,0.27392956614494324,-0.07262866199016571
1783002755982023000,1.04102294921875,-0.2066059112548828,0.3295044004917145,-0.11521287262439728
1783002755992074000,1.051073974609375,-0.1783292591571808,0.3566476106643677,-0.10065976530313492
1783002756002126000,1.0611259765625,-0.14570686221122742,0.4138701558113098,-0.06542933732271194
1783002756012177000,1.071177001953125,-0.10679835081100464,0.5074123740196228,-0.034263163805007935
1783002756022229000,1.08122900390625,-0.06875403225421906,0.6009896993637085,-0.020430972799658775
1783002756032280000,1.091280029296875,-0.04351099207997322,0.6148088574409485,-0.008890430442988873
1783002756042332000,1.101331787109375,-0.026265958324074745,0.5829036235809326,-0.003739344421774149
1783002756052383000,1.111383056640625,-0.027461985126137733,0.555825412273407,0.01309236604720354
1783002756062434800,1.121434814453125,-0.042021218687295914,0.47688186168670654,0.035224299877882004
1783002756072486000,1.13148583984375,-0.05356336012482643,0.3557938039302826,0.025911491364240646
1783002756082537000,1.141536865234375,-0.05084586888551712,0.23239701986312866,0.002513757674023509
1783002756092588800,1.1515888671875,-0.04352084547281265,0.15512166917324066,-0.029626069590449333
1783002756102639900,1.161639892578125,-0.03424212709069252,0.10098893195390701,-0.053477607667446136
1783002756112692000,1.17169189453125,-0.027053721249103546,0.0194940734654665,-0.06437872350215912
1783002756122742800,1.18174267578125,-0.02388642355799675,-0.07793101668357849,-0.06972715258598328
1783002756132795100,1.191795166015625,-0.029679864645004272,-0.1625383198261261,-0.0769408568739891
1783002756142846000,1.201845947265625,-0.056166600435972214,-0.24148932099342346,-0.10347845405340195
1783002756152898000,1.21189794921875,-0.0897756889462471,-0.3464764654636383,-0.15404069423675537
1783002756162950100,1.2219501953125,-0.11530475318431854,-0.3974941074848175,-0.2148345410823822
1783002756173001000,1.2320009765625,-0.1299460083246231,-0.364512175321579,-0.2967264652252197
1783002756183053000,1.242052978515625,-0.13909131288528442,-0.2833273112773895,-0.38664278388023376
1783002756193104100,1.252104248046875,-0.14675109088420868,-0.1817394345998764,-0.4390769600868225
1783002756203155000,1.262155029296875,-0.15754728019237518,-0.07814247161149979,-0.4334837794303894
1783002756213207000,1.27220703125,-0.1653553992509842,0.036549489945173264,-0.3993138372898102
1783002756223259000,1.2822587890625,-0.17275606095790863,0.17287270724773407,-0.34450384974479675
1783002756233310000,1.29231005859375,-0.18186886608600616,0.30266186594963074,-0.27900367975234985
1783002756243362000,1.302362060546875,-0.19895172119140625,0.3757486045360565,-0.21057774126529694
1783002756253412900,1.312412841796875,-0.2081737071275711,0.3664594888687134,-0.14896097779273987
1783002756263465000,1.32246484375,-0.20965096354484558,0.3241384029388428,-0.10218203067779541
1783002756273513200,1.33251318359375,-0.21426542103290558,0.25457850098609924,-0.07448222488164902
1783002756283565300,1.3425654296875,-0.22039788961410522,0.1716282069683075,-0.06041301041841507
1783002756293616400,1.352616455078125,-0.23226413130760193,0.09784320741891861,-0.04096927121281624
1783002756303668500,1.36266845703125,-0.22145143151283264,0.046426888555288315,-0.015456453897058964
1783002756313719600,1.372719482421875,-0.20335471630096436,0.009639844298362732,0.014634869061410427
1783002756323771400,1.382771484375,-0.17328709363937378,0.018453842028975487,0.05558896064758301
1783002756333822500,1.392822509765625,-0.13577167689800262,0.07536692917346954,0.11116646975278854
1783002756343874600,1.40287451171875,-0.11598040163516998,0.12169181555509567,0.18951719999313354
1783002756353925400,1.41292529296875,-0.1002752035856247,0.12487189471721649,0.28449591994285583
1783002756363977500,1.4229775390625,-0.09331317245960236,0.1049828752875328,0.37993720173835754
1783002756374028500,1.433028564453125,-0.07729531824588776,0.07149362564086914,0.45175015926361084
1783002756384080400,1.443080322265625,-0.06052965670824051,0.04086487367749214,0.4805578291416168
1783002756394131500,1.45313134765625,-0.04945782944560051,0.03851010650396347,0.4714948236942291
1783002756404183300,1.463183349609375,-0.036140162497758865,0.03575879707932472,0.4548572599887848
1783002756414234400,1.473234375,-0.02028290182352066,0.015539278276264668,0.4198353588581085
1783002756424286500,1.483286376953125,-0.013498764485120773,-0.013591708615422249,0.3773486316204071
1783002756434337300,1.493337158203125,-0.016411995515227318,-0.029255889356136322,0.32674163579940796
1783002756444389400,1.503389404296875,-0.03417208418250084,-0.05916105955839157,0.277539998292923
1783002756454440400,1.5134404296875,-0.04270352050662041,-0.10535944253206253,0.2371979057788849
1783002756464492300,1.5234921875,-0.05535353720188141,-0.1331966668367386,0.20098955929279327
1783002756474543400,1.53354345703125,-0.0724334567785263,-0.13156841695308685,0.18078522384166718
1783002756484595200,1.54359521484375,-0.08652397245168686,-0.08853599429130554,0.19323177635669708
1783002756494646300,1.553646240234375,-0.09508576989173889,-0.020663999021053314,0.2312294989824295
1783002756504698600,1.56369873046875,-0.10384863615036011,0.04523272439837456,0.25704485177993774
1783002756514749200,1.573749267578125,-0.1398545652627945,0.03681926801800728,0.2728794813156128
1783002756524801500,1.583801513671875,-0.15134185552597046,-0.03476011008024216,0.24541135132312775
1783002756534852600,1.5938525390625,-0.16943643987178802,-0.0912068784236908,0.11834847927093506
1783002756544904400,1.603904541015625,-0.20306655764579773,-0.13725613057613373,-0.11097098886966705
1783002756554955500,1.61395556640625,-0.21435703337192535,-0.20208679139614105,-0.39036163687705994
1783002756565007400,1.62400732421875,-0.21063180267810822,-0.22825022041797638,-0.649298906326294
1783002756575058400,1.634058349609375,-0.22131188213825226,-0.237916961312294,-0.847073495388031
1783002756585110500,1.644110595703125,-0.2342149019241333,-0.24670033156871796,-0.9476600289344788
1783002756595161300,1.654161376953125,-0.23874439299106598,-0.2805296778678894,-0.9525437355041504
1783002756605213400,1.66421337890625,-0.2329605519771576,-0.3290005326271057,-0.8575929999351501
1783002756615264500,1.674264404296875,-0.2334662824869156,-0.37389156222343445,-0.6785356402397156
1783002756625316400,1.68431640625,-0.25511378049850464,-0.4138762652873993,-0.4263680875301361
1783002756635367400,1.694367431640625,-0.27014175057411194,-0.45405060052871704,-0.12705622613430023
1783002756645419300,1.704419189453125,-0.26684609055519104,-0.48916515707969666,0.17817425727844238
1783002756655470300,1.71447021484375,-0.25758039951324463,-0.4908251166343689,0.46232369542121887
1783002756665522400,1.7245224609375,-0.24299640953540802,-0.4383813440799713,0.6915134787559509
1783002756675573200,1.7345732421875,-0.2235231101512909,-0.31787997484207153,0.847454845905304
1783002756685625300,1.744625244140625,-0.21376048028469086,-0.1763169765472412,0.9460269808769226
1783002756695676400,1.754676513671875,-0.21269388496875763,-0.06919052451848984,1.0137386322021484
1783002756705728300,1.764728271484375,-0.21118281781673431,0.01101776398718357,1.0284398794174194
1783002756715779300,1.774779296875,-0.2116781622171402,0.08190125972032547,0.984551727771759
1783002756725831400,1.78483154296875,-0.2072218954563141,0.10835497081279755,0.8754124641418457
1783002756735882200,1.79488232421875,-0.18504922091960907,0.07545800507068634,0.7197206020355225
1783002756745934600,1.8049345703125,-0.14688372611999512,0.02906680479645729,0.5178878903388977
1783002756755985400,1.8149853515625,-0.11972054094076157,0.05325709655880928,0.30211830139160156
1783002756766037500,1.82503759765625,-0.10249362140893936,0.109048992395401,0.11069535464048386
1783002756776088600,1.835088623046875,-0.0818738266825676,0.18843701481819153,-0.03351934254169464
1783002756786140400,1.845140380859375,-0.053458165377378464,0.28808024525642395,-0.14483468234539032
1783002756796191500,1.85519140625,-0.01731853559613228,0.35881221294403076,-0.23567217588424683
1783002756806243300,1.865243408203125,0.01926290988922119,0.4041876792907715,-0.2946614623069763
1783002756816294400,1.87529443359375,0.06064550206065178,0.41929128766059875,-0.3135826885700226
1783002756826346500,1.885346435546875,0.1081661507487297,0.39124923944473267,-0.29550567269325256
1783002756836397300,1.895397216796875,0.1434173434972763,0.30611810088157654,-0.2592659294605255
1783002756846449400,1.905449462890625,0.1657295823097229,0.1754074990749359,-0.21925245225429535
1783002756856500500,1.91550048828125,0.17398963868618011,0.05024852231144905,-0.17904165387153625
1783002756866552300,1.92555224609375,0.16396869719028473,-0.07081052660942078,-0.11511912941932678
1783002756876603400,1.935603271484375,0.1654672622680664,-0.157353937625885,-0.017519604414701462
1783002756886655200,1.9456552734375,0.16577965021133423,-0.15111921727657318,0.11661449819803238
1783002756896706300,1.955706298828125,0.1533842235803604,-0.10826921463012695,0.25982359051704407
1783002756906758400,1.96575830078125,0.15177194774150848,-0.0674421563744545,0.37098100781440735
1783002756916809200,1.975809326171875,0.1726284921169281,-0.009238772094249725,0.41708672046661377
1783002756926861300,1.985861328125,0.2016873061656952,0.08531409502029419,0.42313820123672485
1783002756936912400,1.995912353515625,0.2080344259738922,0.1913185566663742,0.4050028920173645
1783002756946964500,2.005964599609375,0.22036805748939514,0.2716541588306427,0.36208391189575195
1783002756957015600,2.016015625,0.24981409311294556,0.33318275213241577,0.28290680050849915
1783002756967067400,2.0260673828125,0.2566336393356323,0.32002726197242737,0.1688329577445984
1783002756977118500,2.036118408203125,0.26005473732948303,0.273019015789032,0.039988696575164795
1783002756987170600,2.046170654296875,0.2701374888420105,0.3000064194202423,-0.08491009473800659
1783002756997221400,2.056221435546875,0.2688567638397217,0.3418276309967041,-0.19709575176239014
1783002757007273500,2.0662734375,0.24914537370204926,0.34810206294059753,-0.26887062191963196
1783002757017324500,2.076324462890625,0.2193608433008194,0.343622088432312,-0.2808503210544586
1783002757027376400,2.08637646484375,0.19059258699417114,0.36902090907096863,-0.23311154544353485
1783002757037427500,2.096427490234375,0.17643894255161285,0.3852542042732239,-0.1409669816493988
1783002757047479300,2.106479248046875,0.1678454577922821,0.3596423268318176,-0.02226722240447998
1783002757057530400,2.1165302734375,0.1637260764837265,0.30940473079681396,0.09731803089380264
1783002757067582500,2.12658251953125,0.1548159420490265,0.223836287856102,0.2064535766839981
1783002757077633300,2.13663330078125,0.15220311284065247,0.1273699402809143,0.3048746883869171
1783002757087685400,2.146685302734375,0.13759168982505798,0.023493342101573944,0.3626255989074707
1783002757097736400,2.156736328125,0.1074521541595459,-0.0716097354888916,0.3527303636074066
1783002757107788300,2.166788330078125,0.07658212631940842,-0.15598347783088684,0.27639856934547424
1783002757117839400,2.17683935546875,0.05074546858668327,-0.21740981936454773,0.1549656093120575
1783002757127891200,2.18689111328125,0.036971867084503174,-0.2446129471063614,0.033778734505176544
1783002757137942300,2.1969423828125,0.031864721328020096,-0.2483386993408203,-0.06226843595504761
1783002757147994400,2.206994384765625,0.042879022657871246,-0.1824832558631897,-0.10495730489492416
1783002757158045200,2.217045166015625,0.049915093928575516,-0.07333093881607056,-0.11217367649078369
1783002757168097500,2.22709765625,0.049499910324811935,-0.003884486621245742,-0.08626484870910645
1783002757178148600,2.237148681640625,0.04755500331521034,0.029982931911945343,-0.04999285936355591
1783002757188200400,2.247200439453125,0.04163239896297455,0.024524517357349396,-0.02586834877729416
1783002757198251500,2.25725146484375,0.03363572433590889,-0.045345377177000046,-0.02286110632121563
1783002757208303400,2.267303466796875,0.017826933413743973,-0.11035047471523285,-0.023569241166114807
1783002757218354400,2.2773544921875,0.011056645773351192,-0.14608290791511536,-0.024513332173228264
1783002757228406500,2.287406494140625,0.03394598141312599,-0.1456567943096161,-0.01558268815279007
1783002757238457300,2.297457275390625,0.09739100188016891,-0.07842929661273956,-0.013496100902557373
1783002757248509400,2.307509521484375,0.1489734947681427,-0.003501257859170437,0.011874236166477203
1783002757258560500,2.317560546875,0.15521062910556793,0.046689473092556,0.07809773087501526
1783002757268611300,2.327611328125,0.1408548504114151,0.04505349323153496,0.17227056622505188
1783002757278662400,2.337662353515625,0.12426868826150894,-0.02352023869752884,0.26216742396354675
1783002757288714500,2.347714599609375,0.10091489553451538,-0.12216692417860031,0.31681737303733826
1783002757298765300,2.357765380859375,0.09212753176689148,-0.21244116127490997,0.3145398199558258
1783002757308817400,2.3678173828125,0.08643689006567001,-0.25185754895210266,0.2746608555316925
1783002757318868500,2.377868408203125,0.06297603249549866,-0.25812476873397827,0.22120508551597595
1783002757328920300,2.38792041015625,0.03562910109758377,-0.24335487186908722,0.1988646239042282
1783002757338971400,2.397971435546875,0.016351543366909027,-0.23852309584617615,0.22164185345172882
1783002757349023200,2.408023193359375,0.013883857987821102,-0.19629521667957306,0.27159184217453003
1783002757359074300,2.41807421875,-0.0032264196779578924,-0.19288796186447144,0.34790709614753723
1783002757369126400,2.42812646484375,-0.009343966841697693,-0.2647365927696228,0.407585084438324
1783002757379177200,2.43817724609375,-0.0006503439508378506,-0.338623583316803,0.3655433654785156
1783002757389229300,2.448229248046875,0.005420065484941006,-0.39932528138160706,0.21081343293190002
1783002757399280400,2.4582802734375,0.00812290795147419,-0.4184659719467163,-0.022227274253964424
1783002757409332500,2.46833251953125,-0.005995041690766811,-0.37973853945732117,-0.3000895082950592
1783002757419383300,2.47838330078125,-0.024019315838813782,-0.27824732661247253,-0.5727570056915283
1783002757429435400,2.488435302734375,-0.04574911296367645,-0.09419600665569305,-0.8090749979019165
1783002757439486500,2.498486572265625,-0.08105410635471344,0.10520578175783157,-0.9457031488418579
1783002757449538600,2.50853857421875,-0.11641502380371094,0.25627970695495605,-0.9312365651130676
1783002757459589400,2.51858935546875,-0.12693451344966888,0.3327158987522125,-0.7506473660469055
1783002757469641500,2.528641357421875,-0.12866796553134918,0.3320285379886627,-0.43625375628471375
1783002757479692500,2.538692626953125,-0.12906238436698914,0.26382124423980713,-0.06481814384460449
1783002757489744400,2.548744384765625,-0.12156344950199127,0.1872340738773346,0.2995765805244446
1783002757499795500,2.55879541015625,-0.11487172544002533,0.10256365686655045,0.6079224348068237
1783002757509847300,2.568847412109375,-0.1308371126651764,0.001023186487145722,0.8193638324737549
1783002757519898400,2.5788984375,-0.15724341571331024,-0.11935009807348251,0.9243371486663818
1783002757529950500,2.588950439453125,-0.17445649206638336,-0.23775450885295868,0.9367349743843079
1783002757540001300,2.599001220703125,-0.1769377589225769,-0.3213101029396057,0.8646926879882812
1783002757550053400,2.609053466796875,-0.1623833179473877,-0.30567389726638794,0.7177517414093018
1783002757560104400,2.6191044921875,-0.12987729907035828,-0.21539592742919922,0.4965756833553314
1783002757570156300,2.62915625,-0.10875017940998077,-0.10959254205226898,0.22214224934577942
1783002757580207400,2.639207275390625,-0.1080995723605156,0.00797057431191206,-0.08583074808120728
1783002757590259200,2.64925927734375,-0.10237936675548553,0.13537274301052094,-0.3674858808517456
1783002757600310300,2.659310302734375,-0.09384207427501678,0.26208406686782837,-0.5849108695983887
1783002757610362400,2.6693623046875,-0.08819643408060074,0.3945893943309784,-0.7311719655990601
1783002757620413200,2.6794130859375,-0.07967539131641388,0.4585880935192108,-0.8026477098464966
1783002757630465500,2.689465576171875,-0.08369755744934082,0.4165809750556946,-0.7911282181739807
1783002757640516400,2.699516357421875,-0.10191651433706284,0.2913122773170471,-0.6846622228622437
1783002757650568400,2.709568359375,-0.1128740906715393,0.1386076807975769,-0.49411386251449585
1783002757660619500,2.71961962890625,-0.1107688620686531,0.006625145673751831,-0.27153509855270386
1783002757670671400,2.72967138671875,-0.0900001972913742,-0.09414327889680862,-0.03958682343363762
1783002757680722400,2.739722412109375,-0.05722547322511673,-0.1511484980583191,0.17234833538532257
1783002757690774500,2.7497744140625,-0.03803340345621109,-0.15811027586460114,0.33290231227874756
1783002757700825300,2.759825439453125,-0.02611655555665493,-0.14491911232471466,0.4296376407146454
1783002757710877400,2.76987744140625,-0.03341175243258476,-0.13657967746257782,0.4732285439968109
1783002757720928500,2.779928466796875,-0.039387885481119156,-0.11275184899568558,0.4558919072151184
1783002757730980400,2.78998046875,-0.03961452096700668,-0.0705316886305809,0.38621774315834045
1783002757741031400,2.800031494140625,-0.02960156835615635,-0.02749793790280819,0.25497904419898987
1783002757751083300,2.810083251953125,-0.020242420956492424,0.03960946202278137,0.0959710031747818
1783002757761134300,2.82013427734375,-0.032827455550432205,0.11404640972614288,-0.0628519356250763
1783002757771186400,2.8301865234375,-0.04981975257396698,0.201120063662529,-0.19411514699459076
1783002757781237200,2.8402373046875,-0.05657859146595001,0.3048192858695984,-0.279812216758728
1783002757791289300,2.850289306640625,-0.07052796334028244,0.3541753888130188,-0.32690274715423584
1783002757801340400,2.86034033203125,-0.08501129597425461,0.3162842094898224,-0.34247905015945435
1783002757811392300,2.870392333984375,-0.10300254821777344,0.22955729067325592,-0.3267837166786194
1783002757821443300,2.880443359375,-0.11129669845104218,0.1420503556728363,-0.2983241081237793
1783002757831495200,2.8904951171875,-0.11424268782138824,0.12994042038917542,-0.2530841827392578
1783002757841546200,2.900546142578125,-0.1166754812002182,0.18910281360149384,-0.21824045479297638
1783002757851598600,2.9105986328125,-0.12469878792762756,0.24240358173847198,-0.20613372325897217
1783002757861649400,2.9206494140625,-0.11997301131486893,0.2535204291343689,-0.220529705286026
1783002757871701500,2.930701416015625,-0.11288660764694214,0.23623517155647278,-0.26450541615486145
1783002757881752600,2.940752685546875,-0.09962379932403564,0.22345705330371857,-0.30569228529930115
1783002757891804400,2.950804443359375,-0.0761626809835434,0.21207337081432343,-0.3138306140899658
1783002757901855500,2.96085546875,-0.05007941275835037,0.24854989349842072,-0.2776300013065338
1783002757911907300,2.9709072265625,-0.027935227379202843,0.26851028203964233,-0.21748678386211395
1783002757921958400,2.98095849609375,0.0054664043709635735,0.25897377729415894,-0.13644225895404816
1783002757932010500,2.991010498046875,0.041368745267391205,0.2064269334077835,-0.04331711307168007
1783002757942061300,3.001061279296875,0.06644480675458908,0.14509913325309753,0.06662962585687637
1783002757952113400,3.011113525390625,0.10121423751115799,0.10947083681821823,0.16745343804359436
1783002757962164500,3.02116455078125,0.13493624329566956,0.10579141229391098,0.21846869587898254
1783002757972216300,3.03121630859375,0.16204829514026642,0.11531461030244827,0.20304499566555023
1783002757982267400,3.041267333984375,0.18604417145252228,0.11307515949010849,0.14769625663757324
1783002757992319200,3.0513193359375,0.20278826355934143,0.0968509092926979,0.0677361711859703
1783002758002371300,3.061371337890625,0.20931486785411835,0.052203018218278885,-0.04585403949022293
1783002758012422400,3.07142236328125,0.21057374775409698,0.007427290081977844,-0.16469627618789673
1783002758022474200,3.08147412109375,0.20752522349357605,0.010325607843697071,-0.2782262861728668
1783002758032525300,3.091525390625,0.18409553170204163,0.0346117727458477,-0.34222471714019775
1783002758042577400,3.101577392578125,0.16208291053771973,0.05289490520954132,-0.3499622642993927
1783002758052628200,3.111628173828125,0.14595267176628113,0.0323941595852375,-0.31781232357025146
1783002758062680600,3.1216806640625,0.13452185690402985,0.0244321059435606,-0.26118791103363037
1783002758072731400,3.1317314453125,0.12845304608345032,0.05788753554224968,-0.18691103160381317
1783002758082783500,3.141783447265625,0.11216036230325699,0.10449445247650146,-0.11562273651361465
1783002758092834600,3.15183447265625,0.09678033739328384,0.1182057335972786,-0.07100652903318405
1783002758102886400,3.161886474609375,0.06886108964681625,0.10262411087751389,-0.051181428134441376
1783002758112937500,3.1719375,0.04336824640631676,0.08279527723789215,-0.044922467321157455
1783002758122989300,3.1819892578125,0.023814784362912178,0.06344714760780334,-0.026391925290226936
1783002758133040400,3.192040283203125,0.01913987286388874,0.053213685750961304,0.028136296197772026
1783002758143092500,3.202092529296875,0.023079220205545425,0.042335737496614456,0.09663919359445572
1783002758153143300,3.212143310546875,0.0372467041015625,0.023422235623002052,0.16657327115535736
1783002758163195400,3.2221953125,0.04833211377263069,0.019514579325914383,0.23239170014858246
1783002758173246500,3.23224658203125,0.05829206854104996,0.009899768978357315,0.2988434135913849
1783002758183298300,3.24229833984375,0.07378128170967102,-0.022109029814600945,0.3504887819290161
1783002758193349400,3.252349365234375,0.11503977328538895,0.010202037170529366,0.3766127824783325
1783002758203401200,3.262401123046875,0.12832947075366974,0.1078212708234787,0.3684142529964447
1783002758213452300,3.272452392578125,0.13435514271259308,0.13021233677864075,0.33732691407203674
1783002758223504400,3.28250439453125,0.17417898774147034,0.10354024171829224,0.22859269380569458
1783002758233555200,3.29255517578125,0.19896848499774933,0.15781812369823456,0.003716174978762865
1783002758243607300,3.302607177734375,0.20474542677402496,0.22297848761081696,-0.3149169385433197
1783002758253658400,3.312658447265625,0.21571125090122223,0.28019383549690247,-0.67476886510849
1783002758263710500,3.32271044921875,0.21658477187156677,0.34778326749801636,-0.9943060874938965
1783002758273761500,3.332761474609375,0.21653257310390472,0.4096676707267761,-1.2089755535125732
1783002758283813400,3.3428134765625,0.20634464919567108,0.42076000571250916,-1.2760109901428223
1783002758293864400,3.352864501953125,0.21065017580986023,0.35570618510246277,-1.1471630334854126
1783002758303916500,3.36291650390625,0.199308842420578,0.30858898162841797,-0.8037955164909363
1783002758313967400,3.37296728515625,0.165630504488945,0.26095089316368103,-0.31073468923568726
1783002758324019500,3.38301953125,0.1611577272415161,0.19902388751506805,0.2521238625049591
1783002758334070500,3.393070556640625,0.2012910395860672,0.19576764106750488,0.7665387392044067
1783002758344122400,3.403122314453125,0.2751373052597046,0.26948073506355286,1.1489979028701782
1783002758354173400,3.41317333984375,0.3555477261543274,0.36034807562828064,1.395924687385559
1783002758364225300,3.423225341796875,0.4124847650527954,0.44014090299606323,1.5036261081695557
1783002758374276400,3.4332763671875,0.43504494428634644,0.513681948184967,1.48731529712677
1783002758384328400,3.443328369140625,0.4512076675891876,0.566134512424469,1.36746346950531
1783002758394379300,3.453379150390625,0.46861034631729126,0.6310514807701111,1.1617883443832397
1783002758404431400,3.463431396484375,0.4825799763202667,0.6830997467041016,0.9084609746932983
1783002758414482400,3.473482421875,0.47836124897003174,0.6859964728355408,0.625759482383728
1783002758424534300,3.4835341796875,0.45869114995002747,0.6596940159797668,0.352519154548645
1783002758434585300,3.49358544921875,0.4644278585910797,0.5664655566215515,0.14941026270389557
1783002758444637200,3.50363720703125,0.4765705466270447,0.42567914724349976,0.0072991917841136456
1783002758454688300,3.513688232421875,0.4773484468460083,0.31311556696891785,-0.09772416204214096
1783002758464740600,3.52374072265625,0.45956599712371826,0.2309543937444687,-0.2098701447248459
1783002758474791200,3.533791259765625,0.4539605677127838,0.13843004405498505,-0.32662659883499146
1783002758484843500,3.543843505859375,0.4510910212993622,0.05661134794354439,-0.4224953353404999
1783002758494894600,3.55389453125,0.45569881796836853,0.016115320846438408,-0.46967482566833496
1783002758504946400,3.563946533203125,0.446138858795166,0.01076875813305378,-0.4545733630657196
1783002758514997500,3.57399755859375,0.42269691824913025,-0.016096144914627075,-0.3802677094936371
1783002758525049300,3.58404931640625,0.38907745480537415,-0.08315747231245041,-0.2614782154560089
1783002758535100400,3.594100341796875,0.35621005296707153,-0.16838900744915009,-0.13392983376979828
1783002758545152500,3.604152587890625,0.3141153156757355,-0.23592038452625275,-0.005049353465437889
1783002758555203300,3.614203369140625,0.27747049927711487,-0.2550807595252991,0.12496217340230942
1783002758565255400,3.62425537109375,0.24871979653835297,-0.2323261797428131,0.2129431664943695
1783002758575306500,3.634306396484375,0.20391450822353363,-0.20523518323898315,0.26410675048828125
1783002758585358300,3.6443583984375,0.1614179164171219,-0.17778970301151276,0.3294335603713989
1783002758595409400,3.654409423828125,0.13335245847702026,-0.20287668704986572,0.41728323698043823
1783002758605461200,3.664461181640625,0.09615769237279892,-0.1748751401901245,0.5048373341560364
1783002758615512300,3.67451220703125,0.06310919672250748,-0.06537660956382751,0.5212306976318359
1783002758625564400,3.684564453125,0.028145616874098778,0.031315580010414124,0.4552322328090668
1783002758635615200,3.694615234375,-0.003147856332361698,0.03917643055319786,0.339028924703598
1783002758645667300,3.704667236328125,-0.023438213393092155,0.0062421830371022224,0.20447644591331482
1783002758655718400,3.714718505859375,-0.038901858031749725,0.0020658141002058983,0.06482719630002975
1783002758665770200,3.724770263671875,-0.058277688920497894,0.0373590886592865,-0.06082739681005478
1783002758675821300,3.7348212890625,-0.07304411381483078,0.08655086904764175,-0.17002445459365845
1783002758685873400,3.744873291015625,-0.08380488306283951,0.13481080532073975,-0.24614639580249786
1783002758695924200,3.75492431640625,-0.09729912132024765,0.16153563559055328,-0.2785642445087433
1783002758705976600,3.7649765625,-0.11882172524929047,0.1491953432559967,-0.2834559381008148
1783002758716027400,3.77502734375,-0.13575837016105652,0.12211605161428452,-0.25178083777427673
1783002758726079500,3.78507958984375,-0.15037618577480316,0.09605462849140167,-0.19156064093112946
1783002758736130600,3.795130615234375,-0.16659457981586456,0.06260878592729568,-0.13238254189491272
1783002758746182400,3.805182373046875,-0.1849496066570282,-0.009968478232622147,-0.08484857529401779
1783002758756233500,3.8152333984375,-0.191072478890419,-0.07787083089351654,-0.04664419963955879
1783002758766285300,3.825285400390625,-0.18576613068580627,-0.1142919510602951,-0.010762632824480534
1783002758776336400,3.83533642578125,-0.17924165725708008,-0.12240421026945114,0.03436410054564476
1783002758786388500,3.845388427734375,-0.18532724678516388,-0.13409575819969177,0.07567185908555984
1783002758796439300,3.855439208984375,-0.2010020762681961,-0.1339396983385086,0.08490850031375885
1783002758806491400,3.865491455078125,-0.20504049956798553,-0.12450996786355972,0.07830705493688583
1783002758816542500,3.87554248046875,-0.21648064255714417,-0.14057175815105438,0.04930443316698074
1783002758826594300,3.88559423828125,-0.2277040034532547,-0.16209569573402405,0.021685054525732994
1783002758836645400,3.895645263671875,-0.24440307915210724,-0.18444068729877472,0.006671218667179346
1783002758846697200,3.905697265625,-0.2554762363433838,-0.21364730596542358,0.0035832831636071205
1783002758856748300,3.915748291015625,-0.2795727849006653,-0.2543624937534332,0.0049196574836969376
1783002758866800400,3.92580029296875,-0.29970788955688477,-0.31654784083366394,0.002377137541770935
1783002758876851200,3.935851318359375,-0.30626964569091797,-0.35747212171554565,0.030356841161847115
1783002758886903300,3.9459033203125,-0.3175995349884033,-0.34048566222190857,0.10649262368679047
1783002758896954400,3.955954345703125,-0.3252776861190796,-0.30075371265411377,0.19286932051181793
1783002758907006500,3.96600634765625,-0.34308120608329773,-0.2660231590270996,0.26254400610923767
1783002758917057500,3.9760576171875,-0.3492695689201355,-0.25075340270996094,0.2829954922199249
1783002758927109400,3.986109375,-0.34133443236351013,-0.2543960511684418,0.27877703309059143
1783002758937160400,3.996160400390625,-0.3473483622074127,-0.2764640748500824,0.24256150424480438
1783002758947212500,4.006212646484375,-0.3613472878932953,-0.3325934112071991,0.16467124223709106
1783002758957263400,4.016263427734375,-0.37554433941841125,-0.44100481271743774,0.07136872410774231
1783002758967315500,4.0263154296875,-0.37755367159843445,-0.5130992531776428,-0.01949620246887207
1783002758977366500,4.036366455078125,-0.37961018085479736,-0.5164945125579834,-0.08906435966491699
1783002758987418400,4.04641845703125,-0.4009926915168762,-0.5240211486816406,-0.12665461003780365
1783002758997469400,4.056469482421875,-0.4117220342159271,-0.5258680582046509,-0.1288653016090393
1783002759007521300,4.066521240234375,-0.41023120284080505,-0.5019193291664124,-0.1107289120554924
1783002759017572400,4.076572265625,-0.396148145198822,-0.479464590549469,-0.0762883797287941
1783002759027624400,4.08662451171875,-0.3836187720298767,-0.47187885642051697,-0.02394341677427292
1783002759037675300,4.09667529296875,-0.3858824372291565,-0.44522541761398315,0.04933932051062584
1783002759047727400,4.106727294921875,-0.39803579449653625,-0.43456369638442993,0.13501960039138794
1783002759057778400,4.1167783203125,-0.36643365025520325,-0.4425819516181946,0.22586961090564728
1783002759067830300,4.126830322265625,-0.3269096910953522,-0.42023909091949463,0.3445693552494049
1783002759077881300,4.13688134765625,-0.30506083369255066,-0.4707997441291809,0.4923290014266968
1783002759087933200,4.14693310546875,-0.26442578434944153,-0.712884783744812,0.5820615291595459
1783002759097984300,4.156984375,-0.2011277824640274,-0.9856353998184204,0.5417620539665222
1783002759108036400,4.167036376953125,-0.13620443642139435,-1.1509857177734375,0.3488277494907379
1783002759118087200,4.177087158203125,-0.06998281180858612,-1.1678251028060913,0.018974490463733673
1783002759128139500,4.187139404296875,-0.03115871734917164,-0.9988105893135071,-0.4115755558013916
1783002759138190600,4.197190673828125,-0.024590298533439636,-0.7281681299209595,-0.828910231590271
1783002759148242400,4.207242431640625,-0.045402903109788895,-0.3623211979866028,-1.1381770372390747
1783002759158294500,4.21729443359375,-0.0935422033071518,-0.04446094110608101,-1.2854011058807373
1783002759168345300,4.227345458984375,-0.1731637865304947,0.14832688868045807,-1.25090491771698
1783002759178397400,4.2373974609375,-0.2617762088775635,0.2814231514930725,-1.0361709594726562
1783002759188448500,4.247448486328125,-0.347362756729126,0.3016653060913086,-0.6902167797088623
1783002759198500400,4.257500244140625,-0.41698604822158813,0.17812207341194153,-0.30941829085350037
1783002759208551400,4.267551513671875,-0.4678649306297302,0.012627910822629929,0.045396775007247925
1783002759218602500,4.2776025390625,-0.49400439858436584,-0.11743022501468658,0.34559735655784607
1783002759228654300,4.287654296875,-0.522416353225708,-0.19418172538280487,0.5973081588745117
1783002759238705400,4.297705322265625,-0.5510871410369873,-0.25631195306777954,0.8165467381477356
1783002759248757200,4.30775732421875,-0.5695571899414062,-0.309328556060791,0.9734804630279541
1783002759258809300,4.317809326171875,-0.5690581202507019,-0.335894912481308,1.0218533277511597
1783002759268860400,4.3278603515625,-0.544238269329071,-0.35529178380966187,0.9860066175460815
1783002759278912800,4.337912841796875,-0.5139709115028381,-0.40940162539482117,0.9067499041557312
1783002759288963800,4.3479638671875,-0.5106006860733032,-0.4390285015106201,0.7785234451293945
1783002759299015700,4.358015625,-0.5146715641021729,-0.433289110660553,0.6067682504653931
1783002759309066800,4.368066650390625,-0.5160928964614868,-0.40976089239120483,0.41199448704719543
1783002759319118800,4.378118896484375,-0.5273016095161438,-0.3534027934074402,0.22847844660282135
1783002759329169700,4.388169677734375,-0.5477719902992249,-0.21847029030323029,0.08177768439054489
1783002759339221800,4.3982216796875,-0.5620657205581665,-0.08017739653587341,-0.014565893448889256
1783002759349272800,4.40827294921875,-0.5672482252120972,-0.022359633818268776,-0.06562827527523041
1783002759359324700,4.41832470703125,-0.5512953996658325,-0.017610153183341026,-0.10183901339769363
1783002759369375700,4.428375732421875,-0.5228837132453918,-0.027651067823171616,-0.1295318901538849
1783002759379427600,4.438427490234375,-0.4950656592845917,-0.024472054094076157,-0.13536101579666138
1783002759389478700,4.448478759765625,-0.4650864601135254,-0.015127819962799549,-0.12853480875492096
1783002759399531000,4.458531005859375,-0.43138042092323303,-0.0036876790691167116,-0.1114831194281578
1783002759409581600,4.46858154296875,-0.40654459595680237,0.013064403086900711,-0.07600368559360504
1783002759419634000,4.478634033203125,-0.38505715131759644,0.022345252335071564,-0.008057660423219204
1783002759429685000,4.48868505859375,-0.3530547320842743,0.030236465856432915,0.07200148701667786
1783002759439736800,4.49873681640625,-0.30602598190307617,0.0515097975730896,0.16604463756084442
1783002759449788000,4.508787841796875,-0.26482313871383667,0.03750583156943321,0.2516905665397644
1783002759459839700,4.51883984375,-0.22632715106010437,0.004732437431812286,0.30698123574256897
1783002759469890800,4.528890869140625,-0.17968827486038208,-0.015486814081668854,0.3124484419822693
1783002759479943000,4.53894287109375,-0.14270442724227905,-0.030016222968697548,0.2798321843147278
1783002759489993700,4.54899365234375,-0.10594373941421509,-0.0466841496527195,0.22535109519958496
1783002759500045800,4.5590458984375,-0.06843285262584686,-0.06622589379549026,0.1705019623041153
1783002759510097000,4.569096923828125,-0.036728985607624054,-0.084086112678051,0.11967659741640091
1783002759520148700,4.579148681640625,-0.02178092859685421,-0.09302900731563568,0.07645855844020844
1783002759530199800,4.58919970703125,-0.013798636384308338,-0.10721860080957413,0.042518965899944305
1783002759540251600,4.599251708984375,-0.004756405483931303,-0.12633290886878967,0.024383103474974632
1783002759550302700,4.609302734375,-0.0004444815858732909,-0.11808216571807861,-0.0034104441292583942
1783002759560354800,4.619354736328125,0.007866977714002132,-0.09366311132907867,-0.044508613646030426
1783002759570405600,4.629405517578125,0.03362400457262993,-0.06789995729923248,-0.10104326158761978
1783002759580457700,4.639457763671875,0.07237326353788376,-0.0019387812353670597,-0.1660883128643036
1783002759590508800,4.6495087890625,0.11035500466823578,0.046557117253541946,-0.23587538301944733
1783002759600560600,4.659560546875,0.12202763557434082,0.052135907113552094,-0.30532023310661316
1783002759610611700,4.66961181640625,0.10950252413749695,0.03802195191383362,-0.3681873381137848
1783002759620663800,4.679663818359375,0.10869266092777252,0.011680358089506626,-0.4174076318740845
1783002759630714600,4.689714599609375,0.09784214198589325,-0.014416489750146866,-0.45968449115753174
1783002759640767000,4.69976708984375,0.08639081567525864,-0.036378514021635056,-0.47685256600379944
1783002759650817800,4.70981787109375,0.08974239975214005,-0.007749798707664013,-0.44451114535331726
1783002759660870000,4.719869873046875,0.09370119124650955,0.10240573436021805,-0.3717067241668701
1783002759670921000,4.7299208984375,0.09619444608688354,0.24327097833156586,-0.2698836922645569
1783002759680972800,4.739972900390625,0.08917807787656784,0.3486756980419159,-0.17293715476989746
1783002759691024000,4.75002392578125,0.09050167351961136,0.39940065145492554,-0.09645889699459076
1783002759701075700,4.76007568359375,0.09646448493003845,0.39773592352867126,-0.06649034470319748
1783002759711126800,4.770126708984375,0.1058095172047615,0.3977617621421814,-0.06814922392368317
1783002759721179000,4.780178955078125,0.12677578628063202,0.39598381519317627,-0.09804587066173553
1783002759731229700,4.790229736328125,0.1525980681180954,0.37435150146484375,-0.14882409572601318
1783002759741281800,4.80028173828125,0.18845327198505402,0.37200605869293213,-0.2137618213891983
1783002759751332900,4.810332763671875,0.22969311475753784,0.3926197290420532,-0.2676143944263458
1783002759761384700,4.820384765625,0.2625059187412262,0.3988264799118042,-0.29230350255966187
1783002759771435800,4.830435791015625,0.2937653064727783,0.39790210127830505,-0.29178178310394287
1783002759781487600,4.840487548828125,0.3231479525566101,0.41260433197021484,-0.27286189794540405
1783002759791538700,4.85053857421875,0.34248119592666626,0.4230809509754181,-0.2522628605365753
1783002759801590800,4.8605908203125,0.35696929693222046,0.42768236994743347,-0.2084040641784668
1783002759811641600,4.8706416015625,0.3800317645072937,0.4261995255947113,-0.13419295847415924
1783002759821693700,4.880693603515625,0.379641056060791,0.3916061222553253,-0.04519277811050415
1783002759831744800,4.890744873046875,0.37974944710731506,0.33410632610321045,0.03289829567074776
1783002759841796900,4.900796875,0.3720957934856415,0.2938753068447113,0.07945328205823898
1783002759851848000,4.910847900390625,0.36016616225242615,0.26914918422698975,0.0961286649107933
1783002759861899800,4.920899658203125,0.35437512397766113,0.25623685121536255,0.084112748503685
1783002759871950800,4.930950927734375,0.35823485255241394,0.28077226877212524,0.04556455463171005
1783002759882003000,4.9410029296875,0.35710006952285767,0.3095458745956421,-0.016435964033007622
1783002759892053800,4.9510537109375,0.36397743225097656,0.3314775228500366,-0.08517508208751678
1783002759902105900,4.96110595703125,0.3611014783382416,0.3108292520046234,-0.15769588947296143
1783002759912157000,4.971156982421875,0.3703562319278717,0.2671864330768585,-0.19813652336597443
1783002759922208800,4.981208740234375,0.3768775165081024,0.24553945660591125,-0.1865360587835312
1783002759932259800,4.991259765625,0.39608341455459595,0.3015816807746887,-0.14319869875907898
1783002759942311700,5.001311767578125,0.4187985956668854,0.39926642179489136,-0.07761436700820923
1783002759952362800,5.01136279296875,0.4367416501045227,0.4634352922439575,0.005310076754540205
1783002759962414800,5.021414794921875,0.43752992153167725,0.4393286406993866,0.08601850271224976
1783002759972465700,5.031465576171875,0.4434914290904999,0.43652912974357605,0.12190939486026764
1783002759982517800,5.041517822265625,0.4151359498500824,0.43652963638305664,0.07537518441677094
1783002759992568800,5.05156884765625,0.36326903104782104,0.2858317494392395,-0.11842837929725647
1783002760002620700,5.06162060546875,0.321505069732666,0.085065096616745,-0.46269574761390686
1783002760012671700,5.071671630859375,0.284821093082428,-0.1150304451584816,-0.8561133146286011
1783002760022723600,5.0817236328125,0.24543319642543793,-0.299881249666214,-1.171722412109375
1783002760032774700,5.091774658203125,0.20957453548908234,-0.44223707914352417,-1.3314356803894043
1783002760042827000,5.101826904296875,0.17056028544902802,-0.5942910313606262,-1.3170362710952759
1783002760052877600,5.111877685546875,0.13805986940860748,-0.7184532284736633,-1.1428442001342773
1783002760062930000,5.121929931640625,0.11494815349578857,-0.7378631234169006,-0.8413522243499756
1783002760072981000,5.13198095703125,0.10591711103916168,-0.6845887303352356,-0.4802406430244446
1783002760083032800,5.14203271484375,0.08908859640359879,-0.5865029096603394,-0.13430507481098175
1783002760093084000,5.152083984375,0.05596845969557762,-0.49117717146873474,0.1497596651315689
1783002760103135700,5.1621357421875,0.036554016172885895,-0.3679575026035309,0.35970810055732727
1783002760113186800,5.172186767578125,0.028977856040000916,-0.21119986474514008,0.47155022621154785
1783002760123239000,5.182239013671875,0.017432786524295807,-0.05459533631801605,0.4716799259185791
1783002760133289700,5.192289794921875,0.010899785906076431,0.07841891050338745,0.37355759739875793
1783002760143341800,5.202341796875,0.020434968173503876,0.19349542260169983,0.2380349338054657
1783002760153393000,5.212392822265625,0.03942703455686569,0.25717082619667053,0.09154243022203445
1783002760163444700,5.22244482421875,0.0614447183907032,0.23707033693790436,-0.05251726880669594
1783002760173495800,5.232495849609375,0.07898962497711182,0.2424997240304947,-0.17465968430042267
1783002760183547600,5.242547607421875,0.08148367702960968,0.2623719573020935,-0.2800191342830658
1783002760193598700,5.2525986328125,0.07987751811742783,0.27874109148979187,-0.34991592168807983
1783002760203650800,5.26265087890625,0.07210002839565277,0.2755173146724701,-0.36488261818885803
1783002760213701600,5.27270166015625,0.05991286784410477,0.2517470121383667,-0.340040922164917
1783002760223753700,5.282753662109375,0.0367891751229763,0.19028232991695404,-0.28653642535209656
1783002760233804800,5.2928046875,0.0214775949716568,0.14944913983345032,-0.2031557857990265
1783002760243856600,5.302856689453125,0.009999903850257397,0.14521285891532898,-0.09969117492437363
1783002760253907700,5.31290771484375,0.010966897010803223,0.12242551147937775,0.015968846157193184
1783002760263959800,5.322959716796875,0.020857078954577446,0.08928726613521576,0.12607218325138092
1783002760274011000,5.333010986328125,0.03139440715312958,0.05776103585958481,0.21726015210151672
1783002760284063000,5.34306298828125,0.03827574849128723,0.04471553862094879,0.27403420209884644
1783002760294113800,5.35311376953125,0.038552720099687576,0.0635070726275444,0.2807648181915283
1783002760304166100,5.363166259765625,0.04049709066748619,0.10267657786607742,0.24055135250091553
1783002760314217200,5.37321728515625,0.0436694510281086,0.11289752274751663,0.16106745600700378
1783002760324269000,5.38326904296875,0.056462209671735764,0.14515532553195953,0.09386949986219406
1783002760334320000,5.393320068359375,0.044679321348667145,0.33420833945274353,0.18765830993652344
1783002760344372000,5.4033720703125,0.041421741247177124,0.3433810770511627,0.31342077255249023
1783002760354423000,5.413423095703125,0.06408897042274475,0.14776229858398438,0.22785846889019012
1783002760364475100,5.42347509765625,0.057977281510829926,-0.04111654311418533,0.021344969049096107
1783002760374526000,5.43352587890625,0.06819157302379608,-0.11501073837280273,-0.0585557222366333
1783002760384578000,5.443578125,0.06548180431127548,-0.10475543886423111,-0.029285984113812447
1783002760394629000,5.453629150390625,0.06634173542261124,-0.09427856653928757,-0.022473350167274475
1783002760404681000,5.463680908203125,0.05222911760210991,-0.10665453970432281,-0.10007946193218231
1783002760414732000,5.47373193359375,0.030528347939252853,-0.14419978857040405,-0.2310049831867218
1783002760424784000,5.483783935546875,0.015538212843239307,-0.16501665115356445,-0.3314359784126282
1783002760434835000,5.4938349609375,-0.008709868416190147,-0.14572738111019135,-0.3399817943572998
