time,seconds_elapsed,z,y,x
1783002712295855400,0.08685546875,-0.14974866291880606,-0.20769144106060267,-0.3568467777287587
1783002712305907200,0.0969072265625,-0.3462006248235702,-0.18987609064579009,-0.2032130900701508
1783002712315958300,0.106958251953125,-0.43201194536089893,-0.21817337984740734,0.023470508365985004
1783002712326010000,0.117010009765625,-0.27505495849847794,-0.25943624134510757,0.1655287994452752
1783002712336061200,0.127061279296875,-0.32199615789353847,-0.34189094493091104,0.24425134903173892
1783002712346113500,0.137113525390625,-0.2487742698162794,-0.25746844840347766,0.3046379401290789
1783002712356164000,0.1471640625,-0.06283259600996971,-0.2591036483898759,0.1975785365155898
1783002712366216400,0.157216552734375,0.021918401819467543,-0.28752807110249995,0.01701297082363162
1783002712376267500,0.167267578125,-0.14644728328585624,-0.25638620612472296,-0.18348027039514853
1783002712386319400,0.1773193359375,-0.4085661878436804,-0.27173984260112044,-0.33575233257804066
1783002712396370400,0.187370361328125,-0.047644963750243186,-0.28035598751604557,-0.3901344956288114
1783002712406422300,0.19742236328125,0.2589741767913103,-0.23551672883629798,-0.41790735909752547
1783002712416473300,0.207473388671875,0.2304214515239,-0.2156570131123066,-0.41824086536820976
1783002712426525400,0.217525390625,0.1553279243558645,-0.17002835762053728,-0.33724107329845426
1783002712436576300,0.227576171875,-0.04068739969730377,-0.3234744137525558,-0.23906068505346773
1783002712446628400,0.23762841796875,-0.02155775181353092,-0.4157832796156406,-0.05188432748620398
1783002712456679400,0.247679443359375,0.19880524703264235,-0.40201106711179013,0.039144124911213295
1783002712466731300,0.257731201171875,0.21430793659090994,-0.33277795640975233,-0.198059652829729
1783002712476782300,0.2677822265625,0.12978081064522265,-0.23939707740098237,-0.5308620495609939
1783002712486834200,0.277834228515625,0.1407242294639349,-0.20549597684293985,-0.5736058337988331
1783002712496885200,0.28788525390625,0.3639081309497356,-0.24015286420434712,-0.5428501551270485
1783002712506937300,0.297937255859375,0.5270183797448873,-0.3227221340805292,-0.5683098828151821
1783002712516988200,0.30798828125,0.49086628538966176,-0.3820794551953673,-0.5151494435790925
1783002712527040300,0.318040283203125,0.664212681517005,-0.389293916618824,-0.3619206103943288
1783002712537091300,0.32809130859375,0.9472522090286016,-0.35130642352998254,-0.2554475370351225
1783002712547143200,0.33814306640625,0.8946925852298736,-0.48883974799811836,-0.25075258415192364
1783002712557194200,0.3481943359375,0.5891361054837704,-0.6866612446904182,-0.08130248307706787
1783002712567246300,0.358246337890625,0.3897217866420746,-0.8195493737012147,0.1923483259782195
1783002712577297400,0.36829736328125,0.47312838412523267,-0.8734995750755071,0.26130280240196735
1783002712587349500,0.378349609375,0.5474374829173088,-0.8112278278186917,0.1254007141311653
1783002712597400300,0.388400390625,0.7618991487652063,-0.8109004955604672,-0.18769534907322377
1783002712607452400,0.398452392578125,0.8740782517462968,-0.9738245741337537,-0.4181635988809168
1783002712617503500,0.40850341796875,0.6800532247275114,-1.1450038553550839,-0.351786242936179
1783002712627555300,0.418555419921875,0.8941483953505754,-1.1269456360951065,-0.20933873334359376
1783002712637606400,0.4286064453125,1.2925357190072535,-0.6989376656785606,-0.38988844844587145
1783002712647658200,0.438658203125,1.2265280000925063,-0.14488631757944823,-0.7767888209916651
1783002712657709300,0.448709228515625,0.7178945873439312,0.006563596299290657,-0.6840919056590646
1783002712667761400,0.458761474609375,0.34180034403800963,-0.3231947200283408,-0.2975399081595242
1783002712677812200,0.468812255859375,0.5895014316648245,-1.2992685343936086,0.48268560928255316
1783002712687864300,0.4788642578125,-0.14798399133384227,-2.164373206089437,1.5634565003104508
1783002712697915400,0.488915283203125,2.001418147855997,-2.192706297256797,-0.3268435979247093
1783002712707967200,0.49896728515625,1.0748311257153749,-2.036621124792844,-0.6498679298222064
1783002712718018300,0.509018310546875,1.3670651825517415,-1.9835994364403187,-0.3960379840515554
1783002712728070100,0.519070068359375,1.81386728528738,-1.8651072047896682,-0.4898138537272811
1783002712738121200,0.529121337890625,1.36760878790915,-1.7519868754357097,-0.22231194095686077
1783002712748172300,0.53917236328125,0.26141514020264145,-1.5747411337822674,0.07181786649823188
1783002712758224100,0.54922412109375,-0.0053653264254331584,-1.239221039057523,0.38797202036529777
1783002712768275200,0.559275146484375,0.2536760703831911,-1.1886461593352258,0.6532376985162496
1783002712778327300,0.569327392578125,0.04784428571462631,-1.4213899163268506,0.49967999870330093
1783002712788378000,0.579378173828125,-0.2725309929788112,-1.6115899782299994,0.27166012842841447
1783002712798430500,0.589430419921875,-0.4920177935123443,-1.6918781514316796,0.1454175018467009
1783002712808481300,0.599481201171875,-0.3722966045886278,-1.8276748613655567,0.2713406141504645
1783002712818533400,0.609533447265625,-0.12736731976270674,-1.8467615468904375,0.276390664081648
1783002712828584400,0.61958447265625,0.37068741582632064,-1.939896926705539,-0.15903357394076884
1783002712838636300,0.62963623046875,0.6489221734046936,-2.0461817109510303,-0.3342405763082206
1783002712848687400,0.639687255859375,0.7218792730659246,-2.0004028333336112,-0.23793599187247455
1783002712858739500,0.649739501953125,0.6122691437900066,-2.029054927322268,-0.18409816483147443
1783002712868790300,0.659790283203125,0.01710661762356758,-1.709692040541768,0.2810211003612727
1783002712878842400,0.66984228515625,-1.1125368792533874,-1.3958976015433668,0.8187778048068285
1783002712888893400,0.6798935546875,-0.44025545757114887,-1.3781433336660265,0.2544815415471792
1783002712898945300,0.6899453125,0.29285248099565503,-1.507577522830665,-0.6600273586563765
1783002712908996400,0.699996337890625,0.021265490868687627,-1.4448185765787958,-0.8750937123991549
1783002712919048200,0.710048095703125,-0.2798351785123348,-1.2498217819184063,-0.7053775625329465
1783002712929099300,0.720099365234375,-0.19941081171035765,-1.24811790060997,-0.5702662775799632
1783002712939151400,0.7301513671875,-0.14332418282926082,-1.391661571408808,-0.32563487972207367
1783002712949202200,0.7402021484375,-0.4641133030205965,-1.5279206381574273,-0.12807612561918794
1783002712959254300,0.750254150390625,-0.6249725580185651,-1.5177262841403483,-0.06594086422361434
1783002712969305300,0.760305419921875,-0.497535095629096,-1.3592524629741907,-0.02288395891599357
1783002712979357200,0.770357177734375,-0.40112113253474235,-1.0803767771437764,-0.24472287553362546
1783002712989408300,0.780408203125,-0.4751444001227617,-0.833991448290646,-0.5415286241997033
1783002712999460000,0.790460205078125,-0.6343453665196895,-0.7962249044761062,-0.7834639879066496
1783002713009511200,0.80051123046875,-0.27296295465528964,-1.0241659373611212,-0.9798397427700459
1783002713019563500,0.8105634765625,0.15199731862843036,-1.0875976683080195,-0.8080418181937188
1783002713029614300,0.8206142578125,-0.15570611001849174,-0.6379553737103939,-0.5785138083782047
1783002713039666400,0.83066650390625,-0.7361369309991598,-0.492745815525949,-0.6202755593087523
1783002713049717500,0.840717529296875,-0.919451763433218,-0.7412105810016393,-0.6097678284935653
1783002713059769300,0.850769287109375,-0.8891372891902923,-0.7521423093825578,-0.40355625072717666
1783002713069820400,0.8608203125,-0.8856424328118562,-0.6529395923525094,-0.23400705492570995
1783002713079872300,0.870872314453125,-0.9226216256409883,-0.6774675921484827,-0.12643456895723937
1783002713089923300,0.88092333984375,-1.223997604832053,-0.7508180750414729,0.022442279563099146
1783002713099975400,0.890975341796875,-1.6314678141325711,-0.8442737728521227,0.06497472260519861
1783002713110026200,0.901026123046875,-1.8476292696356773,-0.6508101791083812,0.038347485507652164
1783002713120078300,0.911078369140625,-2.1846464710503817,-0.3417214335829019,0.010298691174387932
1783002713130129400,0.92112939453125,-2.425518004918098,-0.09929244114011526,-0.1454270003274083
1783002713140181200,0.93118115234375,-2.578374570724368,0.19310206695497034,-0.35503165459819136
1783002713150232300,0.941232421875,-2.585377727484703,0.5142968453377484,-0.44824338758513327
1783002713160284200,0.9512841796875,-2.149368821442127,0.8017123959764838,-0.4763808100499212
1783002713170335200,0.961335205078125,-1.4198118533551691,1.05359778355062,-0.4952304719485342
1783002713180387300,0.97138720703125,-0.8869359797537326,1.2684937491625548,-0.5520159698139876
1783002713190438100,0.981438232421875,-0.6359101316183805,1.4298101002782582,-0.6076110888510942
1783002713200490200,0.991490234375,-0.42336862017810345,1.4995739568561315,-0.5785288598168641
1783002713210541300,1.001541259765625,-0.02397299626171589,1.399828803512454,-0.5048843624133617
1783002713220593200,1.01159326171875,0.38117315400540824,1.2546139846310018,-0.3896727598685771
1783002713230644200,1.021644287109375,0.5469990915000439,1.0474445216178894,-0.1343818016346544
1783002713240696000,1.031696044921875,0.6865864258885384,0.7789435148075222,0.18087028882615266
1783002713250747100,1.0417470703125,0.9178338068425654,0.6070008479982614,0.5245782931163907
1783002713260799200,1.05179931640625,0.9048755410701036,0.5398398673951625,0.7864402272384613
1783002713270850300,1.061850341796875,0.7427507961809635,0.5661658565238118,0.9928490811426192
1783002713280902100,1.071902099609375,0.5945481936603784,0.5482143125087022,1.137864139668271
1783002713290953200,1.081953125,0.6756576201170682,0.45166240224838256,1.1162496892314404
1783002713301005000,1.092005126953125,0.7829857759356498,0.47040743472874164,1.081557803621888
1783002713311056100,1.10205615234375,0.683437021946907,0.6233291747257113,1.001787443749234
1783002713321108200,1.112108154296875,0.5682903013318776,0.7530673152729869,0.8433178603667766
1783002713331159000,1.122158935546875,0.6372019249945878,0.8231888992473483,0.6849103824350983
1783002713341211400,1.13221142578125,0.6464654279023409,0.8876537726342677,0.46818438838440923
1783002713351262200,1.14226220703125,0.626925445652008,0.9865139598369598,0.3280283141972497
1783002713361314300,1.152314208984375,0.43007308625280855,1.0270274642720818,0.26176249233558774
1783002713371365400,1.162365478515625,0.3081038261413574,0.9537810262754559,0.19162983897794036
1783002713381417200,1.172417236328125,0.4712357022464275,0.9241437206417321,0.10429222218878567
1783002713391468300,1.18246826171875,0.3895452610313892,0.9605836920276284,0.11048946939371526
1783002713401520000,1.19252001953125,0.30862405062317844,0.8850631716191768,0.1659341471094638
1783002713411571200,1.2025712890625,0.5331202037513256,0.639797786706686,0.27949926108885553
1783002713421623300,1.212623291015625,0.5511807610988617,0.41053339626342056,0.39731107272729277
1783002713431674400,1.22267431640625,0.34088498275876045,0.2691322904512286,0.5328689689366146
1783002713441726200,1.232726318359375,0.21067104139328002,0.19679390721023082,0.5256667094076052
1783002713451777300,1.24277734375,0.2670394098252058,0.18671295043975114,0.5717638226613402
1783002713461829000,1.2528291015625,0.31762802581191063,0.16744652443379163,0.7682999557182192
1783002713471880200,1.262880126953125,0.27498715395927426,0.07185790624767542,0.8562683812242001
1783002713481932300,1.272932373046875,0.48677054050862784,-0.016692483864724637,0.8495324970979243
1783002713491983000,1.282983154296875,0.7925099756062031,0.029627661022543904,0.8527149995915592
1783002713502035200,1.29303515625,0.8210036641627549,0.09613076223880052,0.7023979622002691
1783002713512086300,1.303086181640625,0.588174566975236,0.097362642121315,0.619642595167458
1783002713522138000,1.31313818359375,0.43117958618998525,-0.012217092016339302,0.6883554813876748
1783002713532189200,1.323189208984375,0.4018757502943277,-0.2609650583475828,0.7246158584229647
1783002713542241000,1.333240966796875,0.5028174199461937,-0.5147887205079198,0.5621360895510763
1783002713552292000,1.3432919921875,0.5897691426903009,-0.5502586778178811,0.31666009409520773
1783002713562344200,1.35334423828125,0.525610851034522,-0.44232378827780483,0.16885997142829
1783002713572395300,1.363395263671875,0.3514946395784616,-0.3950263227909803,0.1749695768823847
1783002713582447400,1.373447265625,0.3094803751915693,-0.48610272424966094,0.24776564076300708
1783002713592498200,1.383498291015625,0.3466962993860245,-0.6350283803477883,0.2251657594854012
1783002713602550300,1.39355029296875,0.5839928973764181,-0.7279024788782,0.27928178241327406
1783002713612601300,1.403601318359375,0.7712035682052374,-0.6934358533918857,0.41148729945477097
1783002713622653200,1.413653076171875,0.6254770004093647,-0.6141285079210996,0.4922856872009113
1783002713632704300,1.423704345703125,0.24722119515538213,-0.577191400668025,0.573695192582719
1783002713642756000,1.433756103515625,0.23139234238266942,-0.6641799482911824,0.5439329088624566
1783002713652807200,1.44380712890625,0.6639046384811401,-0.7548477689489722,0.3002293299065903
1783002713662859300,1.453859375,0.7756833439677954,-0.6896507818952202,0.11639244635980575
1783002713672910300,1.463910400390625,0.5825006129920483,-0.57016953920722,0.12236045138612389
1783002713682961200,1.473961181640625,0.43721068304777144,-0.5820826798409223,0.17672453079093248
1783002713693013200,1.48401318359375,0.33944062916934487,-0.7094049914181232,0.24846264658384024
1783002713703065000,1.494065185546875,0.33285774364769455,-0.8601338975459337,0.36307737921401856
1783002713713116200,1.5041162109375,0.2230278341412544,-0.8971028612419962,0.4253100365694612
1783002713723168300,1.514168212890625,0.10737316400408745,-0.863691882288456,0.3879059328591451
1783002713733219000,1.524218994140625,0.12427987514138221,-0.8613537947297095,0.39718817699998615
1783002713743270100,1.534270263671875,0.13203531157374382,-0.8386103402629494,0.47785932163726536
1783002713753322200,1.544322265625,-0.06038987903296947,-0.821018569470942,0.5978353986375033
1783002713763374000,1.5543740234375,-0.14898235472142696,-0.938103564672172,0.6710055565275251
1783002713773425200,1.564425048828125,0.035706104153394695,-1.0319549838021398,0.7379877464976161
1783002713783476200,1.574476318359375,0.09681962128579616,-0.9179235309526323,0.716755719507113
1783002713793528300,1.5845283203125,-0.04532558089196682,-0.8016229641273618,0.6854029151923954
1783002713803579100,1.5945791015625,-0.28867373400628565,-0.8115279798090458,0.671823083455488
1783002713813631200,1.60463134765625,-0.35040450625419617,-0.8837290004059671,0.6051114905877039
1783002713823682300,1.614682373046875,-0.15833353591263294,-0.9169239985212683,0.5242612630564719
1783002713833734400,1.624734375,-0.09502806169390678,-1.0651581652238964,0.5153094564463943
1783002713843786200,1.6347861328125,-0.13326163849830627,-1.4673045491531491,0.792201859505102
1783002713853837300,1.64483740234375,-0.3960930752396583,-1.4367264555379748,0.9994215183354913
1783002713863888400,1.654888427734375,-0.8466881405174732,-1.0404244137227534,1.1580375244513152
1783002713873940200,1.664940185546875,-1.0517185456752776,-0.7478986804634332,1.2077084410712122
1783002713883991300,1.6749912109375,-1.2534522473752499,-0.5782254198908805,0.9662054043669253
1783002713894043100,1.685043212890625,-1.5275789851129054,-0.4027747449606657,0.5846399996409193
1783002713904094200,1.69509423828125,-1.5450702181398868,-0.14779899015575645,0.2898886810203083
1783002713914146300,1.705146240234375,-1.4461726215362547,0.10769435878247022,0.05894214617637917
1783002713924197000,1.715197021484375,-1.2639449998170136,0.355438408768177,-0.10077851497940718
1783002713934249200,1.725249267578125,-0.9918605815619229,0.560147034625709,-0.23975812926571816
1783002713944300300,1.73530029296875,-0.6775637459993362,0.6038868076309561,-0.39400709927845745
1783002713954352000,1.74535205078125,-0.47030572791993613,0.5852683241397142,-0.43593832502439617
1783002713964403200,1.7554033203125,-0.5583545982509851,0.6280228854998946,-0.33676713564377275
1783002713974455000,1.765455078125,-0.7642612017214298,0.6678872783765196,-0.24271719826702026
1783002713984506000,1.775506103515625,-0.8233984503448009,0.6477934616357087,-0.20082219461193307
1783002713994558200,1.78555810546875,-0.7750935613811015,0.6110135907709598,-0.29953822410358116
1783002714004609000,1.795609130859375,-0.4749257889360189,0.6035676586791873,-0.5371244344240054
1783002714014661400,1.805661376953125,-0.09220189835727215,0.7288359603360295,-0.5804070017136633
1783002714024712400,1.81571240234375,-0.07419336345791816,0.8302607373297214,-0.5178383904021233
1783002714034764300,1.825764404296875,-0.18714578889906405,0.7778744242712855,-0.49548777117785064
1783002714044815400,1.8358154296875,-0.08371464051902294,0.7288342067703605,-0.5524892133489251
1783002714054867200,1.8458671875,-0.013440496331453323,0.8039177970662713,-0.6034648924244568
1783002714064918300,1.855918212890625,-0.1144768585294485,0.8863444436013698,-0.7077990905914455
1783002714074970400,1.865970458984375,-0.18834522781670093,0.9042553633451461,-0.8286098283175378
1783002714085021200,1.876021240234375,-0.14957564443945884,0.924798677419126,-0.9298493118721991
1783002714095073300,1.8860732421875,-0.11104513051509857,0.9351049673780798,-1.0328063399344682
1783002714105124400,1.896124267578125,-0.07136603107750415,0.9524377949729561,-1.1340271918538958
1783002714115176200,1.90617626953125,-0.0322463190883398,1.0287947662055492,-1.0670748855654149
1783002714125227300,1.916227294921875,-0.13948913471102714,1.0767866436973212,-1.0115110384494066
1783002714135279000,1.926279052734375,-0.17354747165739534,1.1088158129036425,-1.049898125315085
1783002714145330200,1.936330078125,-0.24676877521276472,1.099881395819783,-0.9623425914589315
1783002714155382300,1.94638232421875,-0.1784042640388012,0.9525821718797087,-0.8159095558941364
1783002714165433000,1.95643310546875,0.16252105073034762,0.7306327806249261,-0.7211386838316917
1783002714175485200,1.966485107421875,0.36873394367098805,0.5828676927387714,-0.6521330982752144
1783002714185536300,1.976536376953125,0.39729894389808174,0.519827591457963,-0.5983214285887778
1783002714195588000,1.986588134765625,0.5023042097270488,0.4870885204166174,-0.5801197457375005
1783002714205639200,1.99663916015625,0.6574374882936477,0.4985255679711699,-0.6402397583205253
1783002714215691000,2.00669091796875,0.9901865108698605,0.5461170479685068,-0.600106704570353
1783002714225742000,2.0167421875,0.987822704347968,0.49956747823953623,-0.5058976311091333
1783002714235797800,2.0267978515625,0.6902969708442688,0.34143414107412096,-0.3891878989610821
1783002714245848800,2.036848876953125,0.5458996058255434,0.13702303685843945,-0.277194034620095
1783002714255901000,2.04690087890625,0.6135246968090534,-0.03410188382714987,-0.2098778999879025
1783002714265951700,2.05695166015625,0.5340414102494716,-0.2088853270202875,-0.09186839208658784
1783002714276003800,2.06700390625,0.37291853587925433,-0.3624877427577972,-0.06298918394432403
1783002714286055000,2.077054931640625,0.34703181495070456,-0.41189825487583875,-0.047768170004803684
1783002714296106800,2.087106689453125,0.4280623309522867,-0.3536474336981773,-0.03844926538169384
1783002714306157800,2.09715771484375,0.5030787012308836,-0.269985692410171,-0.09247797535229474
1783002714316210000,2.1072099609375,0.4210124124407768,-0.21414456272274254,-0.2054221078891307
1783002714326260700,2.1172607421875,0.49175125153064725,-0.15053630616515873,-0.24773367472216484
1783002714336312800,2.127312744140625,0.5835504143059254,-0.0677107234403491,-0.16374697579611092
1783002714346364000,2.137364013671875,0.39517362230718134,-0.03126753718405962,-0.11491046417374164
1783002714356415700,2.147415771484375,0.18928981519043445,-0.10081716648936272,-0.08001026957575232
1783002714366466800,2.157466796875,0.15787585527300835,-0.16139321574419735,-0.1293734719533473
1783002714376518700,2.1675185546875,0.1820505115866661,-0.08297901972085236,-0.22277429777160285
1783002714386569700,2.17756982421875,0.13113280977606773,-0.026143910560011863,-0.31207167032640426
1783002714396621800,2.187621826171875,-0.010384615892171859,-0.10396744721382856,-0.3804377158703282
1783002714406672600,2.197672607421875,-0.13885609750449657,-0.2708881942078471,-0.430836398775503
1783002714416725000,2.20772509765625,-0.007919102561473846,-0.42972675703316926,-0.6700250210575759
1783002714426775800,2.21777587890625,0.19789397740662096,-0.48508945555388927,-0.7453012113161385
1783002714436828000,2.227827880859375,0.024766776987910268,-0.4868976740196347,-0.6406186746355146
1783002714446879000,2.23787890625,-0.378818115311861,-0.634094606629014,-0.6824016875497997
1783002714456930800,2.247930908203125,-0.3004290537297726,-0.7204705753117799,-0.764966208185628
1783002714466982000,2.25798193359375,-0.03690788115859032,-0.6856888925269246,-0.6753405169919133
1783002714477033700,2.26803369140625,-0.07416179927587509,-0.7007490990146994,-0.6095300376823172
1783002714487084800,2.278084716796875,-0.036009471014142036,-0.8180731636688112,-0.6266570039741695
1783002714497137000,2.288136962890625,0.22180676791369913,-0.9050944445177912,-0.6008460516955703
1783002714507188000,2.29818798828125,0.43867023420631884,-0.974295991037786,-0.545932046790421
1783002714517239800,2.30823974609375,0.4784124620079994,-1.0931745916575193,-0.4836093365313485
1783002714527291000,2.318290771484375,0.5222708929568529,-1.23334703245759,-0.4596591366233304
1783002714537342700,2.3283427734375,0.5634867004424333,-1.3631380722358821,-0.48555959381628777
1783002714547393800,2.338393798828125,0.7316033792227506,-1.4243512503504752,-0.48282465242706235
1783002714557446000,2.34844580078125,0.701798023545742,-1.3817524640738963,-0.36691264652796085
1783002714567496700,2.35849658203125,0.39623511405885214,-1.3665470038965344,-0.3368308119971305
1783002714577548800,2.368548828125,0.08154021908938884,-1.4075792715087532,-0.3939202612452209
1783002714587600000,2.378599853515625,-0.008346388062834739,-1.3171610416978596,-0.4906254623711109
1783002714597651700,2.388651611328125,0.014299158987402916,-1.1222814436763524,-0.5838058503717184
1783002714607702800,2.398702880859375,-0.09698621002435684,-0.9609542789056896,-0.6439504494067281
1783002714617755000,2.4087548828125,-0.16271978817284105,-0.8702607392847538,-0.6890357918020338
1783002714627806000,2.418805908203125,-0.08783610436320305,-0.7827493368312716,-0.6755575207434594
1783002714637857800,2.42885791015625,-0.05078384629786014,-0.6504623885840177,-0.6594798077762126
1783002714647908900,2.438908935546875,-0.2367097380131483,-0.5926660331755876,-0.7664693792901933
1783002714657961000,2.4489609375,-0.2639034498870373,-0.5720452699512243,-0.8856512006402015
1783002714668011800,2.45901171875,-0.05438099400699138,-0.5288499790862202,-0.8509466016795486
1783002714678063900,2.46906396484375,-0.034113866525888444,-0.7511936303555965,-0.6858687791384757
1783002714688115000,2.479114990234375,-0.2054647049218416,-1.1008782979026437,-0.39867571214400227
1783002714698166800,2.489166748046875,-0.47095045556426046,-1.189718903133273,-0.18756481802873312
1783002714708217900,2.4992177734375,-0.4784510404527187,-1.1497715081483124,-0.16159319529570637
1783002714718270000,2.50927001953125,-0.5521475603044033,-1.0448702872157096,-0.1487849324531853
1783002714728320800,2.51932080078125,-0.7922481097996235,-0.9275576207384466,-0.11684665640071033
1783002714738372900,2.529372802734375,-0.9902595761060714,-0.8346352991521357,-0.1486376329369843
1783002714748424000,2.539423828125,-1.1023100842714308,-0.6997872682452202,-0.23891367779821157
1783002714758475800,2.549475830078125,-1.249949207690358,-0.46904520646482706,-0.3386209833495319
1783002714768526800,2.55952685546875,-1.460493407833576,-0.23247049300819633,-0.4307816729135811
1783002714778578700,2.56957861328125,-1.3925181882381439,0.10922229900211095,-0.4684259055227041
1783002714788629800,2.579629638671875,-1.6074568239480256,0.47693566745370625,-0.4021871543310582
1783002714798681900,2.589681884765625,-2.0661533626168964,0.7714370847001671,-0.3348811392340809
1783002714808732700,2.599732666015625,-2.0669944896161554,1.0066101146653295,-0.29946766135171055
1783002714818784800,2.60978466796875,-1.6547475674331187,1.2372460857227443,-0.3742226772803813
1783002714828835800,2.6198359375,-1.3087176230013369,1.48227883092314,-0.6234111539207399
1783002714838888000,2.629887939453125,-0.870681595045328,1.6217723495483398,-0.5646966242214665
1783002714848939000,2.63993896484375,-0.43860067610144615,1.6552613621741532,-0.4786960647223517
1783002714858990800,2.649990966796875,-0.020330255845189094,1.6188652299299835,-0.24472393497955053
1783002714869042000,2.6600419921875,0.2744745282620191,1.5276315920829773,0.03747990889288485
1783002714879093800,2.67009375,0.49211423962414264,1.4379995442137121,0.3821684851856902
1783002714889144800,2.680144775390625,0.4949193601727485,1.3032462058529257,0.7139413196735084
1783002714899197000,2.690197021484375,0.236906137368083,1.1194961968719959,0.9295737828664481
1783002714909248000,2.700248046875,0.04396189132332801,0.9576566986650228,1.027815984301269
1783002714919299800,2.7102998046875,0.06021218437850475,0.8504889941051602,1.0055163280792534
1783002714929351000,2.720350830078125,0.046778117787837976,0.831546393226087,0.9072492844641208
1783002714939402800,2.73040283203125,-0.20527473530769347,0.8531216806963086,0.7353618549734353
1783002714949453800,2.740453857421875,-0.20084464390575885,0.9141732385084033,0.5700304229974746
1783002714959506000,2.750505859375,0.11110592079162597,0.9858283156603574,0.6069606255857274
1783002714969556700,2.760556640625,0.10283552057445049,1.0364353440865874,0.6254645793192088
1783002714979608800,2.77060888671875,-0.10782616846859454,0.9992658893823623,0.6171316352598368
1783002714989660000,2.780659912109375,-0.17676468013823032,0.9429866605386137,0.5647292113168165
1783002714999711700,2.790711669921875,0.12273907544016838,0.9472095389306545,0.5488522450860589
1783002715009763800,2.800763916015625,0.34458208371102805,0.9750579153209924,0.4882245387092232
1783002715019814700,2.810814697265625,0.26396014851033683,0.995525241549313,0.367905968414247
1783002715029865700,2.82086572265625,0.06408990259468555,0.9972478275582194,0.3327162528177723
1783002715039917800,2.830917724609375,0.12028875967860221,0.9179445737406611,0.3135135031651705
1783002715049970000,2.840969970703125,0.4181488397032022,0.7862637746930122,0.2027423855521716
1783002715060021000,2.85102099609375,0.6966010394245385,0.7063850590750574,0.12071807274026795
1783002715070072800,2.86107275390625,0.8189514078080654,0.6395008495867252,0.13138910435838624
1783002715080124000,2.8711240234375,0.8665724061608314,0.5550076259106397,0.14346558232763781
1783002715090175700,2.88117578125,0.8976333148568868,0.416243298342824,0.15123119309414176
1783002715100226800,2.891226806640625,0.9646727149069309,0.3075368399083614,0.14261808038651944
1783002715110279000,2.90127880859375,1.080903723627329,0.23812165063768623,0.11952343786191194
1783002715120330000,2.911330078125,1.1449912881344557,0.170142631649971,0.15307565191704778
1783002715130381800,2.9213818359375,1.152521683639288,0.11162643753439187,0.20167181544490156
1783002715140433000,2.931432861328125,1.0879203243911266,0.037839316789805885,0.21231588599085807
1783002715150484700,2.941484619140625,1.0522019452780484,0.013499533042311667,0.2418688378093764
1783002715160535800,2.951535888671875,0.7621697824001312,0.0586456657141447,0.3435360452568158
1783002715170588000,2.961587890625,0.34969314311444755,-0.0038020226314663887,0.3747041771870106
1783002715180638700,2.971638671875,0.21726620187461376,-0.11212006627023219,0.2926305818732828
1783002715190690800,2.98169091796875,0.21360124962627886,-0.1309489776417613,0.15740412784172222
1783002715200742000,2.991741943359375,0.16106325313746928,-0.06950345207601785,0.06897869754955172
1783002715210793700,3.001793701171875,-0.08069441591501235,-0.11883096208572387,0.10386230633892118
1783002715220844800,3.0118447265625,-0.2952554504841566,-0.26289894901961086,0.16746731149349361
1783002715230897000,3.02189697265625,-0.3348948024332523,-0.3850125860378146,0.23317392856981603
1783002715240948200,3.0319482421875,-0.23491291772425174,-0.46611821310222146,0.2533592229863629
1783002715251000300,3.042000244140625,-0.12238836230635643,-0.5197130251675844,0.20182090505938977
1783002715261051100,3.052051025390625,-0.15988661057353018,-0.5767185224592686,0.14088004108015448
1783002715271103500,3.062103515625,-0.3089291710495949,-0.6672384590789675,0.12765826553329826
1783002715281154300,3.072154296875,-0.3273527164906263,-0.7635340564906596,0.039146033740509296
1783002715291206400,3.082206298828125,-0.2593558695852756,-0.8494801093235611,-0.02028203278928995
1783002715301257500,3.092257568359375,-0.07591653398871422,-0.9025511897757649,-0.05510200175791979
1783002715311309300,3.102309326171875,0.08914894052743912,-0.9528563126459717,0.00016786738019436596
1783002715321360400,3.1123603515625,0.05146364525556564,-1.0230082917585968,0.046929490690957754
1783002715331412200,3.122412109375,-0.022249825730919836,-1.0869351127460598,0.05854531061220914
1783002715341463300,3.13246337890625,0.09657119948267937,-1.1272460803464055,0.06522120817955583
1783002715351515400,3.142515380859375,0.30380759025216103,-1.1387824966222047,0.11839288119571283
1783002715361566200,3.152566162109375,0.30579379563331605,-1.1684157106027007,0.1574216634984128
1783002715371618300,3.162618408203125,0.2536059277564287,-1.2241162627756594,0.1827502756201662
1783002715381669400,3.17266943359375,0.20472528473138807,-1.2274103358849882,0.20152318248813972
1783002715391721200,3.18272119140625,0.15321370868086814,-1.206580606085062,0.16914509024629368
1783002715401772300,3.192772216796875,0.21907763521075246,-1.1918296116769314,0.0695273809408769
1783002715411824000,3.20282421875,0.21537118190824983,-1.16162824241966,0.05189301311615854
1783002715421875200,3.212875244140625,0.13494798415005207,-1.1453089757815003,0.06529704989474266
1783002715431927300,3.22292724609375,0.02948445315957069,-1.1516384710639715,0.10329908296559005
1783002715441978000,3.23297802734375,-0.18067571610212324,-1.1792515773937104,0.20851790021369232
1783002715452030200,3.2430302734375,-0.15546645604372022,-1.160552137620747,0.1723835972434841
1783002715462081300,3.253081298828125,0.1395867498666048,-1.0809382104188203,0.14845106085631996
1783002715472133400,3.26313330078125,-0.08191606666445732,-0.9813383107647299,0.12670987876728176
1783002715482184200,3.27318408203125,-0.2636480138212442,-0.9500181666105985,0.09794994048997759
1783002715492236300,3.283236328125,-0.11915595625638961,-1.1381854075118898,0.31341917594522234
1783002715502287400,3.293287353515625,-0.08403905016779899,-1.4800824899226426,0.7174263853102922
1783002715512339500,3.30333935546875,-0.4309598059594631,-1.466228736615181,0.9346399802148342
1783002715522390300,3.313390380859375,-0.8082020502567291,-1.1634344150587916,0.9549150718066841
1783002715532442400,3.3234423828125,-1.0291162532448768,-0.9805915840506553,0.8385546645529568
1783002715542493400,3.333493408203125,-1.2630869216829537,-0.8481018067076802,0.5988948445625603
1783002715552545300,3.343545166015625,-1.4049638283133505,-0.555020193131268,0.45053358088154344
1783002715562596400,3.353596435546875,-1.4408826984345913,-0.1654088811263442,0.27380515936678274
1783002715572648200,3.363648193359375,-1.5167647456318138,0.1586202438995242,0.036716833832208064
1783002715582699300,3.37369921875,-1.421462543171644,0.3915685835525393,-0.1600620219393633
1783002715592751400,3.38375146484375,-1.1751152082413434,0.5832672134503721,-0.22392653654664754
1783002715602802200,3.39380224609375,-0.9555518353402614,0.7128174302101135,-0.19199916548067703
1783002715612854300,3.403854248046875,-0.8397183015048504,0.8004282013848424,-0.13002161539746449
1783002715622905300,3.4139052734375,-0.8326578615993261,0.9302142727270721,-0.13586102560805155
1783002715632957200,3.423957275390625,-0.8532020524561404,1.0549807623416185,-0.23730658966144547
1783002715643008300,3.43400830078125,-0.6462573381096124,1.0518833808481693,-0.3489893056940287
1783002715653060000,3.44406005859375,-0.30287820044755936,0.9712924253076315,-0.3950821811640635
1783002715663111200,3.454111083984375,-0.049912324160337446,0.8530193893656134,-0.2778190163843334
1783002715673163300,3.464163330078125,0.09042670537829399,0.7193167291015387,-0.11082047318005933
1783002715683214000,3.474214111328125,0.1752355708748102,0.6446235994279385,-0.06894755349261686
1783002715693266400,3.484266357421875,0.13466039938032626,0.6693015290886163,-0.09283910028226673
1783002715703317500,3.4943173828125,-0.01416997964978218,0.7366355281710625,-0.23245514930859207
1783002715713369300,3.504369384765625,-0.02607961315214634,0.8194491281971334,-0.4451327082186937
1783002715723420400,3.51442041015625,-0.0024187515795230864,0.902810132972896,-0.553239483726956
1783002715733472300,3.52447216796875,-0.2749778016090393,0.9638535074785352,-0.631212183060497
1783002715743523300,3.5345234375,-0.3111585375368595,0.9536050851866602,-0.7798954087048768
1783002715753575400,3.544575439453125,-0.1888870796084404,1.047339015416801,-0.8620637696299701
1783002715763626200,3.554626220703125,-0.32673838398456573,1.2248004456475377,-0.9110556910097598
1783002715773678300,3.56467822265625,-0.6852168911010027,1.2716992672055958,-0.9698430302169173
1783002715783729400,3.5747294921875,-0.918873671284318,1.2120809570670128,-0.9558071983408182
1783002715793781200,3.58478125,-0.8131476899653672,1.1480819476261734,-0.9508084402054547
1783002715803832300,3.594832275390625,-0.6096136608451604,1.139352405464649,-0.9224553291633725
1783002715813884200,3.60488427734375,-0.4674754729300737,1.1151026380881666,-0.8294595039494335
1783002715823935200,3.614935302734375,-0.4581044179946184,0.9990168830573558,-0.6889284589700401
1783002715833987300,3.6249873046875,-0.3078226711124182,0.8696507906928658,-0.5826609911855309
1783002715844038100,3.6350380859375,0.02714695012271404,0.7770408960565924,-0.5237965681541711
1783002715854090200,3.64509033203125,0.24250761063694953,0.6990224213525652,-0.5032717395849525
1783002715864141300,3.655141357421875,0.3230570651233196,0.6362500310972332,-0.5784789562605321
1783002715874193200,3.665193115234375,0.517002012643218,0.5725552652999758,-0.6062099898815154
1783002715884244200,3.675244140625,0.6518728399038315,0.532765106703341,-0.6368889135226607
1783002715894296300,3.68529638671875,0.5251905797958374,0.5277002245292067,-0.6998831298351288
1783002715904347100,3.69534716796875,0.44237201133370396,0.459216763150692,-0.6991236897699534
1783002715914399500,3.7053994140625,0.5039800339847803,0.30025311264097687,-0.6673040716610849
1783002715924450300,3.7154501953125,0.4966553901851177,0.17876082239151,-0.6064031013008206
1783002715934502400,3.72550244140625,0.517568998876214,0.12323328869789837,-0.5948731878310441
1783002715944553500,3.735553466796875,0.577926144683361,0.06970452760607004,-0.6574496171228588
1783002715954605300,3.745605224609375,0.3862830443650484,0.03587327741384506,-0.7629806603915988
1783002715964656400,3.755656494140625,0.42133740661144253,0.05803367129564285,-0.825696278958395
1783002715974708200,3.765708251953125,0.6635030719429255,0.11291618508398532,-0.6509498798400163
1783002715984760300,3.77576025390625,0.5258329693526029,0.08166442999094724,-0.5746798562385141
1783002715994811400,3.785811279296875,0.4013052569299936,-0.01666004289984703,-0.6737583623670041
1783002716004862200,3.7958623046875,0.5389876344799995,-0.04371376178115606,-0.652292380490154
1783002716014914300,3.805914306640625,0.7809715135037899,-0.09571721300184727,-0.5578174591669812
1783002716024966100,3.815966064453125,0.9314426454782485,-0.2203969011157751,-0.4899207847004756
1783002716035017200,3.826017333984375,0.9226876766145229,-0.3418447677016258,-0.35614158860147
1783002716045069300,3.8360693359375,0.9137322167426347,-0.502110148459673,-0.25732940525896847
1783002716055120100,3.8461201171875,0.8936445374816656,-0.7134253329753876,-0.21187026111520826
1783002716065172200,3.856172119140625,0.920482860046625,-0.8159852514788508,-0.21062654466442762
1783002716075223300,3.866223388671875,0.8389315350413322,-0.8245014431506394,-0.2459194649070501
1783002716085275100,3.876275146484375,0.6565788256376981,-0.829769154420495,-0.3127195032432675
1783002716095326200,3.886326171875,0.4123720098674297,-0.9267465966165065,-0.43837833858765657
1783002716105378300,3.89637841796875,0.2883966706305742,-1.0275558720603584,-0.5412778643090278
1783002716115429400,3.906429443359375,0.34635143147110936,-1.0931114632934331,-0.4273051559094339
1783002716125481500,3.9164814453125,0.1351911452561617,-1.2104828742206095,-0.3352854091860354
1783002716135532300,3.9265322265625,-0.034331308668851854,-1.3570067298740147,-0.3935273164048791
1783002716145584400,3.93658447265625,0.06730652655363083,-1.3905962802648544,-0.4014247185911983
1783002716155635500,3.946635498046875,0.09497194759249687,-1.3297729782506822,-0.37833230455629524
1783002716165687300,3.956687255859375,0.06411152990460395,-1.2442916203200816,-0.3934709831077605
1783002716175738400,3.96673828125,0.03038695495724678,-1.1615098767369985,-0.41000988384597004
1783002716185790200,3.976790283203125,0.02466565470099449,-1.080768991331756,-0.48137978738099335
1783002716195841300,3.98684130859375,-0.021887422159314156,-1.0252604545995592,-0.5768278280526399
1783002716205893400,3.996893310546875,-0.053908700320124625,-0.9743982823684811,-0.6421299559812993
1783002716215944200,4.006944091796875,-0.03057984718084335,-0.9557400513887405,-0.6425768229659646
1783002716225996300,4.016996337890625,-0.17916063536405563,-0.9596116321250796,-0.6680714027717709
1783002716236043000,4.02704296875,-0.041237434795498844,-0.8986413228556513,-0.7890015290938317
1783002716246094800,4.0370947265625,0.09533902733922005,-0.729396224567294,-0.6293710121732204
1783002716256146000,4.04714599609375,-0.4134750026732683,-0.5405231734842062,-0.5543547149598598
1783002716266198000,4.057197998046875,-0.5762409680753946,-0.5348503885447978,-0.607268924349919
1783002716276248800,4.067248779296875,-0.2543909406542778,-0.5705436332166195,-0.5947565757140517
1783002716286301200,4.07730126953125,-0.10857201839983463,-0.7544029477909207,-0.42958866373673077
1783002716296352300,4.087352294921875,-0.31370413036644457,-0.9432967494010924,-0.13311346219927073
1783002716306404000,4.097404052734375,-0.6364461381912231,-0.9819526432707906,0.025124431319162248
1783002716316455200,4.107455078125,-0.8893488861143588,-1.0398536280974746,-0.011470730628445744
1783002716326507000,4.117507080078125,-0.9762421566694974,-0.9906915377825498,-0.13963234257400034
1783002716336558000,4.12755810546875,-1.1911018819242716,-0.7623948233276605,-0.257407219735533
1783002716346610200,4.137610107421875,-1.6160709230363368,-0.5200339276850223,-0.40547896241806447
1783002716356661000,4.147660888671875,-1.8351070571929216,-0.3068459350347519,-0.5700308613888919
1783002716366713000,4.157713134765625,-1.8597569298028944,-0.006605974136292934,-0.6184389184661209
1783002716376764200,4.16776416015625,-1.9446938055932521,0.15349690953642128,-0.6087993487875908
1783002716386816000,4.17781591796875,-2.0613860020846126,0.16462708309888838,-0.5359221094295382
1783002716396867000,4.1878671875,-2.086309430938959,0.21476766305714845,-0.41119704780392347
1783002716406919000,4.1979189453125,-2.0800649835914373,0.36604689654409883,-0.2690857478957623
1783002716416970000,4.207969970703125,-2.1499738015979526,0.5119111192449927,-0.12899236368127168
1783002716427022000,4.21802197265625,-2.1308657810240983,0.5930670151919126,0.06989457028545439
1783002716437073000,4.228072998046875,-1.8406909948050976,0.6335840267583728,0.4037299267936498
1783002716447125000,4.238125,-1.3942717539072036,0.6617530134052038,0.6622515375118703
1783002716457176000,4.248176025390625,-0.9189812233120203,0.6747709004104137,0.8452200407262891
1783002716467228000,4.258227783203125,-0.5027338333159684,0.738182465352118,0.928655645108223
1783002716477279000,4.268279052734375,-0.11829729360044001,0.772509682367742,1.0171411532908678
1783002716487331000,4.2783310546875,0.19768121143877504,0.7566632939383388,0.9717069243926554
1783002716497382000,4.2883818359375,0.3691898707449436,0.7937365947917103,1.1547959852468221
1783002716507434200,4.298434326171875,0.25547581328153607,0.8648334535390139,1.445610896000266
1783002716517485000,4.308485107421875,0.0735381144195795,0.8046499107331037,1.500118585126847
1783002716527537200,4.318537109375,-0.046530865028500554,0.8141770330131053,1.3046771154388785
1783002716537588200,4.328588134765625,-0.07446458161473274,1.0262629096403717,1.134866638352722
1783002716547640000,4.33864013671875,-0.1345972710162401,1.2638795333653687,1.050193089673668
1783002716557691100,4.348691162109375,-0.22576398110687732,1.3730381194815038,0.9199258837509899
1783002716567743000,4.358742919921875,-0.21525252396464348,1.3936767106235026,0.8324906152736395
1783002716577795000,4.368795166015625,-0.07634323496818542,1.4416501756757496,0.8223937302816658
1783002716587846100,4.37884619140625,0.06816811181902885,1.5335659505680204,0.7888374976385384
1783002716597898000,4.38889794921875,0.26277532263994213,1.5818044962972402,0.672292673728615
1783002716607949000,4.398948974609375,0.4623375255197286,1.6043106348767875,0.5598500975057482
1783002716618001000,4.4090009765625,0.6064432141155004,1.604470501613617,0.4991951377958059
1783002716628052000,4.419052001953125,0.686096596544981,1.5483888411685824,0.4639749174632132
1783002716638104000,4.42910400390625,0.816934222766757,1.4367647417217493,0.45672637110706416
1783002716648155000,4.43915478515625,0.7887748807311058,1.3222487202256916,0.4758141891431063
1783002716658207000,4.44920703125,0.613700637897849,1.2558978869616984,0.5174374449184164
1783002716668258000,4.459258056640625,0.4547539385229349,1.1883972991406917,0.578732273434475
1783002716678310100,4.46931005859375,0.34403614026606083,1.0969883047267794,0.612167035122402
1783002716688361000,4.47936083984375,0.3877022635132074,0.9848705765441059,0.5793842345371842
1783002716698413000,4.4894130859375,0.5046908126026391,0.8992340280517935,0.4976538631705567
1783002716708464000,4.499464111328125,0.5754618003964423,0.8602534322723746,0.41974714174531397
1783002716718516200,4.50951611328125,0.6832593272924423,0.7615718165069818,0.39812713835053143
1783002716728567000,4.519567138671875,0.8870634055256843,0.5964212940558791,0.430766036953032
1783002716738619100,4.529619140625,0.9661223291933536,0.39747254689931866,0.4966343839297071
1783002716748670200,4.539670166015625,0.8432558279812336,0.18549129969030617,0.5166182009574025
1783002716758722000,4.54972216796875,0.5866355208396912,0.008481412619352341,0.4336756407894194
1783002716768773000,4.559773193359375,0.4432236597269773,-0.14147124843895434,0.40522579137459397
1783002716778825000,4.569824951171875,0.3335919031411409,-0.18313772230148315,0.4810166531570255
1783002716788876000,4.5798759765625,0.10115034396648406,-0.23010376387685536,0.58485999906715
1783002716798928100,4.58992822265625,-0.14899638324677944,-0.28233868576586246,0.6477986492674798
1783002716808979000,4.59997900390625,-0.30559096653759477,-0.26152327675223347,0.6407465387988835
1783002716819031000,4.610031005859375,-0.2902840918123722,-0.18250176248550415,0.46957485636211926
1783002716829082000,4.62008203125,-0.3176894006103277,-0.05050853648781776,0.2490331947471015
1783002716839134000,4.630134033203125,-0.38778000492453574,-0.00277151053994894,0.13899867517980746
1783002716849185000,4.64018505859375,-0.48807753145396704,-0.08375058861523867,0.1390021183790639
1783002716859236900,4.65023681640625,-0.3519926522284746,-0.15927490841597317,0.0907733177257236
1783002716869288000,4.660287841796875,-0.12484101615548134,-0.17035218274742364,0.18630893621612338
1783002716879340000,4.670340087890625,-0.24968086326718328,-0.19550825131386518,0.2874504940879531
1783002716889390800,4.680390869140625,-0.3219453044891357,-0.2856482487052679,0.329713454272598
1783002716899443200,4.690443115234375,-0.2224398051202297,-0.32126112161725756,0.36203627266325056
1783002716909494000,4.700493896484375,-0.09153612792491912,-0.32266514319628475,0.38328952510487285
1783002716919546000,4.710546142578125,0.08232406294345855,-0.40738603814840313,0.3708150607939809
1783002716929597200,4.72059716796875,0.2868810053706169,-0.5451332976281642,0.4034014985568821
1783002716939649000,4.73064892578125,0.4189730155676603,-0.6302762173846364,0.5031976514354348
1783002716949700000,4.7407001953125,0.4836182139575481,-0.6620896980136632,0.5897891990976408
1783002716959752200,4.750752197265625,0.5567419023573398,-0.7310799398705363,0.572804490820691
1783002716969803000,4.760802978515625,0.6713333271771669,-0.7689823850244283,0.47233621083423494
1783002716979855000,4.770855224609375,0.5608049140125513,-0.7146458146810531,0.38887737170718606
1783002716989906200,4.78090625,0.39168344210386274,-0.7691498505458235,0.4164537627557292
1783002716999958000,4.7909580078125,0.3735352064728737,-0.911549612006545,0.4972082017622888
1783002717010009000,4.801009033203125,0.4409849408894777,-0.9842474762097001,0.5749838076211512
1783002717020061000,4.81106103515625,0.5666051247239112,-0.9747127551451324,0.5687230301933363
1783002717030112000,4.821112060546875,0.6353074895501136,-0.9254302533209323,0.5584164114408194
1783002717040164000,4.8311640625,0.6947469359904527,-0.9105527099236845,0.5355129806393757
1783002717050215000,4.84121484375,0.7061427747517823,-0.8561623635664581,0.4924653911493718
1783002717060267000,4.85126708984375,0.6883534355610609,-0.7608204136177897,0.46776795307062563
1783002717070318000,4.861318115234375,0.7036895363807678,-0.7366837512269616,0.47073838371615856
1783002717080370000,4.871369873046875,0.6248001240611076,-0.7374503516852855,0.4942785049859434
1783002717090421000,4.8814208984375,0.47990825352370736,-0.755137107284367,0.5357219472149387
1783002717100472800,4.891472900390625,0.36317806310951706,-0.7240405427530408,0.501204249128513
1783002717110524000,4.90152392578125,0.2541606390297413,-0.6957426690295339,0.4983227388754487
1783002717120576300,4.911576171875,0.3060112377762794,-0.8036001094192265,0.5301240906752646
1783002717130628000,4.921628173828125,0.48043140061497686,-1.198392915715277,0.7372527832865715
1783002717140679200,4.93167919921875,0.44552667597234247,-1.5685528005361555,1.152900526889041
1783002717150731000,4.94173095703125,0.062216509938240044,-1.3628648082524537,1.2737668672598899
1783002717160782000,4.951781982421875,-0.31314591196179387,-0.9833180864050984,1.086861024596542
1783002717170834200,4.961834228515625,-0.6504249791830777,-0.813356948801875,0.7443789819046854
1783002717180885000,4.971885009765625,-0.9231786750018596,-0.6904182591363788,0.48051527950614686
1783002717190937000,4.98193701171875,-1.07935357157588,-0.5081850844591855,0.3877178629411384
1783002717200988200,4.99198828125,-1.257991059848666,-0.26957623482644555,0.24301749638784675
1783002717211040000,5.0020400390625,-1.3656740204542874,-0.028670506428182124,0.10930115465829149
1783002717221091000,5.012091064453125,-1.384050804144144,0.22844050683975217,0.0075393459962680934
1783002717231143000,5.022142822265625,-1.2864052534282207,0.42796734614521265,-0.1168882670527324
1783002717241194000,5.032194091796875,-1.1381605653315783,0.5647931068658828,-0.2090621083592996
1783002717251246000,5.04224609375,-1.0115227288872004,0.6919596433594822,-0.2657122163420543
1783002717261297000,5.052296875,-0.8906202212244272,0.8378215279728174,-0.30645949300043285
1783002717271349000,5.062348876953125,-0.785631906530261,0.9638929627060889,-0.37997477453369644
1783002717281400000,5.072400146484375,-0.6366711791187525,0.9854092134654522,-0.41877212270069863
1783002717291452000,5.082451904296875,-0.40365854205787177,0.9076850455328822,-0.36052754860073327
1783002717301503000,5.0925029296875,-0.1962070472329855,0.8423135786950587,-0.2812177554445341
1783002717311555000,5.10255517578125,-0.110285252058506,0.8578302967786788,-0.22007932306658476
1783002717321606000,5.11260595703125,-0.0674386285007,0.8432239715382456,-0.23560753065859896
1783002717331658200,5.122658203125,-0.10951309864223002,0.7780436433583497,-0.33482232171893117
1783002717341709000,5.132708984375,-0.39809214010238647,0.7527005277872085,-0.4356496808087453
1783002717351761200,5.14276123046875,-0.6061784256994724,0.7453837750330566,-0.4542890974901616
1783002717361812200,5.152812255859375,-0.5943804358780383,0.6785024881541729,-0.4417504819018766
1783002717371864000,5.162864013671875,-0.5318728340387344,0.6363651819095015,-0.4756157439615577
1783002717381915100,5.1729150390625,-0.6465180348724127,0.698819592256844,-0.6165594613950699
1783002717391967000,5.182967041015625,-0.921456673514843,0.8104518750101327,-0.8552052089720964
1783002717402018000,5.19301806640625,-1.1511585785925387,0.9197624368175864,-1.1026852742593736
1783002717412070100,5.203070068359375,-1.157547987368703,0.9415627652153372,-1.2121557758688926
1783002717422121000,5.213120849609375,-1.1260323206424712,0.9334729822620749,-1.2063661596167832
1783002717432173000,5.223173095703125,-1.1611702695190906,0.9703381933227181,-1.1955477554172276
1783002717442224000,5.23322412109375,-1.1625649387478827,0.998719945937395,-1.161806375465542
1783002717452276000,5.24327587890625,-1.0256377634793519,1.0088181461036205,-1.1116298474110662
1783002717462327000,5.2533271484375,-0.7574895156294107,0.9520163546904921,-1.047709894555807
1783002717472379000,5.26337890625,-0.4717489124655723,0.8788377212330698,-0.9930589975662529
1783002717482430000,5.273429931640625,-0.27110592861175536,0.807431942667067,-0.8967303016025573
1783002717492482000,5.28348193359375,-0.1384662214040756,0.6902183526501059,-0.7514363530702889
1783002717502532900,5.293532958984375,0.05689326908886432,0.5419099516674876,-0.6640572717595845
1783002717512585000,5.3035849609375,0.2636240484237671,0.4292965489223599,-0.5602199171988294
1783002717522636000,5.313635986328125,0.3310457257896662,0.29534488233327866,-0.4917226099580526
1783002717532688100,5.323688232421875,0.37932664935588833,0.15112112031579017,-0.4847819239746779
1783002717542739200,5.3337392578125,0.48597091456353664,0.07447218039929866,-0.5470994831345976
1783002717552791000,5.343791015625,0.6226917536050081,0.039974282991886136,-0.6059974431093782
1783002717562843100,5.353843017578125,0.5990010814160108,0.04088730618357658,-0.6291288009151816
1783002717572894200,5.363894287109375,0.5558534290850162,-0.01975041013062,-0.6269217923901975
1783002717582946000,5.373946044921875,0.6774433344900608,-0.06672668083906173,-0.6403766825731844
1783002717592997000,5.3839970703125,0.6616174043267965,0.006914893954992294,-0.6670414752021432
1783002717603049000,5.394049072265625,0.47222763589322564,0.11501666449457407,-0.7085015397723764
1783002717613100000,5.40410009765625,0.355104646769166,0.145990771690011,-0.7573747301433235
1783002717623152000,5.414152099609375,0.385606752538681,0.14311170912235974,-0.811540912355855
1783002717633203000,5.424202880859375,0.4432195680737495,0.17691811713427305,-0.8382391688629984
1783002717643255000,5.434255126953125,0.530318005812168,0.17812193996608255,-0.8114693084243685
1783002717653306000,5.44430615234375,0.5565706374436616,0.14257628707140682,-0.7204474866971373
1783002717663358000,5.45435791015625,0.3683440675705671,0.11638444571644067,-0.6283338511452079
1783002717673409000,5.464408935546875,0.172656660297513,0.12780191178768874,-0.5053082138486206
1783002717683460900,5.4744609375,0.087707509547472,0.11812661320865153,-0.4840296443026513
1783002717693512000,5.484511962890625,-0.029918168401718136,0.16416764889359473,-0.5852100911464542
1783002717703564000,5.49456396484375,0.1287900460422039,0.1663905856400728,-0.7038318674609064
1783002717713614800,5.50461474609375,0.24740648859441278,0.10162000730484723,-0.8218303242452443
1783002717723667200,5.514667236328125,0.30509470745325085,-0.0003112579062581062,-0.7426927823834121
1783002717733718300,5.52471826171875,0.29183658195137974,-0.11363047083318233,-0.6160886290129274
1783002717743770000,5.53477001953125,0.3115168494552374,-0.2598673262387514,-0.5814200512137264
1783002717753821200,5.5448212890625,0.3395546109378338,-0.3007964257374406,-0.5026542287411168
1783002717763873000,5.554873046875,0.25352351016998287,-0.3964242068901658,-0.38346232438851147
1783002717773924000,5.564924072265625,0.270468799751997,-0.5786544589579105,-0.37521216324176637
1783002717783976200,5.57497607421875,0.34584698908030986,-0.6404942445382475,-0.3609468334587291
1783002717794027000,5.585027099609375,0.2261258001565933,-0.6459642003819346,-0.2942641561581753
1783002717804079000,5.5950791015625,0.15038111560344694,-0.6841238351672887,-0.2556696188205853
1783002717814130200,5.605130126953125,0.3043868514448404,-0.7684984008997678,-0.314720431269519
1783002717824182000,5.61518212890625,0.430154334795475,-0.7968912594303488,-0.39356158400066193
1783002717834233000,5.625233154296875,0.42460780658423897,-0.7985270439386367,-0.5675665171019733
1783002717844285000,5.635284912109375,0.5459112962633371,-0.8019061649829149,-0.7535096522130071
1783002717854336000,5.6453359375,0.590251957771182,-0.7466299757018685,-0.8927085718058049
1783002717864388000,5.65538818359375,0.6048854632794857,-0.7051417810156941,-0.9838917946398258
1783002717874439000,5.66543896484375,0.34019057075381276,-0.7094234038576483,-0.907896057935059
1783002717884491000,5.675490966796875,0.15724690971970556,-0.73358140129745,-0.7915555244255811
1783002717894542000,5.6855419921875,0.12499883706569671,-0.7497641820743679,-0.5220565926190466
1783002717904594000,5.695593994140625,0.23928280337154864,-0.8100935630917548,-0.46866442698631433
1783002717914645000,5.70564501953125,0.42284196595549584,-0.9414861928477882,-0.7066715478662401
1783002717924696800,5.71569677734375,0.23973639235794542,-0.9972826066106557,-0.8563663617059588
1783002717934748000,5.725747802734375,-0.03393383378386497,-0.9970666257724166,-0.9044982321903109
1783002717944800300,5.73580029296875,-0.22730653437376022,-0.9485235441386699,-0.9440247714146971
1783002717954851000,5.74585107421875,-0.24036592243313787,-0.8875938591405749,-0.9486789538960904
1783002717964903200,5.755903076171875,-0.1712497161090374,-0.7866387454852461,-0.8499528414018451
1783002717974955000,5.765955078125,-0.28537410793900486,-0.6688692751511931,-0.6619853608563542
1783002717985006000,5.776006103515625,-0.362697001594305,-0.6230249310821294,-0.5616015442829578
1783002717995058200,5.78605810546875,-0.10199322453141212,-0.6235290812119841,-0.9148599055983125
1783002718005109000,5.79610888671875,0.2432441082179546,-0.6306622940927743,-1.336119278537482
1783002718015161000,5.8061611328125,1.5271885244905947,-0.39926001483798024,-1.1379423925362526
1783002718025212200,5.816212158203125,2.5416689341396093,-0.17591624661535024,-0.1467797301106155
1783002718035264000,5.826263916015625,-0.8962029897928238,-0.55662967415452,-0.20407113167159258
1783002718045315000,5.836315185546875,-1.6660218256413937,-0.807001150034368,-0.6580214256614446
1783002718055367000,5.846366943359375,-1.3864298082351685,-0.6404629726171494,-0.7375016434811055
1783002718065418000,5.85641796875,-2.378738133564591,-0.28020868799984455,-0.5109766879390925
1783002718075470000,5.866469970703125,-2.7421079198539253,-0.18797727128714323,-0.5527579472877084
1783002718085521000,5.87652099609375,-2.381913256469369,0.3811855750955641,-0.7367968562126159
1783002718095573000,5.886572998046875,-1.838718817949295,1.0472200652122496,-0.8958021539069712
1783002718105624000,5.8966240234375,-1.015866895571351,0.9139411833181976,-1.2089512076739222
