time,seconds_elapsed,z,y,x
1783002712282036200,0.0730361328125,-0.02088717184960842,-0.10402946174144745,0.3343691825866699
1783002712292087300,0.08308740234375,-0.008902414701879025,-0.036308206617832184,0.3410358726978302
1783002712302139400,0.093139404296875,0.0229340773075819,-0.023120231926441193,0.28069451451301575
1783002712312190200,0.103190185546875,0.06118239834904671,0.0015326491557061672,0.17296218872070312
1783002712322242300,0.1132421875,0.11452950537204742,0.0037643781397491693,0.053286656737327576
1783002712332293400,0.12329345703125,0.15888285636901855,-0.012499280273914337,-0.02365526184439659
1783002712342345200,0.13334521484375,0.19277425110340118,0.006184126250445843,-0.03994289040565491
1783002712352396300,0.143396240234375,0.21826469898223877,0.0873120054602623,-0.01691719889640808
1783002712362448100,0.1534482421875,0.2325781136751175,0.16164135932922363,0.010989267379045486
1783002712372499200,0.163499267578125,0.19679509103298187,0.17449244856834412,0.062131013721227646
1783002712382551600,0.173551513671875,0.12455391138792038,0.25697267055511475,0.15833531320095062
1783002712392602400,0.183602294921875,0.06727704405784607,0.35132715106010437,0.2622270882129669
1783002712402654500,0.193654541015625,0.0588044598698616,0.36086446046829224,0.30817219614982605
1783002712412705500,0.20370556640625,0.0893503874540329,0.2565348446369171,0.25765764713287354
1783002712422757400,0.21375732421875,0.13329467177391052,0.08319368958473206,0.14744006097316742
1783002712432808400,0.223808349609375,0.13470853865146637,-0.052197691053152084,0.025720544159412384
1783002712442860300,0.2338603515625,0.10905271768569946,-0.0746859535574913,-0.042212702333927155
1783002712452911400,0.243911376953125,0.08641957491636276,-0.046784281730651855,-0.07957285642623901
1783002712462963500,0.25396337890625,0.08127621561288834,-0.03146471455693245,-0.08321738988161087
1783002712473014300,0.26401416015625,0.07963091135025024,0.0106531772762537,-0.05607738345861435
1783002712483066400,0.27406640625,0.05669976398348808,0.11302215605974197,0.006618754006922245
1783002712493117400,0.284117431640625,0.06860888749361038,0.23119141161441803,0.06579792499542236
1783002712503169300,0.294169189453125,0.11176647990942001,0.26352059841156006,0.10228802263736725
1783002712513220400,0.304220458984375,0.1606258898973465,0.2484489530324936,0.12995587289333344
1783002712523272200,0.314272216796875,0.2137884497642517,0.22000852227210999,0.14972610771656036
1783002712533323300,0.3243232421875,0.2752787172794342,0.15236796438694,0.12398266792297363
1783002712543375400,0.334375244140625,0.3174858093261719,0.026981815695762634,0.04921495169401169
1783002712553426200,0.34442626953125,0.29729291796684265,-0.09747595340013504,-0.0445682667195797
1783002712563478300,0.354478271484375,0.2497997134923935,-0.12111496925354004,-0.10009943693876266
1783002712573529300,0.364529296875,0.22357051074504852,-0.073979951441288,-0.08243149518966675
1783002712583581400,0.37458154296875,0.28150439262390137,0.0781232938170433,-0.06534545123577118
1783002712593632300,0.38463232421875,0.4424951374530792,0.34274616837501526,-0.16055798530578613
1783002712603684400,0.394684326171875,0.7000417113304138,0.5807339549064636,-0.3979282081127167
1783002712613735400,0.4047353515625,0.9386721253395081,0.8318591117858887,-0.6611904501914978
1783002712623787500,0.41478759765625,1.047094464302063,1.1821225881576538,-0.9164541959762573
1783002712633838300,0.42483837890625,0.9493466019630432,1.4739187955856323,-1.1863125562667847
1783002712643890400,0.434890380859375,0.7684378027915955,1.6021372079849243,-1.477246642112732
1783002712653941500,0.44494140625,0.5004324913024902,1.6176410913467407,-1.9631028175354004
1783002712663993300,0.454993408203125,0.341646283864975,1.4727011919021606,-2.2557339668273926
1783002712674044400,0.46504443359375,0.43496158719062805,0.985296368598938,-2.387450695037842
1783002712684096300,0.47509619140625,0.5253655314445496,1.113221287727356,-2.283978223800659
1783002712694147300,0.485147216796875,0.5389550924301147,1.0917325019836426,-2.0060794353485107
1783002712704199400,0.495199462890625,0.5005395412445068,1.1147522926330566,-1.5802537202835083
1783002712714250200,0.505250244140625,0.42603546380996704,1.1855450868606567,-1.0378836393356323
1783002712724302300,0.51530224609375,0.3149520754814148,1.1414614915847778,-0.49759700894355774
1783002712734353400,0.525353515625,0.21513548493385315,0.8442862629890442,-0.04012132063508034
1783002712744404200,0.535404296875,0.08308583498001099,0.3979644179344177,0.353260338306427
1783002712754456300,0.545456298828125,-0.09101832658052444,-0.08745288103818893,0.7204135656356812
1783002712764507400,0.55550732421875,-0.25408419966697693,-0.5683947205543518,0.9824537038803101
1783002712774559200,0.565559326171875,-0.374518483877182,-0.9747113585472107,1.1123645305633545
1783002712784610300,0.5756103515625,-0.45205506682395935,-1.2714159488677979,1.1227269172668457
1783002712794662100,0.585662109375,-0.47877776622772217,-1.3840043544769287,1.0632177591323853
1783002712804713200,0.595713134765625,-0.45435604453086853,-1.3161113262176514,0.9672026038169861
1783002712814765300,0.605765380859375,-0.3452458083629608,-1.0990886688232422,0.8525412678718567
1783002712824816000,0.615816162109375,-0.1917521208524704,-0.7564194798469543,0.7147362232208252
1783002712834868500,0.625868408203125,-0.056298427283763885,-0.38753893971443176,0.5293962359428406
1783002712844919600,0.63591943359375,0.07022649049758911,-0.1459425538778305,0.3872377276420593
1783002712854971400,0.645971435546875,0.13355858623981476,-0.03642458841204643,0.30817753076553345
1783002712865022500,0.6560224609375,0.09274138510227203,0.11756204813718796,0.04030774161219597
1783002712875074300,0.66607421875,0.07185634970664978,0.26896142959594727,-0.14970001578330994
1783002712885125400,0.67612548828125,0.1336400806903839,0.44670799374580383,-0.17921076714992523
1783002712895177500,0.686177490234375,0.20477871596813202,0.5897314548492432,-0.20748288929462433
1783002712905228300,0.696228271484375,0.2178734689950943,0.5990504026412964,-0.24724121391773224
1783002712915280400,0.7062802734375,0.1887504756450653,0.49656423926353455,-0.2616417407989502
1783002712925331500,0.71633154296875,0.1456778347492218,0.33853596448898315,-0.24963432550430298
1783002712935383300,0.72638330078125,0.09974896162748337,0.14688478410243988,-0.2026021033525467
1783002712945434400,0.736434326171875,0.04113838076591492,-0.03893887624144554,-0.1025649905204773
1783002712955486200,0.746486328125,-0.014978683553636074,-0.1951732188463211,0.06150730326771736
1783002712965537300,0.756537353515625,-0.061462562531232834,-0.2959970235824585,0.2574669420719147
1783002712975589400,0.76658935546875,-0.0770159512758255,-0.3688882887363434,0.4255097508430481
1783002712985640200,0.77664013671875,-0.04050135239958763,-0.43672460317611694,0.5980149507522583
1783002712995692300,0.7866923828125,0.06957215070724487,-0.35067254304885864,0.8197047114372253
1783002713005743400,0.796743408203125,0.20503704249858856,-0.09139622747898102,1.0329389572143555
1783002713015795200,0.806795166015625,0.29961174726486206,0.16461823880672455,1.1256539821624756
1783002713025846300,0.81684619140625,0.3823164701461792,0.308992475271225,1.0555622577667236
1783002713035898400,0.8268984375,0.46949291229248047,0.43059638142585754,0.8831255435943604
1783002713045949200,0.83694921875,0.5301842093467712,0.549774169921875,0.6760820746421814
1783002713056001500,0.84700146484375,0.5501171946525574,0.6107155680656433,0.45991194248199463
1783002713066052400,0.85705224609375,0.5360532999038696,0.6071833968162537,0.245894193649292
1783002713076104400,0.8671044921875,0.49873629212379456,0.4964030981063843,0.027213245630264282
1783002713086155500,0.877155517578125,0.4481860399246216,0.2963416576385498,-0.16012123227119446
1783002713096207400,0.887207275390625,0.35106828808784485,0.10248802602291107,-0.33185648918151855
1783002713106258400,0.897258544921875,0.22510448098182678,-0.1156802624464035,-0.47860199213027954
1783002713116310300,0.907310302734375,0.09454807639122009,-0.326369047164917,-0.5660902857780457
1783002713126361300,0.917361328125,-0.0352083221077919,-0.5008029341697693,-0.6079933047294617
1783002713136413400,0.927413330078125,-0.17802166938781738,-0.590491533279419,-0.5995598435401917
1783002713146464300,0.93746435546875,-0.31824347376823425,-0.5692384243011475,-0.5126787424087524
1783002713156516400,0.947516357421875,-0.41843533515930176,-0.43323850631713867,-0.3507079482078552
1783002713166567400,0.9575673828125,-0.46119239926338196,-0.2652692198753357,-0.16209863126277924
1783002713176619300,0.967619384765625,-0.42653533816337585,-0.13237029314041138,-0.01290301512926817
1783002713186670300,0.97767041015625,-0.33163970708847046,-0.0442151315510273,0.08232390135526657
1783002713196722200,0.98772216796875,-0.1795005202293396,0.03666054084897041,0.1302858293056488
1783002713206773200,0.997773193359375,-0.000987500068731606,0.14304371178150177,0.1585552841424942
1783002713216825300,1.007825439453125,0.18083715438842773,0.21739649772644043,0.17594599723815918
1783002713226876200,1.017876220703125,0.31070807576179504,0.2575785517692566,0.21326513588428497
1783002713236928300,1.02792822265625,0.38279131054878235,0.3024117946624756,0.2710181772708893
1783002713246979300,1.037979248046875,0.39867067337036133,0.28697583079338074,0.333163321018219
1783002713257031200,1.04803125,0.3556939363479614,0.1664760559797287,0.35974645614624023
1783002713267082200,1.058082275390625,0.2743718922138214,-0.02635331079363823,0.3416212499141693
1783002713277134000,1.068134033203125,0.1863618791103363,-0.19168314337730408,0.3058645725250244
1783002713287185200,1.07818505859375,0.10009517520666122,-0.3128942549228668,0.2753077447414398
1783002713297237200,1.0882373046875,0.031677503138780594,-0.44837966561317444,0.2478068768978119
1783002713307288000,1.0982880859375,-0.011813249439001083,-0.5966306328773499,0.24340812861919403
1783002713317340200,1.108340087890625,-0.04597334936261177,-0.648697555065155,0.25100451707839966
1783002713327391200,1.11839111328125,-0.06894311308860779,-0.5901868343353271,0.24584785103797913
1783002713337443000,1.128443115234375,-0.08349968492984772,-0.47250816226005554,0.21912649273872375
1783002713347494100,1.138494140625,-0.07197725772857666,-0.37437865138053894,0.17637956142425537
1783002713357546000,1.1485458984375,-0.027647074311971664,-0.2887982428073883,0.13697382807731628
1783002713367597000,1.15859716796875,0.04789029434323311,-0.14717186987400055,0.10443239659070969
1783002713377649400,1.1686494140625,0.14008067548274994,-0.07460073381662369,0.09173204749822617
1783002713387700200,1.1787001953125,0.1954813450574875,-0.11151853948831558,0.10920531302690506
1783002713397752300,1.18875244140625,0.20393794775009155,-0.1403408646583557,0.15854303538799286
1783002713407803400,1.198803466796875,0.16641773283481598,-0.11599850654602051,0.19058193266391754
1783002713417855200,1.208855224609375,0.07374080270528793,-0.055620916187763214,0.16893735527992249
1783002713427906300,1.21890625,-0.028237231075763702,0.036072783172130585,0.1022627204656601
1783002713437958100,1.228958251953125,-0.10877921432256699,0.12884320318698883,0.005077849142253399
1783002713448009200,1.23900927734375,-0.1612171232700348,0.19183388352394104,-0.09062444418668747
1783002713458061300,1.249061279296875,-0.1690441519021988,0.17292064428329468,-0.14873620867729187
1783002713468112100,1.259112060546875,-0.1327471286058426,0.15308834612369537,-0.13342224061489105
1783002713478164200,1.269164306640625,-0.052747633308172226,0.16929501295089722,-0.06676438450813293
1783002713488215300,1.27921533203125,0.06316458433866501,0.1599888652563095,0.009876865893602371
1783002713498267100,1.28926708984375,0.18904581665992737,0.06894391030073166,0.057680074125528336
1783002713508318200,1.299318115234375,0.2833890914916992,-0.08498573303222656,0.06884351372718811
1783002713518370000,1.3093701171875,0.31350305676460266,-0.1942853182554245,0.059660132974386215
1783002713528421000,1.319421142578125,0.28411373496055603,-0.14467009902000427,0.053760431706905365
1783002713538473200,1.32947314453125,0.22103597223758698,0.030132070183753967,0.033907633274793625
1783002713548524000,1.33952392578125,0.13934564590454102,0.18960295617580414,-0.007910920307040215
1783002713558576000,1.349576171875,0.06686878204345703,0.2351888120174408,-0.07344066351652145
1783002713568627200,1.359627197265625,0.023479759693145752,0.1865597665309906,-0.1371234953403473
1783002713578679300,1.36967919921875,0.004550010897219181,0.12268117815256119,-0.17794975638389587
1783002713588730000,1.379730224609375,0.008223309181630611,0.10651072859764099,-0.16548536717891693
1783002713598782200,1.3897822265625,0.03439925238490105,0.11048709601163864,-0.10194287449121475
1783002713608833300,1.399833251953125,0.0699673667550087,0.04917873069643974,-0.03377420827746391
1783002713618885400,1.409885498046875,0.10763724893331528,-0.14229056239128113,0.03576065972447395
1783002713628936200,1.419936279296875,0.12736354768276215,-0.33163172006607056,0.11632927507162094
1783002713638988300,1.42998828125,0.12413659691810608,-0.3178592026233673,0.20931807160377502
1783002713649039400,1.440039306640625,0.11894582957029343,-0.16366642713546753,0.25566691160202026
1783002713659091200,1.45009130859375,0.10916297137737274,-0.054427023977041245,0.237916961312294
1783002713669142300,1.460142333984375,0.1157873198390007,-0.0495891235768795,0.18654830753803253
1783002713679193300,1.470193359375,0.13503451645374298,-0.09983844310045242,0.14296087622642517
1783002713689245200,1.4802451171875,0.13747823238372803,-0.08830642700195312,0.11381817609071732
1783002713699297300,1.49029736328125,0.11362962424755096,-0.03128335252404213,0.09670337289571762
1783002713709348000,1.50034814453125,0.07548170536756516,0.021868014708161354,0.08173853904008865
1783002713719400200,1.510400146484375,0.03009585104882717,0.07040838897228241,0.07596001029014587
1783002713729451300,1.520451171875,-0.008962868712842464,0.07582072913646698,0.07508382946252823
1783002713739502000,1.530502197265625,-0.03804565221071243,0.0006905576447024941,0.05116624757647514
1783002713749554200,1.54055419921875,-0.044916607439517975,-0.12799498438835144,0.0469222366809845
1783002713759606000,1.55060595703125,-0.0390363484621048,-0.20868024230003357,0.09494062513113022
1783002713769657000,1.560656982421875,-0.03371641784906387,-0.2527606189250946,0.167890727519989
1783002713779708200,1.570708251953125,-0.030646326020359993,-0.3104894161224365,0.23092402517795563
1783002713789760000,1.580760009765625,-0.02526727318763733,-0.39110836386680603,0.2728850543498993
1783002713799811000,1.59081103515625,-0.031509190797805786,-0.44476014375686646,0.34420689940452576
1783002713809863200,1.60086328125,-0.056523196399211884,-0.37216824293136597,0.43694910407066345
1783002713819914000,1.6109140625,-0.07440952211618423,-0.21381960809230804,0.511142909526825
1783002713829966300,1.62096630859375,-0.07012049853801727,-0.06961502879858017,0.5514754056930542
1783002713840018200,1.63101806640625,-0.06916069239377975,-0.02918345108628273,0.5459336638450623
1783002713850069200,1.6410693359375,-0.10050343722105026,-0.147716224193573,0.4919889271259308
1783002713860120300,1.651120361328125,-0.16727420687675476,-0.2789384126663208,0.3931851089000702
1783002713870172200,1.661172119140625,-0.22471673786640167,-0.36790505051612854,0.2413332611322403
1783002713880223200,1.67122314453125,-0.2641299068927765,-0.40580928325653076,0.06069929897785187
1783002713890275300,1.681275390625,-0.2863588035106659,-0.37945836782455444,-0.09456299245357513
1783002713900326100,1.691326171875,-0.29550594091415405,-0.3219657838344574,-0.19671864807605743
1783002713910378200,1.701378173828125,-0.29754433035850525,-0.2543981969356537,-0.2237715721130371
1783002713920429300,1.71142919921875,-0.2785629332065582,-0.19059577584266663,-0.18604177236557007
1783002713930481200,1.721481201171875,-0.22610530257225037,-0.13329946994781494,-0.1025085300207138
1783002713940532200,1.7315322265625,-0.13649925589561462,-0.1039450392127037,-0.009724000468850136
1783002713950584000,1.741583984375,-0.04803809896111488,-0.155281201004982,0.05555913224816322
1783002713960635100,1.75163525390625,0.009414540603756905,-0.2500005066394806,0.05203310772776604
1783002713970687200,1.761687255859375,0.030977623537182808,-0.3174855411052704,0.0005938849062658846
1783002713980738000,1.771738037109375,0.04069363325834274,-0.3259594738483429,-0.07709984481334686
1783002713990790100,1.7817900390625,0.04495389387011528,-0.23338718712329865,-0.10960958153009415
1783002714000841200,1.79184130859375,0.045167211443185806,-0.058701131492853165,-0.09024600684642792
1783002714010893000,1.80189306640625,0.05420171841979027,0.04291204735636711,-0.0557844378054142
1783002714020944100,1.811944091796875,0.061528872698545456,0.0327768549323082,-0.02912805788218975
1783002714030996200,1.821996337890625,0.06285938620567322,-0.02135429158806801,0.0004791026876773685
1783002714041047000,1.832047119140625,0.05742228031158447,-0.0794607400894165,0.027728566899895668
1783002714051099400,1.842099365234375,0.04012451693415642,-0.14739158749580383,0.04027072340250015
1783002714061150200,1.852150146484375,0.010757306590676308,-0.20205242931842804,0.039143674075603485
1783002714071202300,1.862202392578125,-0.02947586588561535,-0.21543481945991516,0.030648190528154373
1783002714081253400,1.87225341796875,-0.07473628968000412,-0.1756671667098999,0.007601726800203323
1783002714091305200,1.88230517578125,-0.12709243595600128,-0.08287331461906433,-0.00469541922211647
1783002714101356300,1.892356201171875,-0.1873600333929062,0.026624420657753944,-0.024218520149588585
1783002714111408000,1.902408203125,-0.2289506196975708,0.0742768943309784,-0.06390973925590515
1783002714121459200,1.912459228515625,-0.2511819005012512,0.05788620188832283,-0.11730745434761047
1783002714131511300,1.92251123046875,-0.26074451208114624,-0.004546815063804388,-0.17005987465381622
1783002714141562000,1.93256201171875,-0.2708463966846466,-0.053636595606803894,-0.18335410952568054
1783002714151614200,1.9426142578125,-0.2869177758693695,-0.00330205331556499,-0.14554521441459656
1783002714161665300,1.952665283203125,-0.2788199186325073,0.07840479165315628,-0.0823606550693512
1783002714171717000,1.962717041015625,-0.25120478868484497,0.12301034480333328,-0.0006649913266301155
1783002714181768200,1.972768310546875,-0.20514357089996338,0.11787017434835434,0.10575199872255325
1783002714191820000,1.982820068359375,-0.1500353068113327,0.09632387012243271,0.27163684368133545
1783002714201871000,1.99287109375,-0.10920318961143494,0.14857988059520721,0.4535762667655945
1783002714211923200,2.002923095703125,-0.06280932575464249,0.19673995673656464,0.5957584381103516
1783002714221974000,2.01297412109375,-0.01733664609491825,0.19211165606975555,0.6283054947853088
1783002714232030000,2.023030029296875,0.008783903904259205,0.17937880754470825,0.5526322722434998
1783002714242081000,2.0330810546875,0.020077837631106377,0.21108241379261017,0.398770272731781
1783002714252132900,2.0431328125,0.012011921964585781,0.2912219762802124,0.18804287910461426
1783002714262184000,2.053183837890625,-0.017990717664361,0.3822634816169739,-0.048478320240974426
1783002714272235800,2.06323583984375,-0.07604629546403885,0.4788680374622345,-0.25272679328918457
1783002714282286800,2.073286865234375,-0.15437571704387665,0.5639062523841858,-0.3849945664405823
1783002714292339000,2.0833388671875,-0.22179657220840454,0.6079703569412231,-0.43705856800079346
1783002714302389800,2.0933896484375,-0.2565452456474304,0.5707497596740723,-0.4089137315750122
1783002714312441900,2.10344189453125,-0.2656889259815216,0.5082699060440063,-0.3195764124393463
1783002714322493000,2.113492919921875,-0.25067803263664246,0.44920870661735535,-0.20941022038459778
1783002714332544800,2.123544677734375,-0.21406808495521545,0.34671056270599365,-0.1286405324935913
1783002714342595800,2.133595947265625,-0.155674010515213,0.1967514157295227,-0.0850648283958435
1783002714352647700,2.143647705078125,-0.08597829192876816,0.06641870737075806,-0.041247304528951645
1783002714362698800,2.15369873046875,-0.02245337702333927,0.0054733287543058395,0.0031302794814109802
1783002714372750800,2.163750732421875,0.02683507651090622,-0.01865837350487709,0.027823908254504204
1783002714382801700,2.1738017578125,0.06685200333595276,-0.020622188225388527,0.021628329530358315
1783002714392853800,2.183853759765625,0.08990991860628128,-0.004451473709195852,-0.0265948586165905
1783002714402904800,2.19390478515625,0.09714332967996597,0.06255286186933517,-0.04981575906276703
1783002714412956700,2.203956787109375,0.08712291717529297,0.2142193466424942,-0.0716898962855339
1783002714423007700,2.2140078125,0.07688998430967331,0.33516788482666016,-0.12624448537826538
1783002714433059800,2.224059814453125,0.09190036356449127,0.32449233531951904,-0.19431088864803314
1783002714443111000,2.23411083984375,0.13006585836410522,0.3066856265068054,-0.2113836109638214
1783002714453163000,2.2441630859375,0.17368043959140778,0.34025612473487854,-0.18011623620986938
1783002714463213800,2.2542138671875,0.22315745055675507,0.3434886634349823,-0.11194011569023132
1783002714473266000,2.264265869140625,0.2772590219974518,0.29337620735168457,-0.012709403410553932
1783002714483317000,2.27431689453125,0.3316415846347809,0.2526035010814667,0.11177526414394379
1783002714493368800,2.284368896484375,0.366640567779541,0.23109154403209686,0.22466666996479034
1783002714503420000,2.294419921875,0.37546125054359436,0.22484323382377625,0.2879449725151062
1783002714513471700,2.3044716796875,0.3862997591495514,0.21519167721271515,0.2921077609062195
1783002714523522800,2.314522705078125,0.3842259645462036,0.20751696825027466,0.2664167881011963
1783002714533575000,2.324574951171875,0.3570558726787567,0.25409725308418274,0.23308731615543365
1783002714543625700,2.334625732421875,0.3079359829425812,0.29635947942733765,0.16806703805923462
1783002714553677800,2.344677734375,0.24474157392978668,0.2749119997024536,0.0597006157040596
1783002714563729000,2.35472900390625,0.17397819459438324,0.21135778725147247,-0.06546901911497116
1783002714573780700,2.36478076171875,0.0929507166147232,0.19524087011814117,-0.1571051925420761
1783002714583831800,2.374831787109375,0.010272877290844917,0.24518099427223206,-0.19976051151752472
1783002714593883600,2.384883544921875,-0.0584326833486557,0.2849971055984497,-0.20477791130542755
1783002714603934700,2.394934814453125,-0.088933065533638,0.2785179018974304,-0.18188564479351044
1783002714613986800,2.40498681640625,-0.08099365234375,0.25200533866882324,-0.1345120072364807
1783002714624037600,2.41503759765625,-0.05121924355626106,0.22545123100280762,-0.07512857019901276
1783002714634090000,2.425090087890625,0.00646668765693903,0.16772136092185974,-0.012405537068843842
1783002714644140800,2.435140869140625,0.07486465573310852,0.14280082285404205,0.09866665303707123
1783002714654193000,2.44519287109375,0.13583771884441376,0.20978279411792755,0.23137304186820984
1783002714664244000,2.455243896484375,0.20974737405776978,0.2985275685787201,0.35168692469596863
1783002714674295800,2.4652958984375,0.2682141363620758,0.31653958559036255,0.41760095953941345
1783002714684347000,2.475346923828125,0.2830500900745392,0.23417840898036957,0.4304616451263428
1783002714694399000,2.48539892578125,0.25863394141197205,0.142261803150177,0.4078277051448822
1783002714704449800,2.49544970703125,0.209340438246727,0.06955777108669281,0.3492823541164398
1783002714714502000,2.505501953125,0.1350233256816864,-0.017945710569620132,0.259416401386261
1783002714724553000,2.515552978515625,0.05907237529754639,-0.12664689123630524,0.14677026867866516
1783002714734604800,2.525604736328125,-0.0011544802691787481,-0.21138069033622742,0.03622165322303772
1783002714744656000,2.53565576171875,-0.056657686829566956,-0.26009470224380493,-0.07496372610330582
1783002714754707700,2.545707763671875,-0.11105728149414062,-0.2821539342403412,-0.14720302820205688
1783002714764758800,2.5557587890625,-0.16842550039291382,-0.24882392585277557,-0.18458715081214905
1783002714774811000,2.565810791015625,-0.22173026204109192,-0.24212022125720978,-0.21125417947769165
1783002714784861700,2.57586181640625,-0.268312931060791,-0.33816632628440857,-0.2696615755558014
1783002714794913800,2.585913818359375,-0.29627561569213867,-0.4596365690231323,-0.31807437539100647
1783002714804964900,2.59596484375,-0.30020084977149963,-0.5026141405105591,-0.30536869168281555
1783002714815016700,2.6060166015625,-0.2707827687263489,-0.47472789883613586,-0.22922679781913757
1783002714825067800,2.61606787109375,-0.24110263586044312,-0.3376177251338959,-0.10478393733501434
1783002714835119600,2.62611962890625,-0.1786501705646515,-0.17331746220588684,0.06268255412578583
1783002714845170700,2.636170654296875,-0.07639117538928986,-0.027948809787631035,0.24619247019290924
1783002714855223000,2.64622314453125,0.05241713672876358,0.04918192699551582,0.4106144309043884
1783002714865273600,2.656273681640625,0.16582278907299042,0.06671378016471863,0.5152734518051147
1783002714875326000,2.666325927734375,0.25301867723464966,0.028245486319065094,0.5333011746406555
1783002714885377000,2.676376953125,0.3159358501434326,-0.09604823589324951,0.44803982973098755
1783002714895428900,2.686428955078125,0.3511497676372528,-0.23762640357017517,0.26773422956466675
1783002714905480000,2.69647998046875,0.3532738983631134,-0.33224397897720337,0.05468028783798218
1783002714915531800,2.70653173828125,0.34075093269348145,-0.36096325516700745,-0.16095559298992157
1783002714925582800,2.716582763671875,0.3005198836326599,-0.3634335994720459,-0.3364861309528351
1783002714935635000,2.726635009765625,0.22491034865379333,-0.30864226818084717,-0.41197556257247925
1783002714945685800,2.736685791015625,0.1277100294828415,-0.15589451789855957,-0.4041115343570709
1783002714955737900,2.74673779296875,0.055936504155397415,-0.01937449723482132,-0.3472815155982971
1783002714965789000,2.756788818359375,0.026986610144376755,0.021618742495775223,-0.2994314432144165
1783002714975840800,2.7668408203125,0.03852928429841995,-0.03189881145954132,-0.244008406996727
1783002714985891800,2.776891845703125,0.08004263788461685,-0.058350127190351486,-0.16270077228546143
1783002714995943700,2.786943603515625,0.12859658896923065,-0.0448383130133152,-0.08148606866598129
1783002715005995800,2.796995849609375,0.17924432456493378,-0.07417675852775574,-0.027992751449346542
1783002715016046800,2.807046875,0.2059241384267807,-0.12626312673091888,-0.03646586462855339
1783002715026097700,2.81709765625,0.20055946707725525,-0.12641866505146027,-0.07017002999782562
1783002715036149800,2.827149658203125,0.1859850436449051,-0.0371825210750103,-0.09544023871421814
1783002715046201900,2.837201904296875,0.1706889122724533,0.09870394319295883,-0.1138293594121933
1783002715056252700,2.847252685546875,0.1666467785835266,0.2193046510219574,-0.14223437011241913
1783002715066305000,2.857304931640625,0.17206764221191406,0.28484371304512024,-0.19913093745708466
1783002715076355800,2.86735595703125,0.17863792181015015,0.30820682644844055,-0.2638971507549286
1783002715086408000,2.877407958984375,0.17479631304740906,0.304064005613327,-0.3088398575782776
1783002715096459000,2.887458984375,0.16183044016361237,0.30080536007881165,-0.31893858313560486
1783002715106510800,2.8975107421875,0.14138056337833405,0.28170543909072876,-0.29134103655815125
1783002715116562000,2.90756201171875,0.1266985535621643,0.2320217788219452,-0.23603090643882751
1783002715126613800,2.91761376953125,0.10787879675626755,0.14448846876621246,-0.13511255383491516
1783002715136664800,2.927664794921875,0.08806780725717545,0.05735330283641815,-0.01739443652331829
1783002715146717000,2.937717041015625,0.055684302002191544,-0.05125626176595688,0.06341785192489624
1783002715156767700,2.947767822265625,0.018320150673389435,-0.18605056405067444,0.07693739235401154
1783002715166819800,2.95781982421875,-0.011712582781910896,-0.27500733733177185,0.05494314432144165
1783002715176871000,2.967870849609375,-0.03208736330270767,-0.2814655005931854,0.020195815712213516
1783002715186922800,2.9779228515625,-0.04910043254494667,-0.22762197256088257,-0.031685225665569305
1783002715196973800,2.987973876953125,-0.06096960976719856,-0.1828121542930603,-0.11450394243001938
1783002715207025700,2.998025634765625,-0.04296956956386566,-0.1688755750656128,-0.2149900645017624
1783002715217076700,3.00807666015625,-0.03484746441245079,-0.17209532856941223,-0.3041505813598633
1783002715227128800,3.01812890625,-0.03460751101374626,-0.15751107037067413,-0.3434734642505646
1783002715237180200,3.02818017578125,-0.041485127061605453,-0.10563907772302628,-0.33849549293518066
1783002715247232300,3.038232177734375,-0.046548593789339066,-0.05234123393893242,-0.32931825518608093
1783002715257283300,3.048283447265625,-0.05227838456630707,-0.024040354415774345,-0.3320186734199524
1783002715267335200,3.058335205078125,-0.05991020426154137,-0.0003347593592479825,-0.3348211348056793
1783002715277386200,3.06838623046875,-0.07793927192687988,0.03554973751306534,-0.29580235481262207
1783002715287438300,3.078438232421875,-0.10838506370782852,0.09871459007263184,-0.20738035440444946
1783002715297489400,3.088489501953125,-0.13693147897720337,0.1573595255613327,-0.10034125298261642
1783002715307541200,3.098541259765625,-0.15398822724819183,0.13994139432907104,-0.008568720892071724
1783002715317592300,3.10859228515625,-0.15973639488220215,0.047861531376838684,0.05808567255735397
1783002715327644400,3.11864453125,-0.16790218651294708,-0.04139351099729538,0.11684592813253403
1783002715337695500,3.128695556640625,-0.18456079065799713,-0.06166069954633713,0.16175134479999542
1783002715347747300,3.138747314453125,-0.19578547775745392,-0.07430432736873627,0.1739257276058197
1783002715357798400,3.14879833984375,-0.19856582581996918,-0.0977683737874031,0.15013517439365387
1783002715367850200,3.158850341796875,-0.19238463044166565,-0.13066692650318146,0.09599816799163818
1783002715377901300,3.1689013671875,-0.19212868809700012,-0.1601574420928955,0.03592577576637268
1783002715387953400,3.178953369140625,-0.1970110684633255,-0.1387680023908615,-0.005348692648112774
1783002715398004200,3.189004150390625,-0.20294752717018127,-0.10350082814693451,-0.024031300097703934
1783002715408056300,3.199056396484375,-0.19852881133556366,-0.10837867110967636,-0.0268864743411541
1783002715418107400,3.209107421875,-0.19632025063037872,-0.1623830497264862,-0.03254222869873047
1783002715428159200,3.2191591796875,-0.19786088168621063,-0.2709880769252777,-0.014341921545565128
1783002715438210300,3.229210205078125,-0.22475135326385498,-0.3553820550441742,0.09046518802642822
1783002715448262100,3.23926220703125,-0.2841361165046692,-0.2796398997306824,0.22169910371303558
1783002715458313200,3.249313232421875,-0.33688774704933167,-0.20737315714359283,0.3215399384498596
1783002715468365300,3.259365234375,-0.36251747608184814,-0.2045329064130783,0.3744732141494751
1783002715478416100,3.269416015625,-0.3533575236797333,-0.21332718431949615,0.3837122321128845
1783002715488468200,3.27946826171875,-0.33523446321487427,-0.22782623767852783,0.3636261522769928
1783002715498519300,3.289519287109375,-0.3444039821624756,-0.29139456152915955,0.2767719328403473
1783002715508571400,3.2995712890625,-0.3880252242088318,-0.3852502107620239,0.12310595065355301
1783002715518622500,3.30962255859375,-0.44146209955215454,-0.4312019944190979,-0.05776529386639595
1783002715528674300,3.31967431640625,-0.46728089451789856,-0.4370497763156891,-0.20019248127937317
1783002715538725400,3.329725341796875,-0.5075034499168396,-0.3822357952594757,-0.26010429859161377
1783002715548777200,3.339777099609375,-0.5622087717056274,-0.2523441016674042,-0.24365873634815216
1783002715558828300,3.349828369140625,-0.6065970063209534,-0.11571355164051056,-0.18631981313228607
1783002715568880400,3.35988037109375,-0.6192693710327148,0.02648060955107212,-0.1112397089600563
1783002715578931500,3.369931396484375,-0.5861138105392456,0.12639681994915009,-0.019944945350289345
1783002715588983300,3.3799833984375,-0.5122625231742859,0.17776812613010406,0.07379592955112457
1783002715599034400,3.390034423828125,-0.4058508276939392,0.14445625245571136,0.14908535778522491
1783002715609086200,3.400086181640625,-0.27742496132850647,0.049911633133888245,0.19572849571704865
1783002715619137300,3.41013720703125,-0.15076154470443726,-0.06099464371800423,0.2233361452817917
1783002715629189400,3.420189453125,-0.04676350951194763,-0.09883629530668259,0.24565477669239044
1783002715639240200,3.430240234375,0.036388102918863297,-0.03874792903661728,0.2785258889198303
1783002715649292300,3.440292236328125,0.08669628202915192,0.0649518370628357,0.30868861079216003
1783002715659343400,3.45034326171875,0.09623385965824127,0.16085785627365112,0.3083855211734772
1783002715669395200,3.460395263671875,0.09387802332639694,0.20542852580547333,0.2871638536453247
1783002715679446300,3.4704462890625,0.092536062002182,0.15842506289482117,0.24049170315265656
1783002715689498000,3.480498046875,0.07936060428619385,0.03780463710427284,0.18940986692905426
1783002715699549200,3.490549072265625,0.048292431980371475,-0.07641807198524475,0.15659654140472412
1783002715709601300,3.500601318359375,0.00666482700034976,-0.14158695936203003,0.13698528707027435
1783002715719652000,3.510652099609375,-0.05402355268597603,-0.2155732959508896,0.13340333104133606
1783002715729704400,3.520704345703125,-0.12023133784532547,-0.24780766665935516,0.1562497913837433
1783002715739755500,3.530755615234375,-0.18447770178318024,-0.19973520934581757,0.17263755202293396
1783002715749807400,3.540807373046875,-0.2424541860818863,-0.15292909741401672,0.14839506149291992
1783002715759858400,3.5508583984375,-0.27837303280830383,-0.16481105983257294,0.07400444895029068
1783002715769910300,3.56091015625,-0.29967617988586426,-0.19244028627872467,-0.032166458666324615
1783002715779961300,3.57096142578125,-0.30732426047325134,-0.16268451511859894,-0.12522663176059723
1783002715790013400,3.581013427734375,-0.3134114444255829,-0.07155993580818176,-0.16736608743667603
1783002715800064300,3.591064208984375,-0.31271716952323914,0.03658623993396759,-0.18441352248191833
1783002715810116400,3.601116455078125,-0.30063387751579285,0.10483613610267639,-0.19368425011634827
1783002715820167400,3.61116748046875,-0.27693864703178406,0.1351410448551178,-0.18064488470554352
1783002715830219300,3.62121923828125,-0.2425689697265625,0.17701472342014313,-0.14805391430854797
1783002715840270300,3.631270263671875,-0.20036132633686066,0.2041938751935959,-0.09912658482789993
1783002715850322200,3.641322265625,-0.16061976552009583,0.18908603489398956,-0.03639476001262665
1783002715860373200,3.651373291015625,-0.1327013224363327,0.17912954092025757,0.038432344794273376
1783002715870425300,3.66142529296875,-0.12043613195419312,0.1959306299686432,0.10082381963729858
1783002715880476200,3.67147607421875,-0.12418639659881592,0.1751989871263504,0.12443619966506958
1783002715890528300,3.6815283203125,-0.13546088337898254,0.11750639230012894,0.10275433957576752
1783002715900579300,3.691579345703125,-0.15563273429870605,0.06986163556575775,0.061469219624996185
1783002715910631200,3.701631103515625,-0.18300656974315643,0.04808949679136276,0.013371465727686882
1783002715920682200,3.71168212890625,-0.21495917439460754,0.057497914880514145,-0.03419632092118263
1783002715930734300,3.721734375,-0.2334793359041214,0.10170292854309082,-0.0839628130197525
1783002715940785400,3.731785400390625,-0.23150379955768585,0.1185908317565918,-0.10754776746034622
1783002715950837200,3.741837158203125,-0.2444869726896286,0.1471087634563446,-0.061222877353429794
1783002715960888300,3.751888427734375,-0.26945996284484863,0.22260750830173492,0.02617061696946621
1783002715970940400,3.7619404296875,-0.2771889865398407,0.234800785779953,0.10226485133171082
1783002715980992300,3.7719921875,-0.25029000639915466,0.18105153739452362,0.13886120915412903
1783002715991043300,3.782043212890625,-0.20194856822490692,0.12574221193790436,0.144316166639328
1783002716001094400,3.792094482421875,-0.1560167670249939,0.11164503544569016,0.13635198771953583
1783002716011146200,3.802146240234375,-0.11290844529867172,0.13251516222953796,0.11505521833896637
1783002716021198300,3.8121982421875,-0.07530247420072556,0.144016295671463,0.06689248234033585
1783002716031249400,3.82224951171875,-0.04066833481192589,0.13048823177814484,0.008293882943689823
1783002716041301200,3.83230126953125,-0.004578240215778351,0.10987164080142975,-0.04563406482338905
1783002716051352300,3.842352294921875,0.01750628836452961,0.0973539799451828,-0.07129814475774765
1783002716061404200,3.852404052734375,0.026550384238362312,0.09182526171207428,-0.09532997757196426
1783002716071455200,3.862455322265625,0.033854637295007706,0.08266132324934006,-0.1362297385931015
1783002716081507300,3.87250732421875,0.038660310208797455,0.07404573261737823,-0.18511126935482025
1783002716091558100,3.88255810546875,0.0275645162910223,0.1155492290854454,-0.19174785912036896
1783002716101610200,3.8926103515625,0.001975000137463212,0.22253400087356567,-0.1656470149755478
1783002716111661300,3.902661376953125,-0.018878616392612457,0.32415571808815,-0.13020913302898407
1783002716121713400,3.91271337890625,-0.021925805136561394,0.37857818603515625,-0.0873924270272255
1783002716131764200,3.92276416015625,-0.020111126825213432,0.4346742331981659,-0.032168854027986526
1783002716141816300,3.93281640625,-0.01329689659178257,0.4567880630493164,0.036184102296829224
1783002716151867400,3.942867431640625,-0.0035081820096820593,0.3985132873058319,0.11536813527345657
1783002716161919200,3.952919189453125,0.01420583389699459,0.2796638607978821,0.18785272538661957
1783002716171970300,3.96297021484375,0.03026842325925827,0.15519118309020996,0.23850604891777039
1783002716182022400,3.9730224609375,0.03953542560338974,0.0846610888838768,0.2565188705921173
1783002716192073500,3.983073486328125,0.02918957732617855,0.08073745667934418,0.2426813542842865
1783002716202125300,3.993125244140625,0.01763971336185932,0.13004641234874725,0.1976233273744583
1783002716212176400,4.00317626953125,0.005593437235802412,0.15789562463760376,0.16107118129730225
1783002716222228200,4.013228271484375,-0.018936939537525177,0.2185339331626892,0.196283221244812
1783002716232275000,4.02327490234375,-0.05469786748290062,0.33928513526916504,0.2625298798084259
1783002716242327000,4.0333271484375,-0.07914169132709503,0.34073761105537415,0.3069271743297577
1783002716252378000,4.043378173828125,-0.06849384307861328,0.25551193952560425,0.3238787353038788
1783002716262430000,4.053429931640625,-0.006297843065112829,0.21340975165367126,0.36154302954673767
1783002716272481000,4.06348095703125,0.08451514691114426,0.20511452853679657,0.40028244256973267
1783002716282532900,4.073532958984375,0.165405735373497,0.13027705252170563,0.3874973952770233
1783002716292584000,4.083583984375,0.2145780771970749,-0.008786301128566265,0.3091503977775574
1783002716302636000,4.093635986328125,0.23948316276073456,-0.15174292027950287,0.1846393495798111
1783002716312686800,4.103686767578125,0.23233816027641296,-0.22091640532016754,0.06075176224112511
1783002716322739200,4.1137392578125,0.19094625115394592,-0.2563646733760834,-0.050213903188705444
1783002716332790000,4.1237900390625,0.13061553239822388,-0.29579782485961914,-0.14163942635059357
1783002716342842000,4.133842041015625,0.06732285022735596,-0.3028954267501831,-0.20216429233551025
1783002716352893200,4.14389306640625,0.01642983965575695,-0.2680354416370392,-0.21405743062496185
1783002716362945000,4.153945068359375,-0.01251259632408619,-0.2271340787410736,-0.1844438761472702
1783002716372996000,4.16399609375,-0.0170303825289011,-0.20403169095516205,-0.12155279517173767
1783002716383048000,4.1740478515625,-0.0007225155713967979,-0.19805529713630676,-0.05480625852942467
1783002716393099000,4.18409912109375,0.03219149261713028,-0.20328573882579803,-0.01410676445811987
1783002716403151000,4.194151123046875,0.06853751838207245,-0.23126278817653656,-0.009312009438872337
1783002716413202000,4.204201904296875,0.11438436806201935,-0.2781597077846527,-0.00555082643404603
1783002716423254000,4.21425390625,0.15893904864788055,-0.311792254447937,0.027120567858219147
1783002716433305000,4.22430517578125,0.2408970296382904,-0.3646112382411957,0.1124434545636177
1783002716443357000,4.23435693359375,0.34953242540359497,-0.42554783821105957,0.25005272030830383
1783002716453408000,4.244407958984375,0.47605255246162415,-0.5198264122009277,0.42185989022254944
1783002716463460000,4.254460205078125,0.6039945483207703,-0.5966945290565491,0.6064326763153076
1783002716473511000,4.264510986328125,0.7206758856773376,-0.6084521412849426,0.7914366126060486
1783002716483563000,4.27456298828125,0.7832857370376587,-0.5551124811172485,0.91880202293396
1783002716493614000,4.284614013671875,0.7750731110572815,-0.544390857219696,0.9550521969795227
1783002716503666000,4.294666015625,0.7194604277610779,-0.5600531697273254,0.9050859212875366
1783002716513717000,4.304717041015625,0.6336523294448853,-0.5425716638565063,0.7786883115768433
1783002716523769000,4.31476904296875,0.5139320492744446,-0.44189485907554626,0.6112777590751648
1783002716533820200,4.324820068359375,0.379191517829895,-0.30422621965408325,0.41108766198158264
1783002716543872000,4.3348720703125,0.2611234784126282,-0.15507586300373077,0.2056538313627243
1783002716553923000,4.344923095703125,0.18259111046791077,-0.02160382829606533,0.013616742566227913
1783002716563975200,4.35497509765625,0.14870958030223846,0.11314280331134796,-0.1335657835006714
1783002716574027000,4.365027099609375,0.1424064189195633,0.24398736655712128,-0.2335754781961441
1783002716584078000,4.375078125,0.16845372319221497,0.35341453552246094,-0.2854732871055603
1783002716594130000,4.3851298828125,0.21787267923355103,0.430937796831131,-0.2927253544330597
1783002716604181000,4.395180908203125,0.28019118309020996,0.45819446444511414,-0.2565188705921173
1783002716614233000,4.405233154296875,0.330218642950058,0.44366639852523804,-0.1829138845205307
1783002716624284000,4.415283935546875,0.3545975089073181,0.4432333707809448,-0.10116949677467346
1783002716634336000,4.4253359375,0.35554373264312744,0.4396125376224518,-0.046354182064533234
1783002716644387000,4.435386962890625,0.33736419677734375,0.39157548546791077,-0.05263578146696091
1783002716654439000,4.44543896484375,0.2959679961204529,0.291323721408844,-0.10776720941066742
1783002716664490000,4.455489990234375,0.23932524025440216,0.17511455714702606,-0.19481635093688965
1783002716674541800,4.465541748046875,0.18517464399337769,0.09778621792793274,-0.2831520736217499
1783002716684593000,4.475593017578125,0.1463170051574707,0.0996195375919342,-0.3396505117416382
1783002716694645000,4.48564501953125,0.13354900479316711,0.13942420482635498,-0.35825109481811523
1783002716704696000,4.495696044921875,0.142729714512825,0.18654191493988037,-0.3435014486312866
1783002716714748200,4.505748046875,0.17146682739257812,0.24570004642009735,-0.29815152287483215
1783002716724799200,4.51579931640625,0.21063287556171417,0.2714104652404785,-0.2582312822341919
1783002716734851000,4.52585107421875,0.25675588846206665,0.2311519980430603,-0.23569348454475403
1783002716744902100,4.535902099609375,0.27609604597091675,0.15287183225154877,-0.22053423523902893
1783002716754954000,4.5459541015625,0.2553313672542572,0.11941561102867126,-0.2208184003829956
1783002716765005000,4.556005126953125,0.1991320103406906,0.10616958141326904,-0.2298385202884674
1783002716775057200,4.56605712890625,0.11559184640645981,0.05542730540037155,-0.24145789444446564
1783002716785108000,4.57610791015625,0.016591493040323257,-0.057191651314496994,-0.2600294351577759
1783002716795160000,4.58616015625,-0.08835915476083755,-0.1768171191215515,-0.26650387048721313
1783002716805211100,4.596211181640625,-0.1782509684562683,-0.21491922438144684,-0.2761380970478058
1783002716815263000,4.606262939453125,-0.22723528742790222,-0.19982309639453888,-0.28846055269241333
1783002716825314000,4.61631396484375,-0.23841522634029388,-0.17252276837825775,-0.3175169825553894
1783002716835366000,4.626365966796875,-0.2123495489358902,-0.15756699442863464,-0.3358269929885864
1783002716845417000,4.6364169921875,-0.1858239322900772,-0.10220599919557571,-0.2950798571109772
1783002716855469000,4.646468994140625,-0.17108279466629028,0.02949211187660694,-0.22849468886852264
1783002716865520000,4.65652001953125,-0.16259077191352844,0.11280937492847443,-0.1807367503643036
1783002716875572000,4.666572021484375,-0.15310539305210114,0.10261399298906326,-0.16310903429985046
1783002716885623000,4.676623046875,-0.13865216076374054,0.05110925808548927,-0.14694364368915558
1783002716895675000,4.6866748046875,-0.13545583188533783,-0.005147091578692198,-0.12193229794502258
1783002716905726000,4.696725830078125,-0.13980424404144287,-0.021618209779262543,-0.08575565367937088
1783002716915778000,4.706778076171875,-0.13420706987380981,-0.020181167870759964,-0.04193892702460289
1783002716925828900,4.716828857421875,-0.12011256068944931,-0.028154406696558,-0.0012266519479453564
1783002716935881200,4.726881103515625,-0.10284408926963806,-0.06348630040884018,0.030133934691548347
1783002716945932000,4.73693212890625,-0.0889304056763649,-0.11826273053884506,0.056228384375572205
1783002716955984100,4.746984130859375,-0.0714680552482605,-0.12841762602329254,0.07834167778491974
1783002716966035200,4.75703515625,-0.07115167379379272,-0.12327452749013901,0.08096195757389069
1783002716976087000,4.767087158203125,-0.075764000415802,-0.13366831839084625,0.0541473925113678
1783002716986138000,4.77713818359375,-0.08181443810462952,-0.16086211800575256,0.02167067490518093
1783002716996190000,4.78718994140625,-0.09255310148000717,-0.18055912852287292,0.013519536703824997
1783002717006241000,4.797240966796875,-0.11542432755231857,-0.1715909242630005,0.02233246900141239
1783002717016293000,4.807293212890625,-0.13349281251430511,-0.1478872001171112,0.033914025872945786
1783002717026344000,4.817343994140625,-0.1403142362833023,-0.13763375580310822,0.040774859488010406
1783002717036396000,4.82739599609375,-0.13318096101284027,-0.1515011042356491,0.04074529930949211
1783002717046447000,4.837447021484375,-0.12427560985088348,-0.1892319768667221,0.05241260677576065
1783002717056499000,4.8474990234375,-0.12743918597698212,-0.21506011486053467,0.06482826173305511
1783002717066550000,4.857550048828125,-0.12800563871860504,-0.24044562876224518,0.06475529074668884
1783002717076601900,4.867601806640625,-0.13110102713108063,-0.28279176354408264,0.0542890727519989
1783002717086653000,4.87765283203125,-0.12866157293319702,-0.33458784222602844,0.04123292490839958
1783002717096705000,4.887705078125,-0.12320848554372787,-0.3706994950771332,0.031569644808769226
1783002717106756000,4.897756103515625,-0.11897911876440048,-0.3581608235836029,0.04528678581118584
1783002717116808000,4.907807861328125,-0.10789424180984497,-0.2691614329814911,0.07941173762083054
1783002717126860000,4.917860107421875,-0.11562033742666245,-0.17945657670497894,0.10225339978933334
1783002717136911000,4.9279111328125,-0.15729588270187378,-0.22079256176948547,0.08115743845701218
1783002717146963200,4.937963134765625,-0.2252485603094101,-0.33547279238700867,0.012856409884989262
1783002717157014000,4.948013916015625,-0.27960023283958435,-0.4182419776916504,-0.09840806573629379
1783002717167066000,4.958066162109375,-0.32299137115478516,-0.45033174753189087,-0.19693809747695923
1783002717177117200,4.9681171875,-0.38017183542251587,-0.40526068210601807,-0.2679821848869324
1783002717187169000,4.9781689453125,-0.4429180324077606,-0.32582736015319824,-0.3148799240589142
1783002717197220000,4.98822021484375,-0.49236947298049927,-0.2356404811143875,-0.36530765891075134
1783002717207272000,4.99827197265625,-0.5287706255912781,-0.14112143218517303,-0.41613808274269104
1783002717217323000,5.008322998046875,-0.536551296710968,-0.03622538223862648,-0.45955348014831543
1783002717227375000,5.018375,-0.5078917145729065,0.05862070247530937,-0.4806310534477234
1783002717237426000,5.028426025390625,-0.44297078251838684,0.12190699577331543,-0.49608537554740906
1783002717247478000,5.03847802734375,-0.34900006651878357,0.145999014377594,-0.4840630888938904
1783002717257529000,5.048529052734375,-0.2416618913412094,0.14127349853515625,-0.4465213119983673
1783002717267581000,5.058580810546875,-0.13432957231998444,0.12718138098716736,-0.374258816242218
1783002717277632000,5.068632080078125,-0.0288819819688797,0.11282055824995041,-0.2644697427749634
1783002717287683800,5.078683837890625,0.06694334745407104,0.08558014780282974,-0.104632668197155
1783002717297735000,5.08873486328125,0.1300317645072937,0.03179414942860603,0.08468905836343765
1783002717307787000,5.098787109375,0.15864476561546326,-0.02160968817770481,0.25461336970329285
1783002717317838000,5.108838134765625,0.16793760657310486,-0.06059250608086586,0.37058472633361816
1783002717327890200,5.11889013671875,0.15689507126808167,-0.11850906908512115,0.40429049730300903
1783002717337941000,5.12894091796875,0.12236479669809341,-0.1984771341085434,0.36640727519989014
1783002717347993000,5.1389931640625,0.07473282516002655,-0.25665417313575745,0.3062179684638977
1783002717358044200,5.149044189453125,0.011888884007930756,-0.26499438285827637,0.2525422275066376
1783002717368096000,5.159095947265625,-0.049370214343070984,-0.23709803819656372,0.18644098937511444
1783002717378147000,5.16914697265625,-0.105202317237854,-0.21158309280872345,0.09420958906412125
1783002717388199200,5.17919921875,-0.15526682138442993,-0.1791076958179474,-0.0105328019708395
1783002717398250000,5.18925,-0.19805103540420532,-0.10834910720586777,-0.11975569278001785
1783002717408302000,5.199302001953125,-0.23938675224781036,-0.012461196631193161,-0.20904801785945892
1783002717418353200,5.209353271484375,-0.27937865257263184,0.07273279130458832,-0.27424219250679016
1783002717428405000,5.219405029296875,-0.3144375681877136,0.11441579461097717,-0.30879566073417664
1783002717438456000,5.2294560546875,-0.3426116704940796,0.1500110626220703,-0.3006799519062042
1783002717448508000,5.2395078125,-0.35494211316108704,0.19256092607975006,-0.24333782494068146
1783002717458559000,5.24955908203125,-0.34849512577056885,0.2416166216135025,-0.1631295382976532
1783002717468611000,5.259611083984375,-0.3242467939853668,0.2713702619075775,-0.08265466243028641
1783002717478662000,5.269661865234375,-0.2846525013446808,0.2681331932544708,-0.023958861827850342
1783002717488714000,5.2797138671875,-0.23652252554893494,0.2519792318344116,0.017071394249796867
1783002717498765000,5.28976513671875,-0.1861962378025055,0.21619541943073273,0.05107463523745537
1783002717508817000,5.29981689453125,-0.1334667205810547,0.15981842577457428,0.07516985386610031
1783002717518868000,5.309867919921875,-0.0933549776673317,0.0969073697924614,0.0846397876739502
1783002717528919800,5.319919921875,-0.06148626282811165,0.06505623459815979,0.09630309790372849
1783002717538971000,5.329970947265625,-0.043410323560237885,0.06534785032272339,0.11393216252326965
1783002717549023200,5.340023193359375,-0.038247253745794296,0.05615647882223129,0.12244841456413269
1783002717559075000,5.350074951171875,-0.04489557072520256,0.028182901442050934,0.1142011433839798
1783002717569126100,5.360126220703125,-0.05338066816329956,0.015380021184682846,0.11314280331134796
1783002717579178000,5.370177978515625,-0.0729740783572197,0.0032661007717251778,0.10637704282999039
1783002717589229000,5.38022900390625,-0.10244142264127731,-0.03431909158825874,0.06126788631081581
1783002717599281200,5.39028125,-0.1379576027393341,-0.07181479781866074,0.00008495483780279756
1783002717609332000,5.40033203125,-0.15616562962532043,-0.06653055548667908,-0.0549926795065403
1783002717619384000,5.410384033203125,-0.15989245474338531,-0.0368696004152298,-0.07553283870220184
1783002717629435100,5.42043505859375,-0.14436596632003784,0.011818842962384224,-0.07174129784107208
1783002717639487000,5.430487060546875,-0.11760226637125015,0.05519348010420799,-0.05188636854290962
1783002717649538000,5.4405380859375,-0.0925336629152298,0.05657379701733589,-0.047996554523706436
1783002717659590000,5.45058984375,-0.07466544955968857,0.014596253633499146,-0.07088083028793335
1783002717669641000,5.460640869140625,-0.05621054023504257,-0.028378112241625786,-0.08039337396621704
1783002717679693000,5.470693115234375,-0.05221393704414368,-0.06932181864976883,-0.07387954741716385
1783002717689744000,5.480743896484375,-0.054675497114658356,-0.038839008659124374,-0.07295383512973785
1783002717699796000,5.4907958984375,-0.06366925686597824,0.027248399332165718,-0.10913047939538956
1783002717709847000,5.500846923828125,-0.07440605759620667,0.11077205091714859,-0.20491905510425568
1783002717719899000,5.51089892578125,-0.07558503746986389,0.1263912320137024,-0.34092774987220764
1783002717729950000,5.520949951171875,-0.05913575738668442,0.06181276589632034,-0.4756712019443512
1783002717740002000,5.531001953125,-0.04250591620802879,-0.042879290878772736,-0.6014477610588074
1783002717750052900,5.541052978515625,-0.0364735871553421,-0.15290938317775726,-0.7243340015411377
1783002717760105200,5.551105224609375,-0.021377993747591972,-0.21445636451244354,-0.80500727891922
1783002717770156000,5.561156005859375,-0.0068182251416146755,-0.19366666674613953,-0.8576523661613464
1783002717780208000,5.5712080078125,0.0010341054294258356,-0.14595746994018555,-0.8822019100189209
1783002717790259200,5.58125927734375,-0.015336345881223679,-0.1078585535287857,-0.8691868185997009
1783002717800311000,5.59131103515625,-0.04628520831465721,-0.019941218197345734,-0.8265000581741333
1783002717810362000,5.601362060546875,-0.07760770618915558,0.09983444958925247,-0.7483993768692017
1783002717820414000,5.6114140625,-0.08027033507823944,0.17538033425807953,-0.5876600742340088
1783002717830465000,5.621465087890625,-0.055151935666799545,0.2592350244522095,-0.37520983815193176
1783002717840517000,5.63151708984375,0.007210774812847376,0.3268795907497406,-0.1612197756767273
1783002717850568000,5.64156787109375,0.08150418102741241,0.37135252356529236,0.011562912724912167
1783002717860620000,5.6516201171875,0.1749049723148346,0.32737839221954346,0.12621013820171356
1783002717870671000,5.661671142578125,0.2429303526878357,0.23434805870056152,0.19035875797271729
1783002717880723000,5.671722900390625,0.2616502344608307,0.13732589781284332,0.22434628009796143
1783002717890774000,5.68177392578125,0.23801842331886292,0.09737741947174072,0.247426837682724
1783002717900825900,5.691825927734375,0.2021682858467102,0.17772738635540009,0.21553681790828705
1783002717910877000,5.701876953125,0.17245538532733917,0.2864280343055725,0.09972047060728073
1783002717920929000,5.711928955078125,0.14107456803321838,0.34973031282424927,-0.08890430629253387
1783002717930979800,5.721979736328125,0.10027014464139938,0.3731677234172821,-0.3169313371181488
1783002717941032000,5.732031982421875,0.059900350868701935,0.36480167508125305,-0.5152942538261414
1783002717951083000,5.7420830078125,0.01660933718085289,0.36055952310562134,-0.6408033967018127
1783002717961135000,5.752135009765625,-0.026741866022348404,0.3308620750904083,-0.6856169700622559
1783002717971187200,5.762187255859375,-0.06603121757507324,0.3235418498516083,-0.664681077003479
1783002717981238000,5.772238037109375,-0.06019702926278114,0.419238805770874,-0.5791259407997131
1783002717991290000,5.7822900390625,0.017296964302659035,0.6382113695144653,-0.4515666663646698
1783002718001341200,5.792341064453125,0.14733059704303741,0.8761429786682129,-0.2678106725215912
1783002718011393000,5.80239306640625,0.19098539650440216,1.1812893152236938,0.2311067134141922
1783002718021444000,5.812444091796875,0.29043635725975037,0.8218514919281006,0.3616950809955597
1783002718031496000,5.822495849609375,0.4484321177005768,0.3653223216533661,0.1552596241235733
1783002718041547000,5.832547119140625,0.5713084936141968,0.09191953390836716,-0.13193193078041077
1783002718051599000,5.84259912109375,0.5627504587173462,-0.19286851584911346,-0.4686841368675232
1783002718061650000,5.85264990234375,0.47359687089920044,-0.35944071412086487,-0.7749641537666321
1783002718071702000,5.862701904296875,0.32461005449295044,-0.27747607231140137,-0.9515509009361267
1783002718081753000,5.872753173828125,0.16003787517547607,-0.07383880019187927,-0.966546893119812
1783002718091805000,5.882804931640625,0.06556276232004166,0.17962782084941864,-0.7939077615737915
1783002718101856000,5.89285595703125,0.05066903680562973,0.2828327715396881,-0.5368692874908447
