time,seconds_elapsed,z,y,x
1783002712295855400,0.08685546875,0.004315674304962158,-0.03444908559322357,0.3203338086605072
1783002712305907200,0.0969072265625,0.03762708604335785,-0.02110152877867222,0.23566357791423798
1783002712315958300,0.106958251953125,0.08615387976169586,0.004591584205627441,0.11673159897327423
1783002712326010000,0.117010009765625,0.13851207494735718,-0.013309135101735592,0.009941942989826202
1783002712336061200,0.127061279296875,0.17343011498451233,-0.010327992960810661,-0.044672563672065735
1783002712346113500,0.137113525390625,0.20964139699935913,0.026012130081653595,-0.040302127599716187
1783002712356164000,0.1471640625,0.23258666694164276,0.11967071145772934,-0.013817520812153816
1783002712366216400,0.157216552734375,0.23079770803451538,0.16469037532806396,0.016174569725990295
1783002712376267500,0.167267578125,0.17311576008796692,0.1913701891899109,0.08420049399137497
1783002712386319400,0.1773193359375,0.10180090367794037,0.2918913662433624,0.19425342977046967
1783002712396370400,0.187370361328125,0.06277947127819061,0.36498501896858215,0.28300297260284424
1783002712406422300,0.19742236328125,0.07257392257452011,0.32769787311553955,0.2897087633609772
1783002712416473300,0.207473388671875,0.11176526546478271,0.1930101066827774,0.20789696276187897
1783002712426525400,0.217525390625,0.14609265327453613,0.014779375866055489,0.0886143296957016
1783002712436576300,0.227576171875,0.13063646852970123,-0.07567968219518661,-0.012338384985923767
1783002712446628400,0.23762841796875,0.1040928065776825,-0.07051526755094528,-0.07084927707910538
1783002712456679400,0.247679443359375,0.08837056905031204,-0.0435989648103714,-0.09147120267152786
1783002712466731300,0.257731201171875,0.08928942680358887,-0.02721274271607399,-0.08629651367664337
1783002712476782300,0.2677822265625,0.07667509466409683,0.038119126111269,-0.044089674949645996
1783002712486834200,0.277834228515625,0.06413398683071136,0.15552915632724762,0.01890641078352928
1783002712496885200,0.28788525390625,0.08484911918640137,0.2490074336528778,0.07605811953544617
1783002712506937300,0.297937255859375,0.13366970419883728,0.2556431293487549,0.10574042052030563
1783002712516988200,0.30798828125,0.18156558275222778,0.23597858846187592,0.13206976652145386
1783002712527040300,0.318040283203125,0.23921167850494385,0.19786705076694489,0.13734987378120422
1783002712537091300,0.32809130859375,0.296211302280426,0.10601409524679184,0.09015440195798874
1783002712547143200,0.33814306640625,0.3194369971752167,-0.03057425655424595,0.0004391949623823166
1783002712557194200,0.3481943359375,0.2840622365474701,-0.12211855500936508,-0.0837545096874237
1783002712567246300,0.358246337890625,0.23494358360767365,-0.11785728484392166,-0.111152283847332
1783002712577297400,0.36829736328125,0.23621338605880737,-0.03336317092180252,-0.07748779654502869
1783002712587349500,0.378349609375,0.3311386704444885,0.16507528722286224,-0.09238319098949432
1783002712597400300,0.388400390625,0.5341264009475708,0.4402410686016083,-0.2455386519432068
1783002712607452400,0.398452392578125,0.8062148690223694,0.6569392085075378,-0.5064597129821777
1783002712617503500,0.40850341796875,1.0029537677764893,0.9554247260093689,-0.7652481198310852
1783002712627555300,0.418555419921875,1.0441434383392334,1.3023384809494019,-1.0265731811523438
1783002712637606400,0.4286064453125,0.8892356157302856,1.5511744022369385,-1.3011863231658936
1783002712647658200,0.438658203125,0.6825510859489441,1.6110544204711914,-1.6557108163833618
1783002712657709300,0.448709228515625,0.4293651282787323,1.5771193504333496,-2.0628480911254883
1783002712667761400,0.458761474609375,0.34993231296539307,1.2777961492538452,-2.3635268211364746
1783002712677812200,0.468812255859375,0.48973575234413147,0.9879897832870483,-2.368591785430908
1783002712687864300,0.4788642578125,0.543268084526062,1.1285486221313477,-2.214073896408081
1783002712697915400,0.488915283203125,0.5373260974884033,1.0855311155319214,-1.8701051473617554
1783002712707967200,0.49896728515625,0.48573967814445496,1.1383602619171143,-1.3947244882583618
1783002712718018300,0.509018310546875,0.3912094235420227,1.1912323236465454,-0.8369285464286804
1783002712728070100,0.519070068359375,0.2853826582431793,1.051477074623108,-0.32058364152908325
1783002712738121200,0.529121337890625,0.1778801828622818,0.6836487650871277,0.10021580010652542
1783002712748172300,0.53917236328125,0.023220300674438477,0.21339364349842072,0.48864689469337463
1783002712758224100,0.54922412109375,-0.15140555799007416,-0.27675876021385193,0.8224866390228271
1783002712768275200,0.559275146484375,-0.29810333251953125,-0.7380474209785461,1.0393705368041992
1783002712778327300,0.569327392578125,-0.40276074409484863,-1.1075093746185303,1.117555022239685
1783002712788378000,0.579378173828125,-0.4628327488899231,-1.3420809507369995,1.096925973892212
1783002712798430500,0.589430419921875,-0.47130876779556274,-1.3813625574111938,1.022437334060669
1783002712808481300,0.599481201171875,-0.41911783814430237,-1.2558835744857788,0.9143221378326416
1783002712818533400,0.609533447265625,-0.2831522822380066,-0.9869231581687927,0.7992493510246277
1783002712828584400,0.61958447265625,-0.13379214704036713,-0.6205083131790161,0.6400504112243652
1783002712838636300,0.62963623046875,-0.002152357716113329,-0.27710962295532227,0.4601370692253113
1783002712848687400,0.639687255859375,0.11104758828878403,-0.11133158206939697,0.35886064171791077
1783002712858739500,0.649739501953125,0.13114246726036072,0.014612499624490738,0.22172805666923523
1783002712868790300,0.659790283203125,0.07921935617923737,0.1694342941045761,-0.06434443593025208
1783002712878842400,0.66984228515625,0.09441322088241577,0.33052945137023926,-0.17937035858631134
1783002712888893400,0.6798935546875,0.16768869757652283,0.5057971477508545,-0.19029898941516876
1783002712898945300,0.6899453125,0.21849195659160614,0.6125441193580627,-0.23280943930149078
1783002712908996400,0.699996337890625,0.21578386425971985,0.5619373321533203,-0.2648661732673645
1783002712919048200,0.710048095703125,0.18047860264778137,0.4431518316268921,-0.2698686420917511
1783002712929099300,0.720099365234375,0.1362486630678177,0.2594393193721771,-0.24291907250881195
1783002712939151400,0.7301513671875,0.08403152972459793,0.07369367778301239,-0.18101122975349426
1783002712949202200,0.7402021484375,0.024682138115167618,-0.1052684560418129,-0.05973856896162033
1783002712959254300,0.750254150390625,-0.028162170201539993,-0.23984810709953308,0.12619881331920624
1783002712969305300,0.760305419921875,-0.06636686623096466,-0.3313388228416443,0.3159402310848236
1783002712979357200,0.770357177734375,-0.06811176240444183,-0.40273764729499817,0.4752526581287384
1783002712989408300,0.780408203125,-0.0038918256759643555,-0.4345206618309021,0.6708742380142212
1783002712999460000,0.790460205078125,0.12456761300563812,-0.2683732509613037,0.8997212648391724
1783002713009511200,0.80051123046875,0.24955669045448303,0.01148181315511465,1.0772310495376587
1783002713019563500,0.8105634765625,0.3366601765155792,0.22642847895622253,1.1099953651428223
1783002713029614300,0.8206142578125,0.41962844133377075,0.3469686210155487,0.9947823286056519
1783002713039666400,0.83066650390625,0.5013939142227173,0.47401899099349976,0.8015764355659485
1783002713049717500,0.840717529296875,0.5444690585136414,0.5761537551879883,0.5863795280456543
1783002713059769300,0.850769287109375,0.5500859618186951,0.6139309406280518,0.3730105459690094
1783002713069820400,0.8608203125,0.5291428565979004,0.5807542204856873,0.15614381432533264
1783002713079872300,0.870872314453125,0.49229031801223755,0.4170171916484833,-0.05277532339096069
1783002713089923300,0.88092333984375,0.42076170444488525,0.22220930457115173,-0.23254239559173584
1783002713099975400,0.890975341796875,0.30897340178489685,0.01858401484787464,-0.4006730914115906
1783002713110026200,0.901026123046875,0.18177635967731476,-0.19811445474624634,-0.5257040858268738
1783002713120078300,0.911078369140625,0.05025535821914673,-0.4026830494403839,-0.5964595079421997
1783002713130129400,0.92112939453125,-0.08191189914941788,-0.5483899116516113,-0.6202354431152344
1783002713140181200,0.93118115234375,-0.22824141383171082,-0.6002485752105713,-0.5832313895225525
1783002713150232300,0.941232421875,-0.35844144225120544,-0.5326881408691406,-0.46851667761802673
1783002713160284200,0.9512841796875,-0.4393235146999359,-0.3754361867904663,-0.2876366674900055
1783002713170335200,0.961335205078125,-0.4492075741291046,-0.2117878496646881,-0.11055588722229004
1783002713180387300,0.97138720703125,-0.3942095637321472,-0.09954813122749329,0.021610140800476074
1783002713190438100,0.981438232421875,-0.2769559621810913,-0.01985088177025318,0.09873872995376587
1783002713200490200,0.991490234375,-0.11309247463941574,0.06941214948892593,0.1375090330839157
1783002713210541300,1.001541259765625,0.07126658409833908,0.17360733449459076,0.15447521209716797
1783002713220593200,1.01159326171875,0.2434961348772049,0.23169247806072235,0.18048551678657532
1783002713230644200,1.021644287109375,0.34964096546173096,0.27083587646484375,0.22569666802883148
1783002713240696000,1.031696044921875,0.4001384675502777,0.30172351002693176,0.28972330689430237
1783002713250747100,1.0417470703125,0.3915700912475586,0.2506779730319977,0.3416919410228729
1783002713260799200,1.05179931640625,0.3321882486343384,0.0929621234536171,0.35129663348197937
1783002713270850300,1.061850341796875,0.2466081976890564,-0.10030341893434525,0.31865769624710083
1783002713280902100,1.071902099609375,0.1590879261493683,-0.2417103499174118,0.28681430220603943
1783002713290953200,1.081953125,0.07591620087623596,-0.3658857047557831,0.2522451877593994
1783002713301005000,1.092005126953125,0.017872603610157967,-0.5105481147766113,0.23953364789485931
1783002713311056100,1.10205615234375,-0.020176440477371216,-0.6364582180976868,0.23883789777755737
1783002713321108200,1.112108154296875,-0.05275755375623703,-0.6427730917930603,0.2438957691192627
1783002713331159000,1.122158935546875,-0.07200980931520462,-0.5537900924682617,0.23126329481601715
1783002713341211400,1.13221142578125,-0.07590601593255997,-0.4340122938156128,0.19704566895961761
1783002713351262200,1.14226220703125,-0.052624937146902084,-0.35124480724334717,0.15209615230560303
1783002713361314300,1.152314208984375,0.0010880897752940655,-0.24355857074260712,0.11616450548171997
1783002713371365400,1.162365478515625,0.08702383935451508,-0.10597538203001022,0.08884615451097488
1783002713381417200,1.172417236328125,0.1704268604516983,-0.08395636826753616,0.0825834646821022
1783002713391468300,1.18246826171875,0.2086995393037796,-0.13181902468204498,0.11757103353738785
1783002713401520000,1.19252001953125,0.201009139418602,-0.1383696049451828,0.16534999012947083
1783002713411571200,1.2025712890625,0.14004386961460114,-0.10507772862911224,0.17800936102867126
1783002713421623300,1.212623291015625,0.04025442525744438,-0.02713499218225479,0.14064601063728333
1783002713431674400,1.22267431640625,-0.05782128497958183,0.06807278841733932,0.057704851031303406
1783002713441726200,1.232726318359375,-0.12996099889278412,0.1551443189382553,-0.040757276117801666
1783002713451777300,1.24277734375,-0.16699112951755524,0.18971319496631622,-0.13082996010780334
1783002713461829000,1.2528291015625,-0.155165895819664,0.1586596667766571,-0.15637552738189697
1783002713471880200,1.262880126953125,-0.10304718464612961,0.15299081802368164,-0.12240763008594513
1783002713481932300,1.272932373046875,-0.0072753834538161755,0.1673431247472763,-0.045250795781612396
1783002713491983000,1.282983154296875,0.1130693256855011,0.13192208111286163,0.022247424349188805
1783002713502035200,1.29303515625,0.2387162148952484,0.011808730661869049,0.05520670861005783
1783002713512086300,1.303086181640625,0.3110242784023285,-0.14617149531841278,0.05633385851979256
1783002713522138000,1.31313818359375,0.3137625455856323,-0.1991063505411148,0.05293593555688858
1783002713532189200,1.323189208984375,0.2734428346157074,-0.08897743374109268,0.044625937938690186
1783002713542241000,1.333240966796875,0.19284144043922424,0.09728005528450012,0.015729039907455444
1783002713552292000,1.3432919921875,0.11522452533245087,0.21660847961902618,-0.03938574716448784
1783002713562344200,1.35334423828125,0.04875655472278595,0.2182425856590271,-0.10596530884504318
1783002713572395300,1.363395263671875,0.019310133531689644,0.15347088873386383,-0.16528601944446564
1783002713582447400,1.373447265625,0.010179752483963966,0.10765626281499863,-0.18793487548828125
1783002713592498200,1.383498291015625,0.02232881262898445,0.10636992007493973,-0.15267236530780792
1783002713602550300,1.39355029296875,0.0540369376540184,0.09507358819246292,-0.08395296335220337
1783002713612601300,1.403601318359375,0.09287893027067184,-0.012777677737176418,-0.013900404796004295
1783002713622653200,1.413653076171875,0.12210392206907272,-0.23017576336860657,0.053672779351472855
1783002713632704300,1.423704345703125,0.13242629170417786,-0.3599647581577301,0.14578622579574585
1783002713642756000,1.433756103515625,0.12742140889167786,-0.26840394735336304,0.22631169855594635
1783002713652807200,1.44380712890625,0.11663591116666794,-0.11648637056350708,0.2485956847667694
1783002713662859300,1.453859375,0.11259003728628159,-0.04496079310774803,0.21355487406253815
1783002713672910300,1.463910400390625,0.12711410224437714,-0.07081054151058197,0.16240499913692474
1783002713682961200,1.473961181640625,0.14299321174621582,-0.10871850699186325,0.12309861183166504
1783002713693013200,1.48401318359375,0.13631325960159302,-0.0755932554602623,0.09826266020536423
1783002713703065000,1.494065185546875,0.10817935317754745,-0.013828953728079796,0.08043252676725388
1783002713713116200,1.5041162109375,0.06675563752651215,0.04150080308318138,0.07124099135398865
1783002713723168300,1.514168212890625,0.018679192289710045,0.07705480605363846,0.06922151893377304
1783002713733219000,1.524218994140625,-0.013941166922450066,0.054677579551935196,0.05843634158372879
1783002713743270100,1.534270263671875,-0.03816048800945282,-0.053452085703611374,0.03576352447271347
1783002713753322200,1.544322265625,-0.037112824618816376,-0.17265386879444122,0.04940808191895485
1783002713763374000,1.5543740234375,-0.03141685575246811,-0.2317318469285965,0.11235988885164261
1783002713773425200,1.564425048828125,-0.02796139568090439,-0.2772565186023712,0.18444597721099854
1783002713783476200,1.574476318359375,-0.027574170380830765,-0.33790016174316406,0.2392229437828064
1783002713793528300,1.5845283203125,-0.019029825925827026,-0.4242505133152008,0.28845423460006714
1783002713803579100,1.5945791015625,-0.03348945826292038,-0.44130778312683105,0.37334170937538147
1783002713813631200,1.60463134765625,-0.06338507682085037,-0.3210529088973999,0.46202197670936584
1783002713823682300,1.614682373046875,-0.06880966573953629,-0.15677179396152496,0.5240464806556702
1783002713833734400,1.624734375,-0.06715823709964752,-0.03904756158590317,0.548409640789032
1783002713843786200,1.6347861328125,-0.07063126564025879,-0.06519261002540588,0.5261881947517395
1783002713853837300,1.64483740234375,-0.11995964497327805,-0.2052864283323288,0.4540528357028961
1783002713863888400,1.654888427734375,-0.1853455901145935,-0.32201462984085083,0.33171841502189636
1783002713873940200,1.664940185546875,-0.2359481155872345,-0.3951877951622009,0.1659112423658371
1783002713883991300,1.6749912109375,-0.2690831422805786,-0.40839362144470215,-0.009199332445859909
1783002713894043100,1.685043212890625,-0.28922808170318604,-0.36453625559806824,-0.15023016929626465
1783002713904094200,1.69509423828125,-0.2920861840248108,-0.3034984767436981,-0.22417044639587402
1783002713914146300,1.705146240234375,-0.2900792360305786,-0.23639699816703796,-0.22717803716659546
1783002713924197000,1.715197021484375,-0.2594741880893707,-0.17390592396259308,-0.1664060354232788
1783002713934249200,1.725249267578125,-0.19025510549545288,-0.11979686468839645,-0.07534102350473404
1783002713944300300,1.73530029296875,-0.09728547930717468,-0.11419223994016647,0.013082846999168396
1783002713954352000,1.74535205078125,-0.015970544889569283,-0.1938248723745346,0.05164848268032074
1783002713964403200,1.7554033203125,0.025896478444337845,-0.28734999895095825,0.030060097575187683
1783002713974455000,1.765455078125,0.038319140672683716,-0.3309120535850525,-0.03205782175064087
1783002713984506000,1.775506103515625,0.04658932238817215,-0.308906614780426,-0.10246913880109787
1783002713994558200,1.78555810546875,0.050476666539907455,-0.17212386429309845,-0.11577999591827393
1783002714004609000,1.795609130859375,0.05311186611652374,-0.012367494404315948,-0.0862647145986557
1783002714014661400,1.805661376953125,0.06030058488249779,0.04477830231189728,-0.05189795792102814
1783002714024712400,1.81571240234375,0.0690181702375412,0.011336457915604115,-0.02369987592101097
1783002714034764300,1.825764404296875,0.06915435194969177,-0.046037644147872925,0.006610640324652195
1783002714044815400,1.8358154296875,0.05524199828505516,-0.10969678312540054,0.027237089350819588
1783002714054867200,1.8458671875,0.032597847282886505,-0.17404817044734955,0.032833680510520935
1783002714064918300,1.855918212890625,0.0031808363273739815,-0.21993418037891388,0.027706559747457504
1783002714074970400,1.865970458984375,-0.04143461585044861,-0.20776307582855225,0.013996637426316738
1783002714085021200,1.876021240234375,-0.08733206987380981,-0.1529666781425476,-0.006369088310748339
1783002714095073300,1.8860732421875,-0.14267858862876892,-0.0439041405916214,-0.017718931660056114
1783002714105124400,1.896124267578125,-0.20093576610088348,0.05108628422021866,-0.04480753839015961
1783002714115176200,1.90617626953125,-0.23723770678043365,0.06799671053886414,-0.09161532670259476
1783002714125227300,1.916227294921875,-0.2504003942012787,0.03590695559978485,-0.14766687154769897
1783002714135279000,1.926279052734375,-0.2596714496612549,-0.03520691767334938,-0.1893845796585083
1783002714145330200,1.936330078125,-0.2748623788356781,-0.053348906338214874,-0.1831730157136917
1783002714155382300,1.94638232421875,-0.28138968348503113,0.022723380476236343,-0.13268494606018066
1783002714165433000,1.95643310546875,-0.2672238051891327,0.09749162942171097,-0.061449386179447174
1783002714175485200,1.966485107421875,-0.23401229083538055,0.12763799726963043,0.024225423112511635
1783002714185536300,1.976536376953125,-0.17714421451091766,0.09867718815803528,0.15080812573432922
1783002714195588000,1.986588134765625,-0.13079063594341278,0.10558301210403442,0.3360636532306671
1783002714205639200,1.99663916015625,-0.08703970164060593,0.16824719309806824,0.5095694065093994
1783002714215691000,2.00669091796875,-0.041320204734802246,0.197282075881958,0.6123431921005249
1783002714225742000,2.0167421875,-0.002732600551098585,0.18048526346683502,0.6070435047149658
1783002714235797800,2.0267978515625,0.01819906011223793,0.18028219044208527,0.49463972449302673
1783002714245848800,2.036848876953125,0.024828998371958733,0.23685172200202942,0.3164609670639038
1783002714255901000,2.04690087890625,0.005842681508511305,0.3188667893409729,0.09137044101953506
1783002714265951700,2.05695166015625,-0.029766976833343506,0.4120478630065918,-0.1388568878173828
1783002714276003800,2.06700390625,-0.09706676751375198,0.5084606409072876,-0.32129397988319397
1783002714286055000,2.077054931640625,-0.17712245881557465,0.5833008289337158,-0.41984477639198303
1783002714296106800,2.087106689453125,-0.23747658729553223,0.5993407964706421,-0.4430851936340332
1783002714306157800,2.09715771484375,-0.2598804533481598,0.5420987606048584,-0.3869665265083313
1783002714316210000,2.1072099609375,-0.2593553364276886,0.4837590157985687,-0.289004385471344
1783002714326260700,2.1172607421875,-0.23367394506931305,0.4138225317001343,-0.18266808986663818
1783002714336312800,2.127312744140625,-0.19068790972232819,0.29055914282798767,-0.11499892175197601
1783002714346364000,2.137364013671875,-0.12550412118434906,0.13247257471084595,-0.07788272202014923
1783002714356415700,2.147415771484375,-0.05699504166841507,0.03042801469564438,-0.029350969940423965
1783002714366466800,2.157466796875,-0.0016825147904455662,-0.011885885149240494,0.01023984793573618
1783002714376518700,2.1675185546875,0.047467026859521866,-0.02549394965171814,0.023980826139450073
1783002714386569700,2.17756982421875,0.08704692125320435,-0.018359873443841934,-0.003805262967944145
1783002714396621800,2.187621826171875,0.09815724194049835,0.0028438768349587917,-0.0462762787938118
1783002714406672600,2.197672607421875,0.09764324873685837,0.10958630591630936,-0.06282089650630951
1783002714416725000,2.20772509765625,0.08321793377399445,0.2681492865085602,-0.0969446524977684
1783002714426775800,2.21777587890625,0.08107861876487732,0.3431127369403839,-0.1633063703775406
1783002714436828000,2.227827880859375,0.10887163132429123,0.30554965138435364,-0.21470990777015686
1783002714446879000,2.23787890625,0.14933331310749054,0.3124094307422638,-0.21215645968914032
1783002714456930800,2.247930908203125,0.19395382702350616,0.34167271852493286,-0.1678081750869751
1783002714466982000,2.25798193359375,0.24660319089889526,0.32274484634399414,-0.08631225675344467
1783002714477033700,2.26803369140625,0.30390822887420654,0.273391455411911,0.02314845845103264
1783002714487084800,2.278084716796875,0.34749165177345276,0.2409898191690445,0.14827655255794525
1783002714497137000,2.288136962890625,0.3758946657180786,0.22396430373191833,0.24586458504199982
1783002714507188000,2.29818798828125,0.38166359066963196,0.21678654849529266,0.28703922033309937
1783002714517239800,2.30823974609375,0.39073407649993896,0.20712992548942566,0.2756584584712982
1783002714527291000,2.318290771484375,0.3818276524543762,0.21811947226524353,0.24732056260108948
1783002714537342700,2.3283427734375,0.3463318645954132,0.2728409767150879,0.20201967656612396
1783002714547393800,2.338393798828125,0.29069948196411133,0.29176220297813416,0.12230381369590759
1783002714557446000,2.34844580078125,0.2233765423297882,0.24826331436634064,0.0034196265041828156
1783002714567496700,2.35849658203125,0.15265417098999023,0.18991823494434357,-0.11241642385721207
1783002714577548800,2.368548828125,0.06627065688371658,0.20548921823501587,-0.18637411296367645
1783002714587600000,2.378599853515625,-0.014536842703819275,0.25829488039016724,-0.2153727412223816
1783002714597651700,2.388651611328125,-0.06907647103071213,0.2830602824687958,-0.2064807415008545
1783002714607702800,2.398702880859375,-0.08607462793588638,0.26265114545822144,-0.17740754783153534
1783002714617755000,2.4087548828125,-0.067304328083992,0.2384323626756668,-0.12000595033168793
1783002714627806000,2.418805908203125,-0.026473810896277428,0.20311565697193146,-0.060475777834653854
1783002714637857800,2.42885791015625,0.035056810826063156,0.14741508662700653,0.013972731307148933
1783002714647908900,2.438908935546875,0.0998387411236763,0.15388523042201996,0.13613539934158325
1783002714657961000,2.4489609375,0.16732044517993927,0.2398635745048523,0.27308279275894165
1783002714668011800,2.45901171875,0.23943325877189636,0.3164997398853302,0.37552234530448914
1783002714678063900,2.46906396484375,0.2809617221355438,0.28861764073371887,0.41825854778289795
1783002714688115000,2.479114990234375,0.28164029121398926,0.1917978674173355,0.4168207049369812
1783002714698166800,2.489166748046875,0.24916253983974457,0.10952064394950867,0.3839411437511444
1783002714708217900,2.4992177734375,0.18643204867839813,0.03682326897978783,0.31307682394981384
1783002714718270000,2.50927001953125,0.11137841641902924,-0.06369289755821228,0.20997437834739685
1783002714728320800,2.51932080078125,0.04074951633810997,-0.16750212013721466,0.10246921330690384
1783002714738372900,2.529372802734375,-0.01927199587225914,-0.23209820687770844,-0.015386920422315598
1783002714748424000,2.539423828125,-0.0741187334060669,-0.2804891765117645,-0.11858521401882172
1783002714758475800,2.549475830078125,-0.12923967838287354,-0.2803884446620941,-0.17517980933189392
1783002714768526800,2.55952685546875,-0.18675942718982697,-0.24157845973968506,-0.19877594709396362
1783002714778578700,2.56957861328125,-0.23816898465156555,-0.2732584774494171,-0.2407512366771698
1783002714788629800,2.579629638671875,-0.2784474194049835,-0.39108845591545105,-0.3024609386920929
1783002714798681900,2.589681884765625,-0.29654303193092346,-0.48864811658859253,-0.3309188783168793
1783002714808732700,2.599732666015625,-0.28684672713279724,-0.5031474232673645,-0.2908012866973877
1783002714818784800,2.60978466796875,-0.255705863237381,-0.4424556493759155,-0.19615930318832397
1783002714828835800,2.6198359375,-0.21899151802062988,-0.2797820568084717,-0.0538407638669014
1783002714838888000,2.629887939453125,-0.13793350756168365,-0.11966502666473389,0.12588031589984894
1783002714848939000,2.63993896484375,-0.02644798904657364,0.008117442019283772,0.3020596206188202
1783002714858990800,2.649990966796875,0.10340205579996109,0.05488618463277817,0.4501851201057434
1783002714869042000,2.6600419921875,0.2044258862733841,0.05410560965538025,0.5259395241737366
1783002714879093800,2.67009375,0.281437486410141,-0.014675804413855076,0.5031663179397583
1783002714889144800,2.680144775390625,0.334634929895401,-0.15461373329162598,0.3815522789955139
1783002714899197000,2.690197021484375,0.3609834313392639,-0.28389352560043335,0.18488532304763794
1783002714909248000,2.700248046875,0.35776233673095703,-0.3538489043712616,-0.034441445022821426
1783002714919299800,2.7102998046875,0.3337446451187134,-0.3649672269821167,-0.24473555386066437
1783002714929351000,2.720350830078125,0.2805432081222534,-0.361171156167984,-0.38462579250335693
1783002714939402800,2.73040283203125,0.19556568562984467,-0.2645465135574341,-0.42653635144233704
1783002714949453800,2.740453857421875,0.10198141634464264,-0.098575659096241,-0.3933413624763489
1783002714959506000,2.750505859375,0.04244953393936157,0.006480134557932615,-0.3358285129070282
1783002714969556700,2.760556640625,0.03202272951602936,0.0017074835486710072,-0.2927854359149933
1783002714979608800,2.77060888671875,0.05365343391895294,-0.04993778467178345,-0.22076942026615143
1783002714989660000,2.780659912109375,0.10116475820541382,-0.05639435350894928,-0.13969534635543823
1783002714999711700,2.790711669921875,0.1526125967502594,-0.05453936755657196,-0.0641707256436348
1783002715009763800,2.800763916015625,0.19376003742218018,-0.10111938416957855,-0.03407780081033707
1783002715019814700,2.810814697265625,0.2085464596748352,-0.13971185684204102,-0.05786477029323578
1783002715029865700,2.82086572265625,0.19893936812877655,-0.1073981374502182,-0.088706836104393
1783002715039917800,2.830917724609375,0.1832214891910553,0.011275448836386204,-0.10957010090351105
1783002715049970000,2.840969970703125,0.17245592176914215,0.14747482538223267,-0.12834058701992035
1783002715060021000,2.85102099609375,0.17676474153995514,0.24382157623767853,-0.16665200889110565
1783002715070072800,2.86107275390625,0.17993363738059998,0.2931630313396454,-0.23391813039779663
1783002715080124000,2.8711240234375,0.18238919973373413,0.3020917773246765,-0.2896590530872345
1783002715090175700,2.88117578125,0.17430198192596436,0.2949438691139221,-0.3230780065059662
1783002715100226800,2.891226806640625,0.15780679881572723,0.29357805848121643,-0.3218187391757965
1783002715110279000,2.90127880859375,0.1423753798007965,0.264207124710083,-0.2850271463394165
1783002715120330000,2.911330078125,0.12492035329341888,0.1958642452955246,-0.21216590702533722
1783002715130381800,2.9213818359375,0.10733416676521301,0.1053633764386177,-0.09920980036258698
1783002715140433000,2.931432861328125,0.08402775973081589,0.016718808561563492,0.012053758837282658
1783002715150484700,2.941484619140625,0.047251634299755096,-0.10612775385379791,0.064839206635952
1783002715160535800,2.951535888671875,0.009802820160984993,-0.23072248697280884,0.06226378306746483
1783002715170588000,2.961587890625,-0.014471892267465591,-0.2882521152496338,0.03410964459180832
1783002715180638700,2.971638671875,-0.03615650534629822,-0.2701270878314972,-0.0011414955370128155
1783002715190690800,2.98169091796875,-0.050155412405729294,-0.21024619042873383,-0.06503845751285553
1783002715200742000,2.991741943359375,-0.05047941580414772,-0.17645743489265442,-0.16020317375659943
1783002715210793700,3.001793701171875,-0.0371931716799736,-0.172340989112854,-0.262795627117157
1783002715220844800,3.0118447265625,-0.027174847200512886,-0.17911969125270844,-0.33485543727874756
1783002715230897000,3.02189697265625,-0.030793553218245506,-0.14427782595157623,-0.35231220722198486
1783002715240948200,3.0319482421875,-0.038325920701026917,-0.0848437175154686,-0.34186145663261414
1783002715251000300,3.042000244140625,-0.04531484842300415,-0.03955879807472229,-0.3356117904186249
1783002715261051100,3.052051025390625,-0.05253750458359718,-0.019061949104070663,-0.3465445637702942
1783002715271103500,3.062103515625,-0.06424476206302643,0.004565081559121609,-0.34015271067619324
1783002715281154300,3.072154296875,-0.08101672679185867,0.05040440708398819,-0.27514180541038513
1783002715291206400,3.082206298828125,-0.11561625450849533,0.12037816643714905,-0.17578060925006866
1783002715301257500,3.092257568359375,-0.13979248702526093,0.15657369792461395,-0.06972749531269073
1783002715311309300,3.102309326171875,-0.15248697996139526,0.10811775922775269,0.010187312960624695
1783002715321360400,3.1123603515625,-0.15736834704875946,0.004846171010285616,0.07007631659507751
1783002715331412200,3.122412109375,-0.16691897809505463,-0.06126387417316437,0.1297127604484558
1783002715341463300,3.13246337890625,-0.18514904379844666,-0.06760217994451523,0.16414165496826172
1783002715351515400,3.142515380859375,-0.19338779151439667,-0.08362296223640442,0.16220100224018097
1783002715361566200,3.152566162109375,-0.19178423285484314,-0.11258299648761749,0.12452129274606705
1783002715371618300,3.162618408203125,-0.1875133216381073,-0.1470072865486145,0.0629279688000679
1783002715381669400,3.17266943359375,-0.18940654397010803,-0.16112901270389557,0.0074358731508255005
1783002715391721200,3.18272119140625,-0.1968681961297989,-0.1282365620136261,-0.022542264312505722
1783002715401772300,3.192772216796875,-0.20078054070472717,-0.10392158478498459,-0.032589077949523926
1783002715411824000,3.20282421875,-0.19576235115528107,-0.12787646055221558,-0.03881794586777687
1783002715421875200,3.212875244140625,-0.19114434719085693,-0.19832956790924072,-0.04484671726822853
1783002715431927300,3.22292724609375,-0.20146329700946808,-0.32221662998199463,0.0046609146520495415
1783002715441978000,3.23297802734375,-0.24476702511310577,-0.34568148851394653,0.13448549807071686
1783002715452030200,3.2430302734375,-0.3016473650932312,-0.2467767596244812,0.2575259506702423
1783002715462081300,3.253081298828125,-0.34979572892189026,-0.2080986201763153,0.3365464210510254
1783002715472133400,3.26313330078125,-0.3587583303451538,-0.21362361311912537,0.3728759288787842
1783002715482184200,3.27318408203125,-0.33991286158561707,-0.22129303216934204,0.3775405287742615
1783002715492236300,3.283236328125,-0.3327026069164276,-0.24530676007270813,0.328001469373703
1783002715502287400,3.293287353515625,-0.35497480630874634,-0.33490532636642456,0.22160133719444275
1783002715512339500,3.30333935546875,-0.4068869948387146,-0.41261211037635803,0.0493941493332386
1783002715522390300,3.313390380859375,-0.4489777982234955,-0.4414539337158203,-0.1287909299135208
1783002715532442400,3.3234423828125,-0.4743518531322479,-0.4310479164123535,-0.2395392805337906
1783002715542493400,3.333493408203125,-0.5244678258895874,-0.34127452969551086,-0.2695564329624176
1783002715552545300,3.343545166015625,-0.5775387287139893,-0.2031981498003006,-0.23335367441177368
1783002715562596400,3.353596435546875,-0.6134845614433289,-0.06453199684619904,-0.1690053790807724
1783002715572648200,3.363648193359375,-0.6078570485115051,0.06359748542308807,-0.0868079736828804
1783002715582699300,3.37369921875,-0.5592374205589294,0.14759725332260132,0.007018950767815113
1783002715592751400,3.38375146484375,-0.4713880121707916,0.17172016203403473,0.09550700336694717
1783002715602802200,3.39380224609375,-0.3530847728252411,0.11192919313907623,0.16355088353157043
1783002715612854300,3.403854248046875,-0.22368311882019043,0.0023017600178718567,0.20104500651359558
1783002715622905300,3.4139052734375,-0.10519514977931976,-0.09072640538215637,0.22293539345264435
1783002715632957200,3.423957275390625,-0.006532762199640274,-0.09104278683662415,0.24870041012763977
1783002715643008300,3.43400830078125,0.06481156498193741,-0.006285195238888264,0.2838224768638611
1783002715653060000,3.44406005859375,0.09628027677536011,0.1023440808057785,0.3029248118400574
1783002715663111200,3.454111083984375,0.09832063317298889,0.18134286999702454,0.2945074141025543
1783002715673163300,3.464163330078125,0.09517331421375275,0.1942133903503418,0.26618123054504395
1783002715683214000,3.474214111328125,0.09338363260030746,0.11655281484127045,0.2109522968530655
1783002715693266400,3.484266357421875,0.075374536216259,-0.016755707561969757,0.1678847223520279
1783002715703317500,3.4943173828125,0.03761019557714462,-0.1071099266409874,0.14267729222774506
1783002715713369300,3.504369384765625,-0.011459879577159882,-0.16921883821487427,0.12689326703548431
1783002715723420400,3.51442041015625,-0.07359589636325836,-0.24233214557170868,0.131784588098526
1783002715733472300,3.52447216796875,-0.13902416825294495,-0.23803086578845978,0.154310405254364
1783002715743523300,3.5345234375,-0.20284658670425415,-0.18378587067127228,0.16153977811336517
1783002715753575400,3.544575439453125,-0.2553465664386749,-0.1564091145992279,0.11859577149152756
1783002715763626200,3.554626220703125,-0.2845134139060974,-0.18195262551307678,0.0239911749958992
1783002715773678300,3.56467822265625,-0.2997347116470337,-0.19441409409046173,-0.07921244204044342
1783002715783729400,3.5747294921875,-0.3054162263870239,-0.13902774453163147,-0.14948217570781708
1783002715793781200,3.58478125,-0.30971166491508484,-0.03584622964262962,-0.18195809423923492
1783002715803832300,3.594832275390625,-0.30734962224960327,0.0667748674750328,-0.1971307396888733
1783002715813884200,3.60488427734375,-0.285967081785202,0.11350588500499725,-0.19994942843914032
1783002715823935200,3.614935302734375,-0.26158612966537476,0.1428038626909256,-0.17941433191299438
1783002715833987300,3.6249873046875,-0.2237604409456253,0.18233661353588104,-0.13766075670719147
1783002715844038100,3.6350380859375,-0.17978151142597198,0.19605287909507751,-0.08742436021566391
1783002715854090200,3.64509033203125,-0.14450635015964508,0.18035034835338593,-0.019029859453439713
1783002715864141300,3.655141357421875,-0.12373171001672745,0.18171079456806183,0.056023675948381424
1783002715874193200,3.665193115234375,-0.1171124279499054,0.19004036486148834,0.1075768768787384
1783002715884244200,3.675244140625,-0.12342890352010727,0.15032009780406952,0.11377717554569244
1783002715894296300,3.68529638671875,-0.13734152913093567,0.0918852686882019,0.07883010804653168
1783002715904347100,3.69534716796875,-0.16092923283576965,0.05645943805575371,0.036380182951688766
1783002715914399500,3.7053994140625,-0.18985489010810852,0.04250367358326912,-0.011765507981181145
1783002715924450300,3.7154501953125,-0.2225085347890854,0.06172596663236618,-0.05845269560813904
1783002715934502400,3.72550244140625,-0.22914539277553558,0.11311192810535431,-0.11022907495498657
1783002715944553500,3.735553466796875,-0.2303404062986374,0.11676492542028427,-0.10337825864553452
1783002715954605300,3.745605224609375,-0.2504650950431824,0.17078767716884613,-0.03589002788066864
1783002715964656400,3.755656494140625,-0.2715763747692108,0.2333391010761261,0.05215640738606453
1783002715974708200,3.765708251953125,-0.2664481997489929,0.21349482238292694,0.11277022212743759
1783002715984760300,3.77576025390625,-0.22674903273582458,0.15385358035564423,0.13299550116062164
1783002715994811400,3.785811279296875,-0.17743715643882751,0.10936573892831802,0.13544374704360962
1783002716004862200,3.7958623046875,-0.13352777063846588,0.11809306591749191,0.12012310326099396
1783002716014914300,3.805914306640625,-0.09418649971485138,0.1347692459821701,0.0929948091506958
1783002716024966100,3.815966064453125,-0.05921655148267746,0.13571208715438843,0.041027359664440155
1783002716035017200,3.826017333984375,-0.022651616483926773,0.119810089468956,-0.024250444024801254
1783002716045069300,3.8360693359375,0.007039280608296394,0.09978637099266052,-0.061889469623565674
1783002716055120100,3.8461201171875,0.026845209300518036,0.09272845089435577,-0.08627869188785553
1783002716065172200,3.856172119140625,0.036987848579883575,0.08303914219141006,-0.11609428375959396
1783002716075223300,3.866223388671875,0.0400392971932888,0.07794797420501709,-0.16557234525680542
1783002716085275100,3.876275146484375,0.04141687974333763,0.0761714056134224,-0.20110319554805756
1783002716095326200,3.886326171875,0.02491007372736931,0.1456916332244873,-0.1916247457265854
1783002716105378300,3.89637841796875,-0.0018266700208187103,0.2625303566455841,-0.16030001640319824
1783002716115429400,3.906429443359375,-0.017367811873555183,0.3410067856311798,-0.12205009907484055
1783002716125481500,3.9164814453125,-0.01793626695871353,0.3957294523715973,-0.07708167284727097
1783002716135532300,3.9265322265625,-0.012779321521520615,0.4445928931236267,-0.015704333782196045
1783002716145584400,3.93658447265625,-0.0042010024189949036,0.44315898418426514,0.06099782884120941
1783002716155635500,3.946635498046875,0.007343001663684845,0.3532341420650482,0.13528111577033997
1783002716165687300,3.956687255859375,0.026455996558070183,0.2239474505186081,0.2032773345708847
1783002716175738400,3.96673828125,0.03654218837618828,0.1188412681221962,0.24149103462696075
1783002716185790200,3.976790283203125,0.03995710238814354,0.07117089629173279,0.24725261330604553
1783002716195841300,3.98684130859375,0.028791271150112152,0.09000157564878464,0.22356697916984558
1783002716205893400,3.996893310546875,0.01725754141807556,0.14683517813682556,0.1652330458164215
1783002716215944200,4.006944091796875,0.00014992710202932358,0.16400592029094696,0.15840522944927216
1783002716225996300,4.016996337890625,-0.025181584060192108,0.26452526450157166,0.20933908224105835
1783002716236043000,4.02704296875,-0.05919254943728447,0.35479575395584106,0.2756403386592865
1783002716246094800,4.0370947265625,-0.0749429240822792,0.30574721097946167,0.3045917749404907
1783002716256146000,4.04714599609375,-0.04374985024333,0.22885508835315704,0.33004412055015564
1783002716266198000,4.057197998046875,0.030964087694883347,0.20685863494873047,0.36843663454055786
1783002716276248800,4.067248779296875,0.12311664968729019,0.182852104306221,0.393218994140625
1783002716286301200,4.07730126953125,0.1922619342803955,0.0831432193517685,0.3590730130672455
1783002716296352300,4.087352294921875,0.2324996441602707,-0.07098003476858139,0.25880980491638184
1783002716306404000,4.097404052734375,0.24525713920593262,-0.188974991440773,0.12841440737247467
1783002716316455200,4.107455078125,0.22505946457386017,-0.24014151096343994,0.008676559664309025
1783002716326507000,4.117507080078125,0.1756593883037567,-0.27244845032691956,-0.09460940212011337
1783002716336558000,4.12755810546875,0.11192675679922104,-0.3093090057373047,-0.17660972476005554
1783002716346610200,4.137610107421875,0.04986077919602394,-0.29489994049072266,-0.22044099867343903
1783002716356661000,4.147660888671875,0.00875195860862732,-0.25341907143592834,-0.21766331791877747
1783002716366713000,4.157713134765625,-0.011904696002602577,-0.21891391277313232,-0.1684102863073349
1783002716376764200,4.16776416015625,-0.005329351872205734,-0.20547692477703094,-0.10585076361894608
1783002716386816000,4.17781591796875,0.018010994419455528,-0.20458346605300903,-0.04837913438677788
1783002716396867000,4.1878671875,0.0489547960460186,-0.2149450182914734,-0.020262012258172035
1783002716406919000,4.1979189453125,0.09039508551359177,-0.2519674301147461,-0.019716540351510048
1783002716416970000,4.207969970703125,0.13757193088531494,-0.29339954257011414,-0.008518214337527752
1783002716427022000,4.21802197265625,0.19209156930446625,-0.3380807340145111,0.043263956904411316
1783002716437073000,4.228072998046875,0.2782813310623169,-0.386388897895813,0.15014886856079102
1783002716447125000,4.238125,0.3983398675918579,-0.4631219804286957,0.304677814245224
1783002716457176000,4.248176025390625,0.5330049991607666,-0.5548197031021118,0.47942325472831726
1783002716467228000,4.258227783203125,0.657882809638977,-0.616875410079956,0.6672841906547546
1783002716477279000,4.268279052734375,0.7549763321876526,-0.5948180556297302,0.8398037552833557
1783002716487331000,4.2783310546875,0.7919052839279175,-0.547252357006073,0.9392168521881104
1783002716497382000,4.2883818359375,0.7629287242889404,-0.5553284287452698,0.9371750354766846
1783002716507434200,4.298434326171875,0.6940271854400635,-0.5656443238258362,0.8533541560173035
1783002716517485000,4.308485107421875,0.5934819579124451,-0.5174506902694702,0.7144157290458679
1783002716527537200,4.318537109375,0.46937769651412964,-0.3936069905757904,0.5309903621673584
1783002716537588200,4.328588134765625,0.33573731780052185,-0.25110551714897156,0.3285256624221802
1783002716547640000,4.33864013671875,0.22950568795204163,-0.1116136685013771,0.1222558468580246
1783002716557691100,4.348691162109375,0.16839812695980072,0.026126889511942863,-0.054634515196084976
1783002716567743000,4.358742919921875,0.14667142927646637,0.16112020611763,-0.18608859181404114
1783002716577795000,4.368795166015625,0.15123715996742249,0.2806553840637207,-0.2683834731578827
1783002716587846100,4.37884619140625,0.18824391067028046,0.3842369616031647,-0.3023136556148529
1783002716597898000,4.38889794921875,0.24345949292182922,0.44511231780052185,-0.29038187861442566
1783002716607949000,4.398948974609375,0.3028722405433655,0.45006147027015686,-0.2433689385652542
1783002716618001000,4.4090009765625,0.34365642070770264,0.43591874837875366,-0.16477824747562408
1783002716628052000,4.419052001953125,0.363986611366272,0.4402119815349579,-0.08521070331335068
1783002716638104000,4.42910400390625,0.3547006845474243,0.42256399989128113,-0.049221012741327286
1783002716648155000,4.43915478515625,0.3232298493385315,0.35542166233062744,-0.07535681873559952
1783002716658207000,4.44920703125,0.28317883610725403,0.2438967376947403,-0.1490190476179123
1783002716668258000,4.459258056640625,0.22363746166229248,0.12961232662200928,-0.24033311009407043
1783002716678310100,4.46931005859375,0.1714877188205719,0.08582250028848648,-0.3165897727012634
1783002716688361000,4.47936083984375,0.1429835855960846,0.11026246845722198,-0.3599995970726013
1783002716698413000,4.4894130859375,0.1386924386024475,0.15178728103637695,-0.3640345335006714
1783002716708464000,4.499464111328125,0.15379981696605682,0.20463508367538452,-0.33339446783065796
1783002716718516200,4.50951611328125,0.18980228900909424,0.2584908604621887,-0.28785574436187744
1783002716728567000,4.519567138671875,0.23617537319660187,0.263961523771286,-0.2584669888019562
1783002716738619100,4.529619140625,0.27000099420547485,0.19664666056632996,-0.2350924164056778
1783002716748670200,4.539670166015625,0.2757403552532196,0.13134382665157318,-0.22804462909698486
1783002716758722000,4.54972216796875,0.24335207045078278,0.11411318182945251,-0.23393899202346802
1783002716768773000,4.559773193359375,0.17123815417289734,0.09268739074468613,-0.24259348213672638
1783002716778825000,4.569824951171875,0.08424226939678192,0.01864698901772499,-0.25472551584243774
1783002716788876000,4.5798759765625,-0.015622079372406006,-0.1112566739320755,-0.26952823996543884
1783002716798928100,4.58992822265625,-0.12209072709083557,-0.2046300321817398,-0.2785094678401947
1783002716808979000,4.59997900390625,-0.1965969353914261,-0.21627706289291382,-0.2857199013233185
1783002716819031000,4.610031005859375,-0.22994877398014069,-0.19349531829357147,-0.30524566769599915
1783002716829082000,4.62008203125,-0.22727012634277344,-0.1698521077632904,-0.3392264246940613
1783002716839134000,4.630134033203125,-0.1988067924976349,-0.15235674381256104,-0.3358444571495056
1783002716849185000,4.64018505859375,-0.17382332682609558,-0.059745967388153076,-0.27811044454574585
1783002716859236900,4.65023681640625,-0.16363513469696045,0.07014678418636322,-0.21534401178359985
1783002716869288000,4.660287841796875,-0.15438081324100494,0.11474685370922089,-0.18219904601573944
1783002716879340000,4.670340087890625,-0.14158113300800323,0.08294631540775299,-0.1678917557001114
1783002716889390800,4.680390869140625,-0.13279014825820923,0.022063229233026505,-0.14732913672924042
1783002716899443200,4.690443115234375,-0.1353507786989212,-0.020222974941134453,-0.11633925884962082
1783002716909494000,4.700493896484375,-0.13592247664928436,-0.025599228218197823,-0.07781518995761871
1783002716919546000,4.710546142578125,-0.12211345136165619,-0.023623695597052574,-0.03338780254125595
1783002716929597200,4.72059716796875,-0.10842695087194443,-0.042565327137708664,0.007465260103344917
1783002716939649000,4.73064892578125,-0.09285038709640503,-0.0902167335152626,0.03088536486029625
1783002716949700000,4.7407001953125,-0.0828452780842781,-0.13133390247821808,0.06024162098765373
1783002716959752200,4.750752197265625,-0.06659600138664246,-0.12783823907375336,0.07525626569986343
1783002716969803000,4.760802978515625,-0.06842514127492905,-0.13038283586502075,0.062078166753053665
1783002716979855000,4.770855224609375,-0.07378342002630234,-0.14774692058563232,0.03117644041776657
1783002716989906200,4.78090625,-0.07820672541856766,-0.1756555140018463,0.0061929961666464806
1783002716999958000,4.7909580078125,-0.09669678658246994,-0.18641600012779236,0.009341117925941944
1783002717010009000,4.801009033203125,-0.11945059895515442,-0.1660754531621933,0.018521521240472794
1783002717020061000,4.81106103515625,-0.1357552707195282,-0.1441323459148407,0.028874825686216354
1783002717030112000,4.821112060546875,-0.1337549388408661,-0.1418972909450531,0.029600314795970917
1783002717040164000,4.8311640625,-0.12453880161046982,-0.1708730161190033,0.03405525162816048
1783002717050215000,4.84121484375,-0.11983083188533783,-0.20494142174720764,0.04975080117583275
1783002717060267000,4.85126708984375,-0.12083564698696136,-0.2279127836227417,0.058874525129795074
1783002717070318000,4.861318115234375,-0.12573064863681793,-0.2590957283973694,0.055073775351047516
1783002717080370000,4.871369873046875,-0.12513382732868195,-0.30466508865356445,0.039655670523643494
1783002717090421000,4.8814208984375,-0.1218155026435852,-0.3524108827114105,0.02801716886460781
1783002717100472800,4.891472900390625,-0.11945700645446777,-0.37668585777282715,0.021954482421278954
1783002717110524000,4.90152392578125,-0.11103563010692596,-0.33925703167915344,0.0490344762802124
1783002717120576300,4.911576171875,-0.1034378930926323,-0.23383501172065735,0.08416556566953659
1783002717130628000,4.921628173828125,-0.12667591869831085,-0.18208841979503632,0.0913853794336319
1783002717140679200,4.93167919921875,-0.17757345736026764,-0.26332440972328186,0.054839614778757095
1783002717150731000,4.94173095703125,-0.24544835090637207,-0.37131860852241516,-0.03329571336507797
1783002717160782000,4.951781982421875,-0.2879428267478943,-0.44562241435050964,-0.151018887758255
1783002717170834200,4.961834228515625,-0.33824023604393005,-0.4462457597255707,-0.23782005906105042
1783002717180885000,4.971885009765625,-0.4010029435157776,-0.3777335286140442,-0.29353898763656616
1783002717190937000,4.98193701171875,-0.4574567377567291,-0.29405447840690613,-0.3427439332008362
1783002717200988200,4.99198828125,-0.5061050057411194,-0.204530730843544,-0.3932259976863861
1783002717211040000,5.0020400390625,-0.5318013429641724,-0.10357097536325455,-0.4418324828147888
1783002717221091000,5.012091064453125,-0.5259777903556824,-0.0023269166704267263,-0.47943392395973206
1783002717231143000,5.022142822265625,-0.48023778200149536,0.07975153625011444,-0.49901604652404785
1783002717241194000,5.032194091796875,-0.4047749936580658,0.1302945911884308,-0.5005366802215576
1783002717251246000,5.04224609375,-0.30389776825904846,0.14294077455997467,-0.48220330476760864
1783002717261297000,5.052296875,-0.19783097505569458,0.13122685253620148,-0.4345148801803589
1783002717271349000,5.062348876953125,-0.08991033583879471,0.11815940588712692,-0.34621506929397583
1783002717281400000,5.072400146484375,0.01725286804139614,0.1027120053768158,-0.2204827070236206
1783002717291452000,5.082451904296875,0.0992727130651474,0.06639391928911209,-0.042610954493284225
1783002717301503000,5.0925029296875,0.14749190211296082,0.00470338761806488,0.14262254536151886
1783002717311555000,5.10255517578125,0.16694527864456177,-0.04183771088719368,0.29808151721954346
1783002717321606000,5.11260595703125,0.16939671337604523,-0.08006126433610916,0.3853019177913666
1783002717331658200,5.122658203125,0.15297682583332062,-0.1540980041027069,0.38581717014312744
1783002717341709000,5.132708984375,0.1081124097108841,-0.22820578515529633,0.3356647789478302
1783002717351761200,5.14276123046875,0.053447410464286804,-0.2719087600708008,0.2760842442512512
1783002717361812200,5.152812255859375,-0.006398078054189682,-0.26260021328926086,0.22108224034309387
1783002717371864000,5.162864013671875,-0.06892833113670349,-0.23050546646118164,0.14895431697368622
1783002717381915100,5.1729150390625,-0.12050151824951172,-0.20526748895645142,0.04869482293725014
1783002717391967000,5.182967041015625,-0.16755466163158417,-0.16088716685771942,-0.06324107199907303
1783002717402018000,5.19301806640625,-0.20963580906391144,-0.07723196595907211,-0.16321666538715363
1783002717412070100,5.203070068359375,-0.25000372529029846,0.018014680594205856,-0.2479373961687088
1783002717422121000,5.213120849609375,-0.28472521901130676,0.08812931925058365,-0.2975403368473053
1783002717432173000,5.223173095703125,-0.3187507092952728,0.12420664727687836,-0.31899407505989075
1783002717442224000,5.23322412109375,-0.3433074653148651,0.15968261659145355,-0.29355156421661377
1783002717452276000,5.24327587890625,-0.35094255208969116,0.20629236102104187,-0.22112402319908142
1783002717462327000,5.2533271484375,-0.33596280217170715,0.25383618474006653,-0.13865284621715546
1783002717472379000,5.26337890625,-0.30398252606391907,0.270361065864563,-0.06759925186634064
1783002717482430000,5.273429931640625,-0.2646516263484955,0.25968313217163086,-0.017727570608258247
1783002717492482000,5.28348193359375,-0.21490678191184998,0.23891636729240417,0.019558869302272797
1783002717502532900,5.293532958984375,-0.1601434051990509,0.1932964324951172,0.05207633227109909
1783002717512585000,5.3035849609375,-0.11219087243080139,0.13117161393165588,0.07119335234165192
1783002717522636000,5.313635986328125,-0.0750831812620163,0.07935288548469543,0.07933357357978821
1783002717532688100,5.323688232421875,-0.04798675701022148,0.059164684265851974,0.09578059613704681
1783002717542739200,5.3337392578125,-0.03395163267850876,0.058081306517124176,0.11123305559158325
1783002717552791000,5.343791015625,-0.035868749022483826,0.043852970004081726,0.11073541641235352
1783002717562843100,5.353843017578125,-0.04090159013867378,0.01735079288482666,0.10445382446050644
1783002717572894200,5.363894287109375,-0.0565507598221302,0.008687686175107956,0.10309547930955887
1783002717582946000,5.373946044921875,-0.07883502542972565,-0.011529435403645039,0.0833236426115036
1783002717592997000,5.3839970703125,-0.1144755408167839,-0.051498591899871826,0.03439442068338394
1783002717603049000,5.394049072265625,-0.14372344315052032,-0.07816003262996674,-0.030042625963687897
1783002717613100000,5.40410009765625,-0.15643945336341858,-0.06193409115076065,-0.0748671218752861
1783002717623152000,5.414152099609375,-0.15370012819766998,-0.023244749754667282,-0.08546916395425797
1783002717633203000,5.424202880859375,-0.13269942998886108,0.02779257670044899,-0.06962545961141586
1783002717643255000,5.434255126953125,-0.10509417206048965,0.06030924245715141,-0.05426115542650223
1783002717653306000,5.44430615234375,-0.07864872366189957,0.03758266195654869,-0.06623012572526932
1783002717663358000,5.45435791015625,-0.06301117688417435,-0.008597880601882935,-0.0862155556678772
1783002717673409000,5.464408935546875,-0.050171833485364914,-0.05163128301501274,-0.08733393251895905
1783002717683460900,5.4744609375,-0.04801946505904198,-0.072275310754776,-0.0807359516620636
1783002717693512000,5.484511962890625,-0.05408002808690071,-0.018503382802009583,-0.08651227504014969
1783002717703564000,5.49456396484375,-0.06417500972747803,0.056519996374845505,-0.14390899240970612
1783002717713614800,5.50461474609375,-0.07344526797533035,0.1250162124633789,-0.26005834341049194
1783002717723667200,5.514667236328125,-0.06607603281736374,0.10723242908716202,-0.3991405963897705
1783002717733718300,5.52471826171875,-0.04330449551343918,0.01818222366273403,-0.530555009841919
1783002717743770000,5.53477001953125,-0.03477253019809723,-0.0898481011390686,-0.6554045677185059
1783002717753821200,5.5448212890625,-0.02656583860516548,-0.1880463808774948,-0.7683444619178772
1783002717763873000,5.554873046875,-0.009488584473729134,-0.21987275779247284,-0.8376204371452332
1783002717773924000,5.564924072265625,0.0036245747469365597,-0.17609739303588867,-0.8752020597457886
1783002717783976200,5.57497607421875,0.004611009731888771,-0.13886933028697968,-0.886384129524231
1783002717794027000,5.585027099609375,-0.018855612725019455,-0.08760703355073929,-0.8617675304412842
1783002717804079000,5.5950791015625,-0.056216299533843994,0.022995376959443092,-0.8130308985710144
1783002717814130200,5.605130126953125,-0.07706663012504578,0.12331073731184006,-0.7042293548583984
1783002717824182000,5.61518212890625,-0.07007530331611633,0.20284655690193176,-0.5182621479034424
1783002717834233000,5.625233154296875,-0.028520958498120308,0.28554898500442505,-0.30215689539909363
1783002717844285000,5.635284912109375,0.03915742039680481,0.3471428453922272,-0.09755688160657883
1783002717854336000,5.6453359375,0.12328407913446426,0.3646787106990814,0.05585644394159317
1783002717864388000,5.65538818359375,0.20700453221797943,0.29292115569114685,0.14481401443481445
1783002717874439000,5.66543896484375,0.2606930434703827,0.19517004489898682,0.19487623870372772
1783002717884491000,5.675490966796875,0.25996387004852295,0.10756882280111313,0.2277207374572754
1783002717894542000,5.6855419921875,0.22773626446723938,0.11037047952413559,0.23582622408866882
1783002717904594000,5.695593994140625,0.1946725845336914,0.21986475586891174,0.17362463474273682
1783002717914645000,5.70564501953125,0.16390730440616608,0.31256768107414246,0.02817889302968979
1783002717924696800,5.71569677734375,0.13017889857292175,0.3611445426940918,-0.1833099126815796
1783002717934748000,5.725747802734375,0.0911463275551796,0.3669191896915436,-0.4071795344352722
1783002717944800300,5.73580029296875,0.05099118873476982,0.3582940101623535,-0.5802799463272095
1783002717954851000,5.74585107421875,0.005723810754716396,0.34916213154792786,-0.6730716824531555
1783002717964903200,5.755903076171875,-0.04102079197764397,0.31965938210487366,-0.6878450512886047
1783002717974955000,5.765955078125,-0.06590672582387924,0.3356315493583679,-0.6471349596977234
1783002717985006000,5.776006103515625,-0.035126715898513794,0.4896778166294098,-0.5385972857475281
1783002717995058200,5.78605810546875,0.07065977901220322,0.7103720307350159,-0.41490408778190613
1783002718005109000,5.79610888671875,0.1641916036605835,1.0728871822357178,-0.024199970066547394
1783002718015161000,5.8061611328125,0.22437350451946259,1.0998883247375488,0.31886956095695496
1783002718025212200,5.816212158203125,0.3518665134906769,0.6210499405860901,0.29674163460731506
1783002718035264000,5.826263916015625,0.509943962097168,0.24825139343738556,0.041020818054676056
1783002718045315000,5.836315185546875,0.5878337025642395,-0.01618131622672081,-0.262106329202652
1783002718055367000,5.846366943359375,0.5440732836723328,-0.28852009773254395,-0.602751612663269
1783002718065418000,5.85641796875,0.42771998047828674,-0.3600294291973114,-0.865766167640686
1783002718075470000,5.866469970703125,0.26770082116127014,-0.2147538810968399,-0.9833601713180542
1783002718085521000,5.87652099609375,0.11808735132217407,0.014942159876227379,-0.9325734376907349
1783002718095573000,5.886572998046875,0.05720943585038185,0.24554307758808136,-0.7059997320175171
1783002718105624000,5.8966240234375,0.05961853265762329,0.23499909043312073,-0.4622461795806885
