time,seconds_elapsed,z,y,x
1783002530513083600,0.081083740234375,0.007914426386356354,-0.03451470241174102,-0.02737816506270319
1783002530523135700,0.0911357421875,-0.002347439908981323,-0.056952013538777824,0.01687277233507484
1783002530533187600,0.1011875,0.0013847323566675185,-0.07583426253274082,0.018298275093548
1783002530543239700,0.11123974609375,0.009558101940155028,-0.03705255032628774,-0.04819554683770984
1783002530553290500,0.12129052734375,-0.10847148063480853,-0.0053382922880351544,-0.05496741559281945
1783002530563342600,0.131342529296875,-0.2532265730500221,-0.01022401850298047,-0.02373093113414943
1783002530573394400,0.14139453125,-0.24498949058055877,-0.032684418244659896,-0.01058039419259876
1783002530583446500,0.151446533203125,-0.18500234712958336,-0.035597090820968146,-0.017239779016561804
1783002530593498600,0.16149853515625,-0.18071371002495287,-0.045858080333471295,-0.05877572183459997
1783002530603550700,0.17155078125,-0.12009060675799846,-0.08475903500542044,-0.10692830631341785
1783002530613601800,0.181601806640625,-0.0965560019135475,-0.055814972332865,-0.12691687258146703
1783002530623653600,0.191653564453125,-0.18292904798686505,-0.05073065480589866,-0.10494969971682876
1783002530633705700,0.201705810546875,-0.25639234360456464,-0.06551686665788292,-0.0480703495554626
1783002530643757600,0.211757568359375,-0.17833704402148723,-0.08236001103967427,-0.07617346789184958
1783002530653809700,0.2218095703125,-0.01319441261589527,-0.10843582479953766,-0.12891878698840736
1783002530663860500,0.231860595703125,-0.007079729127883911,-0.06643675798177719,-0.08980119389109313
1783002530673912600,0.24191259765625,-0.10052373650074005,-0.017919103050231932,-0.007833287441544235
1783002530683964400,0.25196435546875,-0.017210077998042105,-0.02842252301648259,-0.05032795575652271
1783002530694016800,0.262016845703125,0.07024608713686466,-0.045481648236513135,-0.10859737203679978
1783002530704068600,0.272068603515625,-0.0075718965590000145,-0.02806742596849799,-0.1146496578130871
1783002530714120700,0.28212060546875,-0.17555588887035845,-0.029044600437581537,-0.06561210719328374
1783002530724171500,0.292171630859375,-0.15887363413870334,-0.06573796206265688,-0.008827632241137326
1783002530734223600,0.3022236328125,0.10621756422817706,-0.09031316200122237,-0.026673998848721382
1783002530744275500,0.312275390625,0.18570377339720726,-0.06625044162943959,-0.014063377470150589
1783002530754327600,0.32232763671875,-0.07084931372702122,0.023607085558772084,0.060551791596412656
1783002530764379400,0.33237939453125,-0.2802244700908661,0.010019289711117743,0.11689243177119642
1783002530774430500,0.342430419921875,-0.14997896454334259,-0.0019080255784094332,0.08084109437670559
1783002530784482600,0.352482666015625,-0.0451736052006483,0.031177374682575462,0.054794250982999795
1783002530794534700,0.36253466796875,-0.14972762013077734,0.04284107059985399,0.10753905862290411
1783002530804586800,0.372586669921875,-0.224013338047266,-0.004050590565055609,0.14094620165154337
1783002530814638600,0.382638671875,-0.11131225701868533,-0.062087622861564155,0.023516703861579297
1783002530824690700,0.392690673828125,0.09071195206046104,-0.06751753895580768,-0.05584938605912029
1783002530834741500,0.402741455078125,0.13483283333778381,-0.088225980463624,-0.055991826737113295
1783002530844793600,0.412793701171875,0.09430500811636447,-0.12232713363841176,-0.061453160882927474
1783002530854845400,0.422845458984375,-0.024175825357437133,-0.05649447902962565,-0.07631221877541393
1783002530864897500,0.4328974609375,-0.04173837005496025,-0.03122238286808133,-0.07427570797912776
1783002530874949600,0.44294970703125,0.023615853387117386,-0.05628200532272458,-0.10868099519964307
1783002530885000700,0.453000732421875,-0.03575345042645931,-0.028232115010917186,-0.1114713565705344
1783002530895052500,0.463052490234375,-0.17549743668138978,0.03141556735262275,-0.02516710141710937
1783002530905104600,0.473104736328125,-0.26299334930479523,0.02559226802662015,0.06066939009409397
1783002530915156500,0.483156494140625,-0.26120821945369244,0.016744798573851586,0.12780498052760958
1783002530925208600,0.49320849609375,-0.24082944829165934,-0.026223990058898923,0.07424209797047078
1783002530935259600,0.503259765625,-0.2768015099048614,-0.03084785046726465,0.012220562615059315
1783002530945311500,0.5133115234375,-0.2686474295437336,-0.041823271859437225,-0.02200465533081442
1783002530955363600,0.523363525390625,-0.22594927454590796,-0.0738918962933123,-0.03951616396084428
1783002530965415400,0.53341552734375,-0.138584879347682,-0.11314794801324606,0.0003759206403046846
1783002530975467800,0.5434677734375,0.008961889612674712,-0.09035773179531097,0.018182137900590895
1783002530985519600,0.55351953125,0.026698621833324433,-0.06040595338493585,-0.018441446423903107
1783002530995570700,0.56357080078125,0.005761047744750976,-0.08142579892948269,-0.05815309642422944
1783002531005622500,0.57362255859375,-0.017924363747239113,-0.08132438438162207,0.016215039078705012
1783002531015674600,0.583674560546875,-0.014331892213225363,-0.072870444291085,0.11539627492930739
1783002531025726500,0.5937265625,-0.02554360657930374,-0.0731951462008059,0.1677474436091259
1783002531035778600,0.603778564453125,-0.11336918954849243,-0.0783257870875299,0.15416227810997515
1783002531045829600,0.61382958984375,-0.11938450431525706,-0.05999138123467564,0.12495664189178496
1783002531055884800,0.623884765625,-0.07615092726647854,-0.06225947229713201,0.0697461747907102
1783002531065937000,0.63393701171875,-0.16318272950947282,-0.07198284780159592,-0.03980173943657428
1783002531075988700,0.64398876953125,-0.30938743621110915,-0.04409282422661781,-0.03579867780767381
1783002531086040800,0.654040771484375,-0.32790158254504204,-0.07576967286393047,-0.06842552064619958
1783002531096092700,0.6640927734375,-0.17087153044641018,-0.14400909635350106,-0.21492314587980507
1783002531106143700,0.674143798828125,-0.036489948007464405,-0.06821560422256588,-0.06360153455585241
1783002531116195800,0.68419580078125,0.008828618621826172,-0.09040873133018612,-0.030488113776780665
1783002531126248000,0.694248046875,-0.08363456102013588,-0.10870631230399012,-0.0044893838411197064
1783002531136299800,0.7042998046875,-0.21970015102326867,-0.14373554010912776,0.11207725004181265
1783002531146351900,0.714351806640625,-0.14221300671696663,-0.15897227220758794,0.11938169130366295
1783002531156403000,0.72440283203125,0.04290098409354687,-0.09734130707234144,0.07567804905772209
1783002531166454800,0.734454833984375,0.2055868699967861,-0.08233867599070072,0.024897490695491433
1783002531176507000,0.7445068359375,0.2710515680760145,-0.08859510603696108,-0.00894384249933064
1783002531186558700,0.754558837890625,0.16239771661162375,-0.06596241846829652,-0.006444974888302386
1783002531196610800,0.76461083984375,0.0960077203810215,-0.0876041953034699,-0.037663923690281806
1783002531206663000,0.774662841796875,0.07837854018807411,-0.06908493440300226,-0.06750745595321059
1783002531216714000,0.7847138671875,-0.08233809146881103,0.0151679046459496,0.009428666874207556
1783002531226765800,0.794765869140625,-0.20209552074968815,0.018896569780260324,0.10995474146250635
1783002531236818000,0.80481787109375,-0.04087386218011379,-0.015070435620844364,0.030237646147049962
1783002531246869800,0.814869873046875,-0.08110358123779296,0.058639674364775414,-0.0961413932306692
1783002531256921900,0.824921875,-0.21484452768564222,0.10158435146957635,-0.09943773136232048
1783002531266972700,0.83497265625,-0.20313012449443338,0.010750526595115661,-0.10037040910255163
1783002531277024800,0.845024658203125,-0.15753507901132105,-0.05945829727128148,-0.11884944759048521
1783002531287076600,0.85507666015625,-0.10260580347180366,-0.014345628477632998,-0.11998634266592562
1783002531297129000,0.86512890625,-0.18369769427180288,-0.01973798904046416,-0.11340053453482687
1783002531307180800,0.875180908203125,-0.1616331619799137,-0.010645166524499655,-0.0036658655637875196
1783002531317233000,0.88523291015625,-0.10780512568056583,-0.03957739262878895,0.028740101065672933
1783002531327284000,0.895283935546875,-0.19940788910090923,-0.04447933932617307,0.04902242611590773
1783002531337335800,0.905335693359375,-0.107849549344182,-0.04718801376298069,0.00947751098461449
1783002531347388000,0.915387939453125,0.07734919714033603,-0.040079204671084875,-0.03664649027604609
1783002531357439700,0.925439697265625,0.04251987582147121,-0.05724705096259713,-0.05910415007136762
1783002531367491800,0.935491943359375,-0.002974631896615028,-0.073750734256953,-0.013408786018937826
1783002531377542700,0.945542724609375,0.014461071550846099,-0.10045870844051241,-0.023842428684607148
1783002531387594800,0.9555947265625,0.03508008120954036,-0.10509411315619945,-0.015470723517425358
1783002531397646800,0.965646728515625,0.09696867436766624,-0.14965499328598378,-0.009473711592331529
1783002531407699000,0.975698974609375,0.05867430728673934,-0.10511822468414903,0.017761172542162237
1783002531417750800,0.985750732421875,-0.11525953333973885,-0.06479761247262358,0.09342033423632383
1783002531427803000,0.995802978515625,-0.1589233184993267,-0.07583528544604778,0.08300992631576955
1783002531437853700,1.005853759765625,-0.11729776116907596,-0.033491935235261915,0.06726148183550686
1783002531447905800,1.01590576171875,-0.20590484990477562,-0.045469519407302136,0.04611179936621338
1783002531457957600,1.02595751953125,-0.2328267590999603,-0.037731180240213866,0.03554057486075908
1783002531468009700,1.036009765625,-0.11880290503501892,-0.04194280658587813,0.020499438399635254
1783002531478061800,1.046061767578125,-0.0074514850497245785,-0.08942161998897791,0.005243051752634346
1783002531488112600,1.056112548828125,-0.05686988821327686,-0.10968787068724632,-0.010307276339642703
1783002531498165000,1.0661650390625,-0.19980887111723422,-0.09518003738522529,0.04254727528505027
1783002531508216800,1.076216796875,-0.2080453690648079,0.02108896525800228,-0.059387423992156976
1783002531518269000,1.08626904296875,-0.1908867289930582,0.0839155699186027,-0.049611770311184224
1783002531528320800,1.09632080078125,-0.11668810483813286,0.055225335876643654,-0.04609857455845922
1783002531538372900,1.106372802734375,-0.0927092633575201,0.04560469009429216,0.04790737754609436
1783002531548423700,1.116423583984375,-0.1278957275509834,0.08316811255216598,0.18213599791303275
1783002531558475800,1.126475830078125,-0.19130933831930158,0.03485825515240431,0.11267879613153636
1783002531568527600,1.136527587890625,-0.22113106060922144,-0.06738236826881766,-0.1546756344595924
1783002531578580000,1.146580078125,-0.24562661944031713,-0.06291647490113973,-0.4290358886921778
1783002531588631800,1.1566318359375,-0.31789398327171803,0.04439823691397905,-0.34319402688611295
1783002531598683000,1.166682861328125,-0.15363047278821468,-0.020652619667351244,-0.16939557614233344
1783002531608734700,1.176734619140625,0.4186941986262798,-0.30537893122211096,-0.14852953292001037
1783002531618786800,1.186786865234375,0.9116665163844824,-0.3622716157890856,-0.27949918802361934
1783002531628838700,1.196838623046875,1.020672834548354,-0.28285043468028304,-0.2705507058817893
1783002531638890800,1.206890869140625,0.8213613915592431,-0.2269061368793249,0.06211268423758447
1783002531648941800,1.21694189453125,-0.004998246678709984,-0.25369411749653514,0.4874210768392309
1783002531658993700,1.22699365234375,-0.2534633044153452,-0.36851591700613495,0.6851451410390437
1783002531669045800,1.237045654296875,-0.3909317469537258,-0.455447108418867,0.659226563667506
1783002531679097900,1.247097900390625,-0.9398626832991838,-0.39142632553763684,0.3921657822607085
1783002531689150000,1.25714990234375,-0.9520324290424584,-0.09159713739715517,0.07489405907317996
1783002531699201800,1.267201904296875,-0.3742448160469532,0.2621026110101491,-0.2380215147314593
1783002531709252900,1.2772529296875,0.012081482937932014,0.41885114275366064,-0.2925375698275864
1783002531719304700,1.2873046875,0.07489478972554206,0.39466048515327273,-0.1596381887704134
1783002531729356800,1.297356689453125,-0.13276479489207266,0.1646007796138525,-0.07982577985431999
1783002531739408600,1.30740869140625,-0.3759872758001089,-0.0023255203381180763,0.0021739099729806183
1783002531749460700,1.317460693359375,-0.3668371701389551,-0.009719210785999894,-0.018888605669513343
1783002531759511800,1.32751171875,-0.23807167401611803,0.058576692131161685,-0.05778345939423889
1783002531769564000,1.33756396484375,-0.283253462523222,0.114885293199867,0.02322557542789727
1783002531779616000,1.347615966796875,-0.410092374497652,0.05203289651088416,0.22950101221073418
1783002531789667800,1.357667724609375,-0.36054771460592744,-0.10429660610295831,0.17893468112107366
1783002531799720000,1.367719970703125,-0.07106558682620524,-0.09028656625524163,-0.013696516919136047
1783002531809771800,1.377771728515625,0.06431318995654582,0.07913396166525781,-0.12489840889852494
1783002531819822800,1.38782275390625,0.14732640420794485,0.12297266500033438,-0.17296291323509067
1783002531829874700,1.397874755859375,0.1364186412245035,-0.004042334193363786,-0.1661298888772726
1783002531839926800,1.4079267578125,0.1284416709959507,-0.08498436819389461,-0.17538287039101122
1783002531849978600,1.417978515625,0.13467267434000968,-0.055937283538281916,-0.1695289201984182
1783002531860031000,1.428031005859375,0.14279577504098415,-0.05531564450860023,-0.160125680026412
1783002531870081800,1.438081787109375,0.15661913321018217,-0.050138826392591,-0.06096300274580717
1783002531880134000,1.4481337890625,0.07857786215245723,-0.038240518001839516,0.06701382721737027
1783002531890185700,1.458185791015625,0.06083937636613845,-0.035136195310950274,0.045169550080038604
1783002531900237800,1.46823779296875,0.21178455559313297,0.027211978182941673,-0.025362295195646582
1783002531910289700,1.47828955078125,0.21779870131611823,0.05174333897978067,-0.053551192119345066
1783002531920341800,1.488341796875,0.12927812182009218,0.019621815314888953,-0.08105287396386265
1783002531930392800,1.498392822265625,0.1416045194298029,-0.056429816295579076,-0.0704724432386458
1783002531940444700,1.508444580078125,0.11460837595462799,-0.04428893132060766,-0.04899341921713203
1783002531950497000,1.5184970703125,0.06052198098003864,0.02530482938736677,-0.11637089211512357
1783002531960548900,1.528548828125,-0.08523790456354617,0.06025478141121566,-0.13610351086072622
1783002531970601000,1.53860107421875,-0.28785598788261413,0.03504347552619874,0.008108268458023668
1783002531980651800,1.54865185546875,-0.3721177408903837,-0.008194339306280017,0.10254610917381941
1783002531990703900,1.558703857421875,-0.3428688500523567,0.0027036329355090856,0.07258939886000007
1783002532000755700,1.568755615234375,-0.32335575580894943,0.05278766040094197,0.05153612596988678
1783002532010807800,1.578807861328125,-0.17441840927302837,0.03164316556341946,0.020254852521419522
1783002532020859600,1.588859619140625,-0.051529111707210536,-0.005252440635487437,0.052461387588642536
1783002532030912000,1.598912109375,-0.05815291376113891,-0.07067958318330347,0.06556574730090796
1783002532040962800,1.608962890625,-0.013890578186511992,-0.12844766234531999,-0.014151676808111368
1783002532051014700,1.6190146484375,0.01828968992829323,-0.0868090263377875,-0.04838138826601207
1783002532061066800,1.629066650390625,-0.08008592862784862,-0.04874306118525564,0.011657594970054924
1783002532071118600,1.63911865234375,-0.15602701253592968,-0.1161781094893813,-0.013879727998934685
1783002532081170700,1.649170654296875,-0.1421925484508276,-0.13648907611221076,-0.0672557096818462
1783002532091222800,1.659222900390625,-0.12926876946985721,-0.0612974223319441,-0.0771477562841028
1783002532101273900,1.66927392578125,-0.11702362040281294,-0.029855551494285464,-0.07571553152389823
1783002532111325700,1.67932568359375,-0.08696049057245255,-0.05068579275086522,-0.05022266875114292
1783002532121377800,1.689377685546875,-0.040776831546425814,-0.07809161300547421,-0.00907441007643938
1783002532131429600,1.6994296875,-0.0019856208592653273,-0.12839096372202038,-0.060170500661246476
1783002532141481700,1.709481689453125,0.09136369396746158,-0.09444821597933768,-0.10858012864105403
1783002532151532500,1.719532470703125,0.00903086319565773,-0.023117621541395784,-0.05238718984127044
1783002532161584600,1.729584716796875,-0.2302121926873922,-0.05388882657587528,0.03920961876232177
1783002532171636500,1.739636474609375,-0.20823592320084572,-0.143226859934628,0.02652823370248079
1783002532181688800,1.749688720703125,-0.09963993940353393,-0.06151537593156099,-0.03716181938704103
1783002532191740700,1.75974072265625,-0.062142860180139536,0.057692675838246936,-0.03497968957498669
1783002532201792800,1.769792724609375,-0.0311965177744627,0.01162489827685058,-0.05820804148185998
1783002532211843800,1.77984375,-0.0042418753534555435,-0.08741502940692007,-0.002073226077482104
1783002532221895700,1.789895751953125,0.05962006370425224,-0.1254700347740203,0.02865468780454248
1783002532231947800,1.79994775390625,0.15721359197199344,-0.08444032444506883,-0.015826076293736696
1783002532241999600,1.80999951171875,0.14822481435239315,-0.04099529660269618,-0.015213570418581365
1783002532252051700,1.8200517578125,-0.03676701138317585,-0.045055897105112666,0.00789820590391755
1783002532262102500,1.8301025390625,-0.2995844195991754,-0.04658456797711551,0.10717479188777505
1783002532272154600,1.840154541015625,-0.24384324315488337,-0.04021225646622479,0.053218233837932345
1783002532282206700,1.850206787109375,-0.09118015409409999,-0.038556305952742696,-0.04768244621641934
1783002532292258800,1.8602587890625,0.017346856120228765,-0.009511486319452523,-0.0543952782606706
1783002532302310700,1.870310546875,-0.007612228569388389,-0.03542779866866767,0.014285641918703913
1783002532312362800,1.88036279296875,-0.07762333790659905,-0.09558299216292798,-0.028259003017842767
1783002532322413600,1.89041357421875,-0.11727671838104724,-0.04081833260059357,-0.044405835698544976
1783002532332465700,1.900465576171875,-0.10020634111464023,0.014409779755026102,-0.06492003327589482
1783002532342517500,1.910517578125,-0.07655716997981071,-0.046692485330998894,-0.08508139882758259
1783002532352569600,1.920569580078125,-0.007103110003471374,-0.13058803537487984,-0.08688841171693057
1783002532362621700,1.93062158203125,0.018974749583005903,-0.06853175749965011,0.000815298438258469
1783002532372672800,1.9406728515625,-0.1344102240115404,-0.044109556165710086,-0.07811948739308863
1783002532382724900,1.950724853515625,-0.210514389526844,-0.04815758944749832,-0.034671829202212394
1783002532392776700,1.960776611328125,0.009550503155589102,-0.04943520816788077,0.060239510776847596
1783002532402828800,1.970828857421875,-0.007860650372505187,-0.0024594489160925147,0.15286624695006756
1783002532412880600,1.980880615234375,-0.14002338771820066,-0.008668167363107203,0.1253262789217755
1783002532422932700,1.9909326171875,-0.18814999750554562,-0.03574884731657803,0.12493289569001644
1783002532432983600,2.000983642578125,-0.16419453690052033,-0.1198741144631058,0.1280521602217108
1783002532443035600,2.01103564453125,-0.02297697096168995,-0.1745315142586827,-0.01547324426807463
1783002532453087500,2.02108740234375,0.022983985224366187,-0.09439129816032946,-0.11547383367754518
1783002532463139800,2.031139892578125,0.04798983166515827,-0.05768339655324816,-0.10441946529764681
1783002532473191700,2.041191650390625,0.0754027392476797,-0.10428075094670057,-0.043350664089806375
1783002532483243800,2.051243896484375,0.004707739299535751,-0.10734094223491847,0.017590711346082387
1783002532493294600,2.061294677734375,-0.07486088745594024,-0.06713738053180276,-0.012939341876283287
1783002532503346700,2.0713466796875,-0.19331834005415438,-0.017866057688742876,-0.049271542038768525
1783002532513398500,2.0813984375,-0.27652327748537064,-0.03952266676686704,-0.04632102167010307
1783002532523450600,2.09145068359375,-0.26273323706388474,-0.07727328235991299,0.04338811002336442
1783002532533502500,2.10150244140625,-0.18163316295742987,-0.1030915411621332,0.08917564587127416
1783002532543553500,2.111553466796875,-0.12996435051858424,-0.11166392000056803,0.029597485079988835
1783002532553606000,2.12160595703125,-0.11582125887572765,-0.11983758184500037,-0.07056819523070007
1783002532563657700,2.13165771484375,-0.15127309600710867,-0.03150565678887069,-0.03213010883014649
1783002532573709800,2.141709716796875,-0.16898118665516376,-0.005798164884746075,0.04047076127193868
1783002532583761700,2.15176171875,-0.12206395265758037,-0.037233898242563006,0.15388075775485485
1783002532593813800,2.161813720703125,-0.041544308787584305,-0.05727481575235724,0.153655534164235
1783002532603864600,2.171864501953125,-0.004227262306213378,-0.022375059545785187,0.06501750230100005
1783002532613916700,2.181916748046875,-0.05024900876879692,0.0024636866997927425,0.005509849462658167
1783002532623968500,2.191968505859375,-0.11305763938128947,-0.018316724065691233,-0.012515161647461354
1783002532634020600,2.2020205078125,-0.1805506284177303,-0.06772343679144978,0.015200601339153944
1783002532644072700,2.21207275390625,-0.24048107324540613,-0.06106485568508505,0.07428904238473624
1783002532654124800,2.222124755859375,-0.22559388523697851,-0.05587466663084924,0.02956559210438281
1783002532664175900,2.23217578125,-0.3166203100740909,-0.02270202647782862,-0.07036620638519525
1783002532674227700,2.242227783203125,-0.36930560607910157,0.042585269207879896,-0.010642499643377958
1783002532684279800,2.25227978515625,-0.12851882788538932,0.013429682676494121,0.021445779339037834
1783002532694331600,2.26233154296875,0.004541735082864761,-0.06010675124265253,0.005358531358465552
1783002532704383500,2.272383544921875,0.059115621313452715,-0.0640807694401592,0.006239186650514602
1783002532714434600,2.2824345703125,0.060062546774744985,-0.03852218448743224,0.014869725416973232
1783002532724486700,2.292486572265625,0.13094459372758865,-0.06513531999439001,0.011123561158590018
1783002532734538800,2.302538818359375,0.17931728723049162,-0.04962978089191019,0.03197089968044311
1783002532744590800,2.3125908203125,0.18456804736554622,-0.07389576875083148,-0.08419646921921521
1783002532754642700,2.322642578125,0.056982116416096684,-0.07089629467390478,-0.13980181738939135
1783002532764694800,2.33269482421875,0.016508651730418204,-0.10281038613319396,-0.1184787511145696
1783002532774745600,2.34274560546875,0.002104278802871704,-0.08954773058667778,-0.10694313855636864
1783002532784797700,2.352797607421875,0.01170037466585636,-0.003409223921597004,-0.12564995791818945
1783002532794849500,2.362849609375,-0.04135784630477428,0.01667436368614435,-0.0891116772569716
1783002532804901600,2.372901611328125,-0.19117898993790147,-0.02409143500961363,-0.023505817141383886
1783002532814953500,2.382953369140625,-0.13850947602391242,-0.02753302683085203,0.052456053826399146
1783002532825005800,2.393005859375,-0.04954173728227615,-0.006405483128130436,0.054213309289887546
1783002532835057000,2.403056884765625,-0.08838321685194969,-0.007326543495804071,-0.01895933281816542
1783002532845108700,2.413108642578125,-0.10996902571618557,-0.03406045583821833,-0.09037084700521081
1783002532855160800,2.423160888671875,-0.1480389363914728,-0.0354772638335824,-0.08442300798408686
1783002532865212700,2.433212646484375,-0.17032207987010478,-0.044012306336313485,-0.05432294367682188
1783002532875264800,2.4432646484375,-0.10275427203178406,-0.01424275262504816,-0.0201676126293838
1783002532885315600,2.453315673828125,-0.06999883437752723,0.03189071058370173,-0.05276862690690905
1783002532895367700,2.46336767578125,-0.08463935414850711,0.06395202849395573,-0.11848978396523743
1783002532905419500,2.47341943359375,-0.22824118487536907,0.01687945780418813,-0.09195091927088797
1783002532915472000,2.483471923828125,-0.12042203066945076,-0.002064677444845438,0.020717282401397825
1783002532925523700,2.493523681640625,-0.08922375932931899,-0.03842551917992532,0.036544893065094945
1783002532935575800,2.503575927734375,-0.09781856919527053,-0.06414229036904871,-0.019618381248787044
1783002532945626600,2.513626708984375,-0.11775544180870055,-0.06268295840620994,-0.025599318821914494
1783002532955678700,2.5236787109375,-0.061418053036928176,-0.1024663219358772,0.006283573781512677
1783002532965730600,2.53373046875,0.04520692294836044,-0.12604914983622728,0.014920834549702703
1783002532975782700,2.54378271484375,0.04529635479748249,-0.10135229627937078,-0.0024914514895528553
1783002532985834500,2.55383447265625,0.06056055942475795,-0.044588791050016875,-0.015592523266188799
1783002532995886600,2.563886474609375,0.06342530120611191,-0.033406814235076306,-0.01577778017260134
1783002533005937700,2.573937744140625,-0.027075638452172278,-0.055316302095726126,0.027689276838488874
1783002533015989800,2.58398974609375,-0.11689911724030971,-0.06940262205004692,0.08940499764773994
1783002533026041900,2.594041748046875,-0.15483049622774123,-0.026684008786082267,0.07751918341238051
1783002533036093700,2.60409375,-0.16764847674667835,-0.008667582841217518,0.028654833935014903
1783002533046145800,2.614145751953125,-0.17396774289608,-0.03916698519699275,0.011473689770512283
1783002533056194000,2.624194091796875,-0.16869009475409982,-0.06846643717847764,0.027839827757701278
1783002533066245000,2.6342451171875,-0.10011106404662132,-0.03553367019593715,0.034005583845824
1783002533076297200,2.644297119140625,-0.06868132203817368,-0.0238346837695688,0.011556691878847777
1783002533086349300,2.654349365234375,-0.022133505874872207,-0.0077419193636626,0.01347491005770862
1783002533096401200,2.664401123046875,-0.05257482136785984,0.015413403839617966,0.008316833174787461
1783002533106453200,2.674453369140625,-0.13214695525467396,0.02973806259445846,0.008216733801178634
1783002533116505000,2.684505126953125,-0.1421089618206024,0.0012120792035013436,0.037683139847405255
1783002533126556200,2.69455615234375,-0.08832184205353259,-0.0594280482634902,0.08263144839219748
1783002533136608000,2.70460791015625,-0.05815525184869766,-0.04161510900147259,0.08109185426738112
1783002533146660000,2.71466015625,-0.06255085645914077,-0.03037643356323242,-0.001056669446080923
1783002533156712200,2.724712158203125,-0.07088555408418178,-0.07183269874118269,-0.05482238109894096
1783002533166764300,2.734764404296875,-0.05726502501070499,-0.12614544981755316,-0.033377295879647134
1783002533176815400,2.7448154296875,0.01222936697602272,-0.10293788497038185,0.030496918137744067
1783002533186867200,2.7548671875,0.015794950503110885,-0.011986059739440679,0.04242269905731082
1783002533196919300,2.764919189453125,-0.032167408633232114,0.05007416365854442,-0.029828152030706403
1783002533206971100,2.77497119140625,-0.06912731224000454,-0.0027044366531074047,-0.07827029404062777
1783002533217023200,2.785023193359375,-0.061818450531363485,-0.07814889615066349,-0.007325045658461749
1783002533227075000,2.795074951171875,-0.020337854629755018,-0.06324051922373473,0.039800351197086276
1783002533237126100,2.805126220703125,-0.020362989071011542,-0.03206643247678876,-0.0025657588347792622
1783002533247178000,2.815177978515625,-0.11134206763505936,-0.033032720225676895,-0.029299013590067622
1783002533257230300,2.825230224609375,-0.06936462812721729,-0.044536111014708876,0.013006781089305877
1783002533267282200,2.8352822265625,-0.04130757742226124,-0.05719838951528072,0.037257790574803946
1783002533277334300,2.845334228515625,-0.08872983833253383,-0.023105492712184785,0.04661240583211183
1783002533287386000,2.85538623046875,-0.18148703248500822,0.017119477105140685,0.11495320733692496
1783002533297437200,2.865437255859375,-0.2713473361521959,-0.022074834490194914,0.18243925517592577
1783002533307489300,2.8754892578125,-0.14002397224009036,-0.11234905272051691,0.06742766871526837
1783002533317541000,2.885541015625,-0.0331873993307352,-0.02722863705679774,-0.07541161667387931
1783002533327593200,2.89559326171875,0.057310617718100546,0.0583884030174464,-0.07263601448070257
1783002533337645300,2.905645263671875,0.1575941157221794,-0.03934745633043349,-0.06150240685213357
1783002533347697200,2.915697265625,0.16666647997200487,-0.11658055281043052,-0.0544607812449336
1783002533357748200,2.925748291015625,-0.05770341642796993,-0.10142433860227465,-0.039674423262476916
1783002533367800300,2.93580029296875,-0.15388532433211802,-0.06343479968681931,-0.08421247050594538
1783002533377852200,2.94585205078125,-0.1040986723780632,-0.038980595779418946,-0.10379121386408806
1783002533387904300,2.955904296875,-0.139181676197052,-0.04622786349393427,-0.0632450127357617
1783002533397956000,2.9659560546875,-0.17070085005462168,-0.058618412381038064,0.007850421239435672
1783002533408007200,2.976007080078125,-0.1899678605824709,-0.050853696663677686,0.03141315619982779
1783002533418059000,2.98605908203125,-0.29557050778269767,0.035214448178932066,0.05740030529554933
1783002533428111000,2.996111083984375,-0.40000995642244813,0.05861139811836183,0.10453852510005235
1783002533438163200,3.0061630859375,-0.3048667439162731,0.010674611814692616,0.13268650549147276
1783002533448215300,3.01621533203125,-0.24170798469185828,-0.02785875165387988,0.07023962086346
1783002533458267100,3.02626708984375,-0.20245733979940414,-0.021187091870233415,-0.040086109335906804
1783002533468318200,3.036318115234375,-0.09232464795410633,-0.03324146760553121,-0.06270575475990772
1783002533478370300,3.046370361328125,0.0068231240183115,-0.06978219595216215,0.0018221739258617161
1783002533488422100,3.056422119140625,0.07532207522690296,-0.11350998625867068,0.0766529950371012
1783002533498474200,3.06647412109375,0.07944879976809024,-0.09951032167449593,0.07679284189920872
1783002533508526000,3.076526123046875,0.03335223450362682,-0.05509549895189702,0.043609461156465114
1783002533518578200,3.086578125,0.017227029132843016,-0.040448184113949535,0.0028736557401716706
1783002533528629000,3.09662890625,0.034270518392324444,-0.02200688382051885,0.005633037450909614
1783002533538681300,3.106681396484375,0.08424129474163054,0.018029358491674065,-0.018504757451079785
1783002533548733200,3.116733154296875,0.1191822597414255,-0.01133358718007803,-0.07681125433873384
1783002533558785300,3.126785400390625,0.06223989081382751,-0.07590140948481858,-0.055356487975642084
1783002533568837000,3.136837158203125,0.026059154886007307,-0.035967896894738074,-0.05232439027074724
1783002533578889200,3.14688916015625,0.046376551249623296,-0.09880297712273896,-0.09190751852057874
1783002533588940000,3.15693994140625,-0.055368251478672026,0.02968034105785191,-0.0005077303264290094
1783002533598992100,3.1669921875,-0.06678864015936851,0.04155841037817299,-0.04317519792504609
1783002533609044000,3.1770439453125,-0.1545920112967491,-0.028953999544680118,0.045186245486512774
1783002533619096300,3.187096435546875,-0.22400164760947225,0.005175210680812597,0.0667399056468159
1783002533629148200,3.197148193359375,-0.16437866129577158,0.06762479872256517,-0.04909150929674506
1783002533639200300,3.2072001953125,-0.11299334197342395,0.060727294293791055,-0.04502721899989992
1783002533649251300,3.217251220703125,-0.10876315705776214,-0.04216813977435231,-0.040536410386674104
1783002533659303200,3.22730322265625,-0.060762219476699825,-0.10424356074146926,-0.048446160597912964
1783002533669355300,3.237355224609375,-0.004215571868419647,-0.11601824275255203,-0.04830090690832585
1783002533679407000,3.247406982421875,0.05027238964438438,-0.1337289637491107,-0.07107968841679393
1783002533689459200,3.257459228515625,0.029057752180099487,-0.12466938591562211,-0.06880611746162175
1783002533699511300,3.26751123046875,-0.03512099774181843,-0.12364289241209625,-0.05341123565938324
1783002533709562000,3.27756201171875,-0.10089899955391883,-0.12067096392922103,-0.05986735299620777
1783002533719614200,3.2876142578125,-0.18228022868931293,-0.07716317304894328,-0.02471796941012144
1783002533729666300,3.297666259765625,-0.19038345564603804,-0.0727826929423958,-0.031086518061347303
1783002533739718100,3.30771826171875,-0.1356435651987791,-0.05136339975148439,-0.07095715801566839
1783002533749770200,3.317770263671875,-0.10284487292468547,-0.040342750978097315,-0.07307783996406943
1783002533759822000,3.327822021484375,-0.09769465055465698,-0.09384973862953483,-0.05751107219364494
1783002533769873200,3.337873046875,-0.08621873229444027,-0.08009710760898887,-0.0489925424342975
1783002533779925000,3.347925048828125,-0.11494389151930809,-0.05182298008725047,-0.05572820736486465
1783002533789977000,3.35797705078125,-0.15688625971376896,-0.06138254333212971,-0.09045129183027893
1783002533800029200,3.368029296875,-0.11034370424747467,-0.07816950054727494,-0.08317282525990158
1783002533810081300,3.378081298828125,-0.07536708341240883,-0.08404496845193207,-0.047218226238153874
1783002533820132400,3.38813232421875,-0.04642331300079822,-0.09114639795497059,-0.06661795976758003
1783002533830184200,3.39818408203125,0.02137479646205902,-0.07120682192780077,-0.058760560798086225
1783002533840236300,3.408236328125,-0.027530981004238127,-0.06451368096470833,-0.0020486761581152675
1783002533850288000,3.4182880859375,-0.12361293566524982,-0.07566913509890437,0.06851835002880544
1783002533860340200,3.42834033203125,-0.1320008247822523,-0.09840265269353986,0.08236709836758672
1783002533870392000,3.43839208984375,-0.1923281599730253,-0.07229016018509864,0.056689161351509386
1783002533880444400,3.4484443359375,-0.3244038035571575,-0.03300758578442037,0.0049938627645373344
1783002533890495000,3.458494873046875,-0.27857553384006023,-0.06435264518409967,-0.08616112035568803
1783002533900547300,3.46854736328125,-0.18837503843307493,-0.08511603174954652,-0.014000029910355805
1783002533910599200,3.47859912109375,-0.11690203984975814,-0.1214620412416756,0.08870525188054888
1783002533920651300,3.4886513671875,-0.14558102184534072,-0.18581337125152347,0.05505235392991453
1783002533930703000,3.498703125,-0.06158931795060634,-0.11824402904324233,-0.012620119859278201
1783002533940754200,3.508754150390625,0.03608721242547035,-0.1002345442958176,-0.08398995032906532
1783002533950806000,3.518805908203125,0.028528759869933126,-0.13766491495855152,-0.03776358467247337
1783002533960858000,3.528858154296875,-0.012165069568157195,-0.11168657022379339,0.040095644349232316
1783002533970910000,3.538909912109375,-0.011885668104887007,-0.07276523035094142,0.05181220296490937
1783002533980962300,3.54896240234375,-0.05674830766022205,-0.06584054565429687,-0.027980587935261425
1783002533991014100,3.55901416015625,-0.1565443144083023,-0.055821255943179125,-0.02275108978394419
1783002534001065200,3.569065185546875,-0.17654957608282565,-0.09136413235887884,-0.01458805893138051
1783002534011117300,3.579117431640625,-0.0854851573228836,-0.13369900700226425,0.046705235214717686
1783002534021169200,3.589169189453125,-0.07251929276585578,-0.039610271985083816,0.14482570996601132
1783002534031221200,3.59922119140625,-0.03329904301166534,-0.002928016275912523,0.077559551955387
1783002534041273000,3.609273193359375,0.030303952848911284,0.05256963373608887,0.07537084627207369
1783002534051326200,3.619326171875,0.04106207822859287,0.12613302872739732,0.07934161306656896
1783002534061377300,3.629377197265625,-0.008772504520416259,0.10379581697396933,0.041104456065595145
1783002534071429400,3.639429443359375,-0.06541442919671535,0.07441475112363696,-0.03911189400888979
1783002534081481200,3.649481201171875,0.009505494970083236,0.0006523264288902282,-0.08907258735559881
1783002534091533300,3.659533203125,0.04417115015983581,-0.014523542327806352,-0.001356017718836665
1783002534101585200,3.669585205078125,0.12612404170334338,0.010822788113728166,-0.005308920063078404
1783002534111637000,3.679636962890625,0.2557943777114153,-0.06861519799940288,0.012291983883455395
1783002534121688000,3.68968798828125,0.2549310388803482,-0.16631021388024092,0.012347951854392886
1783002534131740200,3.699740234375,0.23608488411307332,-0.1254842094298452,-0.08036039818767458
1783002534141792300,3.709792236328125,0.013171616262197493,0.08646415842287242,-0.04543404623512178
1783002534151844400,3.71984423828125,-0.24074703070521353,0.05709266411848366,0.020834369442425667
1783002534161896200,3.729896240234375,-0.2358247718721628,0.04369220753647387,0.029719430959224698
1783002534171948300,3.7399482421875,-0.06770049430727958,0.06159319040812552,0.04648092493955046
1783002534181999000,3.7499990234375,0.009628829088807106,-0.004293459410220384,0.014949329991824923
1783002534192051200,3.76005126953125,-0.04875438629686832,-0.018338059114664792,0.0009129501264542341
1783002534202103000,3.77010302734375,-0.05551029029786587,-0.03705591132715344,0.0427257005918771
1783002534212155100,3.780155029296875,-0.040030981615185736,-0.08294117192849516,0.066727813350223
1783002534222207000,3.79020703125,-0.018515899899601937,-0.09627608899362385,0.03291519479323178
1783002534232259300,3.80025927734375,-0.08212006480395793,-0.10258205727003514,-0.014438202131912112
1783002534242310400,3.810310302734375,-0.16954641932249068,-0.11836012970358133,-0.04194408522751182
1783002534252362200,3.8203623046875,-0.2498503746151924,-0.17089454599581658,-0.06554930762276052
1783002534262414300,3.830414306640625,-0.30252982540130613,-0.19453319573663175,-0.030699966429173945
1783002534272466200,3.840466064453125,-0.31818916682600973,-0.10518990168087183,0.0030235856048762798
1783002534282518300,3.850518310546875,-0.3097825730085373,-0.06019172611236572,-0.006033325347490608
1783002534292570000,3.860570068359375,-0.3298240750402212,-0.06077361765354872,-0.022947635269351303
1783002534302621200,3.87062109375,-0.3512818736106157,-0.07788622662648559,0.02342573764249682
1783002534312673000,3.880673095703125,-0.28099779255092144,-0.10101334664858877,0.034919155026786025
1783002534322725400,3.890725341796875,-0.14175415703356264,-0.09920658948756754,0.0474499526347965
1783002534332777200,3.900777099609375,-0.06716916390955448,-0.09081745826154947,0.027216179434023796
1783002534342829300,3.910829345703125,-0.016637831068038938,-0.09456563181392848,0.014021949481219053
1783002534352881200,3.920881103515625,0.008834463840723037,-0.09723149002231657,0.01892795129921287
1783002534362932200,3.93093212890625,-0.007039397117495536,-0.09213665110133588,0.017117248615436256
1783002534372984000,3.940984130859375,-0.004665653723478317,-0.06444353833794593,-0.002329648523963988
1783002534383036200,3.9510361328125,-0.030618425625562665,-0.06444887210018932,-0.017768990522436797
1783002534393088000,3.961087890625,-0.09627426236271858,-0.06007993630096316,0.018626666797697543
1783002534403140000,3.97114013671875,-0.13427344588935375,-0.026919936433807013,0.04741089926604181
1783002534413192200,3.981192138671875,-0.002301262679696083,0.006036211424320936,-0.0029309754179790612
1783002534423243300,3.9912431640625,0.09629705871641635,0.03752696290500462,0.0033051790252327917
1783002534433295400,4.00129541015625,0.04778758709132671,0.008747808470577,-0.05259093225244432
1783002534443347200,4.01134716796875,0.03879179520905018,-0.0345159445207566,-0.053685924414917825
1783002534453399300,4.0213994140625,0.024055998370051384,-0.033099574916809794,-0.06864581233337522
1783002534463451100,4.031451171875,-0.01588788948357105,-0.06537080925069749,-0.1114530902614817
1783002534473503200,4.041503173828125,-0.011145663392543793,-0.056020139516144984,-0.13584179118461906
1783002534483554000,4.051553955078125,-0.13331366094648836,0.018036299689114094,-0.08524656279403715
1783002534493606100,4.061606201171875,-0.1891997988194227,0.045830534739419816,0.012162439219653605
1783002534503658200,4.071658203125,-0.1585837112814188,-0.004312967828288674,0.07256550652775913
1783002534513710300,4.08171044921875,-0.14765256742238997,0.011739902958646416,0.04507825506739318
1783002534523762200,4.09176220703125,-0.17607377526462076,0.007674553215876221,-0.05191610173080116
1783002534533814300,4.101814208984375,-0.11971300561726092,-0.039987653930112714,-0.15934428385775534
1783002534543865000,4.111864990234375,-0.043021980124711985,-0.07788776099644601,-0.09195822579450905
1783002534553917200,4.121917236328125,0.006160276195406913,-0.1093785855423659,-0.006573277443088591
1783002534563969000,4.131968994140625,0.000682137045264244,-0.08531864164955913,0.029266134233772754
1783002534574021000,4.142021240234375,-0.0671855305224657,-0.01599872944690287,0.09366294735316187
1783002534584073000,4.152072998046875,-0.1474737037241459,-0.005284735469892621,0.11426774582341313
1783002534594125300,4.162125244140625,-0.14019523715376853,-0.039810909123718735,0.0884379792464897
1783002534604176400,4.17217626953125,-0.06477554677128791,-0.1259026540376246,-0.06114248749855906
1783002534614228200,4.182228271484375,-0.06694646106958389,-0.09187829242609441,-0.17440686496570706
1783002534624280300,4.1922802734375,-0.1651449694931507,-0.0006290916837751865,-0.15894640711396932
1783002534634332200,4.202332275390625,-0.20100597194731235,-0.021416808972880244,-0.17178349419217556
1783002534644384300,4.21238427734375,-0.132872346919775,-0.04259045683965087,-0.04088631980288773
1783002534654436000,4.22243603515625,-0.12644903587400913,-0.03986709629036486,-0.06274250657372177
1783002534664488200,4.23248828125,-0.17734686394035815,-0.028142975422739983,0.0405451782150194
1783002534674539000,4.2425390625,-0.15439678098559378,-0.04570062474943697,0.06794599350094795
1783002534684591400,4.25259130859375,-0.14947919832766055,-0.008125804114714264,0.08244012707117944
1783002534694643200,4.262643310546875,-0.10161737695634364,0.041739027642086146,0.08632474995218217
1783002534704695300,4.2726953125,-0.17750351580679416,0.07488909063711761,0.15873586963582784
1783002534714747100,4.2827470703125,-0.3545890984624624,0.05483838238567114,0.18507172257136553
1783002534724798200,4.292798095703125,-0.2683627673834562,-0.12713497231155632,-0.014358999415859578
1783002534734850000,4.30285009765625,-0.35619653365910053,-0.012991291259229182,-0.20455509752994402
1783002534744902100,4.312902099609375,-0.38223172314763065,0.12215418822430074,-0.0051091962398961185
1783002534754954000,4.3229541015625,-0.11912965277135372,0.06333828050978481,0.26190458595370875
1783002534765006000,4.333006103515625,0.16509119347929954,-0.05802351522780955,0.23838417403139173
1783002534775058200,4.34305810546875,0.25204759239852426,-0.1077576332770288,0.14503695983020587
1783002534785109200,4.353109130859375,0.21699089206457137,-0.15251082110852002,-0.02030532233333215
1783002534795161300,4.363161376953125,0.16392624135315417,-0.13977788852453232,-0.12288692294564098
1783002534805213200,4.373213134765625,0.18588146805167197,-0.2005088360801339,-0.22129562178747728
1783002534815265300,4.383265380859375,0.16562720005214213,-0.16948818632923066,-0.1699773946182802
1783002534825317000,4.393317138671875,0.10812485915422439,-0.07442388427816331,-0.023030637377686798
1783002534835369200,4.403369140625,0.03259703222215175,-0.07390972421094774,0.08141984411273151
1783002534845421000,4.413421142578125,-0.06727028619647026,-0.13225472647808492,0.051769222339708355
1783002534855472000,4.42347216796875,0.00038519992530345915,-0.05434709173738956,-0.03222514843614772
1783002534865524200,4.433524169921875,0.00040039749443531033,0.05235511420257389,-0.055274709710013116
1783002534875576300,4.443576416015625,-0.06219371358454227,0.06692812169529497,-0.09524064499866217
1783002534885628200,4.453628173828125,-0.2053033768802881,-0.03925349443666637,-0.12698544430565087
1783002534895680300,4.46368017578125,-0.22852292442619798,-0.04355754830613732,-0.07501395912580192
1783002534905732000,4.473732177734375,-0.1692752011656761,-0.05532806559875607,-0.010122384759411214
1783002534915783200,4.483783203125,-0.1180541324943304,-0.07601429527476429,0.045563079442270095
1783002534925835000,4.4938349609375,0.0196808520257473,-0.060139703664183614,0.01017974096983671
1783002534935887000,4.50388720703125,0.00722527507841587,-0.03461355967633426,0.014841832763049751
1783002534945939000,4.51393896484375,0.004899462479352951,-0.014298209139332175,0.060108596139866854
1783002534955991300,4.5239912109375,-0.014283376896381378,0.03244644477032125,0.10896510937064885
1783002534966043100,4.534043212890625,-0.03255494664609432,0.03123750737197697,0.1661713716651313
1783002534976094200,4.54409423828125,-0.06898176628947257,-0.0444829195227474,0.11263004335267468
1783002534986146300,4.554146240234375,-0.09143442111611366,-0.055684185560047623,0.06201751676741987
1783002534996198100,4.5641982421875,0.02511749012172222,-0.03293773541860282,-0.021888098012749106
1783002535006250200,4.574250244140625,0.028476152899861332,-0.021062661772966385,-0.02320730911884457
1783002535016302000,4.584302001953125,-0.07706395045816898,-0.08667904328256845,0.061524271624069655
1783002535026354200,4.594354248046875,0.04029226289987564,-0.10262589641176163,0.08967055324874817
1783002535036405000,4.604405029296875,0.14643500832617282,-0.06462430173233151,-0.012853946881461888
1783002535046457300,4.614457275390625,-5.845218896865844e-7,-0.07182217734716832,-0.11978996157729997
1783002535056508400,4.62450830078125,-0.2044248404800892,-0.07948248284198343,-0.1357681962254457
1783002535066560300,4.634560302734375,-0.242726806345582,-0.11363171294219791,-0.14666140096057206
1783002535076612400,4.6446123046875,-0.21475684940218925,-0.13808153293542563,-0.1264684346942231
1783002535086664200,4.654664306640625,-0.31752222734987734,-0.11789506947509944,-0.059482207869831466
1783002535096715300,4.66471533203125,-0.29820728602707386,-0.08093998817391693,-0.01974938721731305
1783002535106767400,4.674767333984375,-0.23520050249397753,-0.010306874480843543,0.001285619363747537
1783002535116819500,4.6848193359375,-0.3302466843664646,0.048159050752222536,0.07781663198899477
1783002535126871300,4.694871337890625,-0.3580260871738195,0.043862595667317504,0.13203607875872403
1783002535136923400,4.70492333984375,-0.17056348741054533,0.046019335309788585,0.14193594334125517
1783002535146975200,4.714975341796875,-0.0194148945659399,0.014330065582320093,0.1147971947913058
1783002535157026300,4.7250263671875,0.06536065318286419,-0.07171301788426936,0.07586979050384834
1783002535167078100,4.735078125,0.08771043215692043,-0.1432773480128497,-0.011547613523248582
1783002535177130200,4.745130126953125,0.08722820159792899,-0.11608787392266094,-0.08616848167823626
1783002535187182000,4.75518212890625,0.10608195514976977,-0.12432217991314827,-0.11239944946719332
1783002535197234400,4.765234375,0.15625965224802493,-0.10832461951002478,-0.12466631717570126
1783002535207286300,4.775286376953125,0.04970014271438122,-0.017663447788730264,-0.09191721793068572
1783002535217337300,4.78533740234375,-0.1058282726496458,-0.002297097961232066,-0.06010079642590135
1783002535227389400,4.795389404296875,-0.24012451489269732,0.03677015318833291,0.07740132918637245
1783002535237441300,4.805441162109375,-0.2681494168937206,0.048105566999316215,0.1586929255432449
1783002535247493400,4.815493408203125,-0.16030512824654577,0.005529577076435089,0.07430820374293252
1783002535257545200,4.825545166015625,-0.08377192366421223,-0.01120499236434698,-0.02019656472923234
1783002535267597300,4.835597412109375,-0.06637889031469822,-0.030854572468996047,-0.020992190352641046
1783002535277648100,4.845648193359375,-0.18040975864231584,-0.06494980735965072,-0.0051743338979780675
1783002535287700500,4.855700439453125,-0.2814507970154285,-0.11014138660840689,0.030774018046073614
1783002535297752300,4.86575244140625,-0.07148527354300022,-0.08484189098328351,-0.010483728885091841
1783002535307804400,4.875804443359375,0.0034638767182826992,-0.09050188950635492,-0.015578677403926848
1783002535317856300,4.885856201171875,0.004392682000994682,-0.07898695441000163,-0.008867379729636013
1783002535327908400,4.895908447265625,-0.15766718095839022,-0.03560461654029786,0.047865693828836084
1783002535337959200,4.905959228515625,-0.13546119436919687,-0.02041355021446943,0.08406454993523657
1783002535348011300,4.91601123046875,-0.048233577293157574,-0.0555098519064486,0.01595719186011702
1783002535358063000,4.92606298828125,-0.010727730241417884,-0.04893609953932464,-0.0044497824830934405
1783002535368115200,4.936115234375,-0.008138882791996002,-0.021153408796340225,0.06009666824005544
1783002535378167300,4.946167236328125,-0.051021746706962585,0.0006626286271959543,0.04949461020492017
1783002535388219400,4.956219482421875,-0.09222411018908024,0.019377704360708594,0.014082812822982668
1783002535398271200,4.966271240234375,-0.044189854860305786,0.03508855677694082,0.009675262046419084
1783002535408322300,4.976322265625,0.0054535892307758325,0.024009017423167824,-0.05360378082310781
1783002535418374400,4.98637451171875,0.023320669832825658,-0.0036908173419535157,-0.15493446805886923
1783002535428426200,4.99642626953125,0.00895195274055004,0.041630306570604445,-0.12067770419726148
1783002535438478300,5.006478271484375,-0.13192425241470337,0.07083645424544811,-0.06387299017468467
1783002535448530200,5.0165302734375,-0.28216099111139775,0.03324548619352281,0.045740262640081346
1783002535458581200,5.026581298828125,-0.3276221810817718,-0.025614479858428237,0.06609700463339686
1783002535468633300,5.03663330078125,-0.16299509798288345,-0.11079312851540743,-0.13564148283954708
1783002535478685400,5.046685546875,0.08724690629839897,-0.044928252137452364,-0.14938993087532
1783002535488737300,5.0567373046875,0.01334346569776535,0.06068396660871803,0.09872861497858539
1783002535498789400,5.066789306640625,-0.21887948229014872,-0.02792114936560392,0.11478216161895542
1783002535508841200,5.07684130859375,-0.3721475515067577,-0.1330593208592385,-0.07619317723931744
1783002535518893300,5.086893310546875,-0.15633271748423574,-0.06990194987431168,-0.23762997639691455
1783002535528944000,5.096944091796875,0.4742319614529609,0.10645385720208286,-0.00681691347323358
1783002535538996200,5.106996337890625,0.9955302099853753,-0.026644553558528423,0.44647232279200105
1783002535549048000,5.117048095703125,0.21608079148232937,-0.41398777450099583,0.2215073465757072
1783002535559100400,5.127100341796875,-0.15076047030985354,-0.21470950312912462,-0.23536449741665272
1783002535569152300,5.13715234375,-0.726891548269987,0.11301686897948383,-0.2787543610056862
1783002535579204400,5.147204345703125,-0.9684002109974622,0.011677359116449952,-0.26214268729221074
1783002535589255400,5.15725537109375,-0.5293173043370246,-0.14628003696016967,-0.2082602539245039
1783002535599307300,5.167307373046875,-0.25247955407500267,-0.03314611747227609,-0.12709241181146352
1783002535609359400,5.177359375,0.016181319472193718,0.07294570148438215,-0.10819836278185248
1783002535619411200,5.1874111328125,0.5134294148534536,-0.00030650866590440273,0.15710914521683006
1783002535629463300,5.19746337890625,0.4292822281360626,-0.14844415619149803,0.36391708144117146
