time,seconds_elapsed,z,y,x
1783002530504289500,0.07228955078125,-0.973236083984375,-0.1717376708984375,0.043182373046875
1783002530514341600,0.082341552734375,-0.985931396484375,-0.1704559326171875,0.039947509765625
1783002530524393500,0.0923935546875,-0.9847259521484375,-0.1735382080078125,0.04510498046875
1783002530534445600,0.102445556640625,-0.9848175048828125,-0.1743927001953125,0.0422515869140625
1783002530544497400,0.112497314453125,-0.9850311279296875,-0.1696624755859375,0.03668212890625
1783002530554548500,0.122548583984375,-1.0008392333984375,-0.16778564453125,0.0370025634765625
1783002530564600800,0.132600830078125,-1.0118865966796875,-0.1685791015625,0.0406341552734375
1783002530574652700,0.142652587890625,-1.00836181640625,-0.170806884765625,0.0408935546875
1783002530584704500,0.15270458984375,-1.00335693359375,-0.170196533203125,0.03955078125
1783002530594756600,0.162756591796875,-1.002899169921875,-0.1725616455078125,0.0346832275390625
1783002530604807700,0.1728076171875,-0.9954376220703125,-0.1749267578125,0.0299224853515625
1783002530614859500,0.182859619140625,-0.9969024658203125,-0.17095947265625,0.0287628173828125
1783002530624911600,0.19291162109375,-1.00634765625,-0.17120361328125,0.0325469970703125
1783002530634963500,0.20296337890625,-1.01171875,-0.172271728515625,0.036895751953125
1783002530645015600,0.213015625,-0.99932861328125,-0.173980712890625,0.0316925048828125
1783002530655067600,0.223067626953125,-0.9844512939453125,-0.1756744384765625,0.0277557373046875
1783002530665118700,0.23311865234375,-0.989013671875,-0.1697845458984375,0.0344390869140625
1783002530675170600,0.243170654296875,-0.99542236328125,-0.1664886474609375,0.0398712158203125
1783002530685222700,0.25322265625,-0.983917236328125,-0.1687774658203125,0.0341796875
1783002530695274500,0.2632744140625,-0.9781341552734375,-0.1701812744140625,0.0295562744140625
1783002530705326600,0.27332666015625,-0.9902191162109375,-0.1683349609375,0.030548095703125
1783002530715377700,0.283377685546875,-1.0058135986328125,-0.16986083984375,0.0365142822265625
1783002530725429500,0.293429443359375,-0.995574951171875,-0.1734161376953125,0.0405120849609375
1783002530735481600,0.303481689453125,-0.96917724609375,-0.1751556396484375,0.0382843017578125
1783002530745533700,0.31353369140625,-0.9704437255859375,-0.1695556640625,0.04168701171875
1783002530755585800,0.323585693359375,-1.000457763671875,-0.1619110107421875,0.0503997802734375
1783002530765637600,0.3336376953125,-1.0133819580078125,-0.16448974609375,0.053741455078125
1783002530775688700,0.343688720703125,-0.9958953857421875,-0.16400146484375,0.0491790771484375
1783002530785740500,0.353740478515625,-0.991668701171875,-0.1609954833984375,0.04833984375
1783002530795792600,0.363792724609375,-1.0036163330078125,-0.16156005859375,0.05419921875
1783002530805844500,0.373844482421875,-1.0074310302734375,-0.16729736328125,0.053619384765625
1783002530815896600,0.383896484375,-0.991058349609375,-0.1728973388671875,0.038909912109375
1783002530825947600,0.39394775390625,-0.973297119140625,-0.171783447265625,0.0338897705078125
1783002530835999500,0.40399951171875,-0.9725341796875,-0.1752471923828125,0.0335540771484375
1783002530846051600,0.414051513671875,-0.97821044921875,-0.1755523681640625,0.032470703125
1783002530856103700,0.424103759765625,-0.990509033203125,-0.1680450439453125,0.031005859375
1783002530866155500,0.434155517578125,-0.9881744384765625,-0.167144775390625,0.030853271484375
1783002530876206600,0.44420654296875,-0.9835205078125,-0.1693115234375,0.02667236328125
1783002530886258700,0.4542587890625,-0.992889404296875,-0.1641387939453125,0.0297088623046875
1783002530896310500,0.464310546875,-1.0066986083984375,-0.159912109375,0.0387725830078125
1783002530906362600,0.474362548828125,-1.01348876953125,-0.16119384765625,0.0477447509765625
1783002530916414500,0.48441455078125,-1.01123046875,-0.1635894775390625,0.0520172119140625
1783002530926466800,0.494466796875,-1.0108795166015625,-0.1674652099609375,0.044525146484375
1783002530936517400,0.504517333984375,-1.0144805908203125,-0.16778564453125,0.03936767578125
1783002530946569700,0.51456982421875,-1.0118865966796875,-0.16900634765625,0.0353240966796875
1783002530956621600,0.52462158203125,-1.0074005126953125,-0.172943115234375,0.0350341796875
1783002530966673700,0.534673583984375,-0.996002197265625,-0.1757354736328125,0.03912353515625
1783002530976725500,0.5447255859375,-0.9823760986328125,-0.1722259521484375,0.0395660400390625
1783002530986776600,0.554776611328125,-0.9840545654296875,-0.170562744140625,0.0349578857421875
1783002530996828700,0.56482861328125,-0.985107421875,-0.173248291015625,0.0331573486328125
1783002531006880500,0.574880615234375,-0.98809814453125,-0.1725006103515625,0.042755126953125
1783002531016932600,0.5849326171875,-0.9865264892578125,-0.1717987060546875,0.0518341064453125
1783002531026984700,0.594984619140625,-0.9907989501953125,-0.171783447265625,0.054931640625
1783002531037036500,0.60503662109375,-0.9981231689453125,-0.1711273193359375,0.05218505859375
1783002531047090700,0.615090576171875,-0.9973907470703125,-0.16900634765625,0.04925537109375
1783002531057142800,0.625142822265625,-0.9936676025390625,-0.169677734375,0.0413818359375
1783002531067194600,0.635194580078125,-1.00653076171875,-0.169586181640625,0.031890869140625
1783002531077247000,0.6452470703125,-1.0201263427734375,-0.166748046875,0.035369873046875
1783002531087298800,0.655298828125,-1.016326904296875,-0.1732940673828125,0.02557373046875
1783002531097350000,0.665349853515625,-0.9989471435546875,-0.1781005859375,0.0180816650390625
1783002531107401700,0.675401611328125,-0.9876251220703125,-0.170074462890625,0.03564453125
1783002531117453800,0.685453857421875,-0.9855194091796875,-0.1752471923828125,0.03515625
1783002531127505700,0.695505615234375,-0.9985198974609375,-0.1752166748046875,0.042205810546875
1783002531137557800,0.705557861328125,-1.008514404296875,-0.180267333984375,0.052642822265625
1783002531147609600,0.715609619140625,-0.9956512451171875,-0.178680419921875,0.050994873046875
1783002531157660700,0.72566064453125,-0.9770355224609375,-0.172515869140625,0.0462646484375
1783002531167712800,0.735712646484375,-0.961700439453125,-0.172393798828125,0.0402984619140625
1783002531177764900,0.745764892578125,-0.9598236083984375,-0.171722412109375,0.0378570556640625
1783002531187817000,0.75581689453125,-0.9721832275390625,-0.16973876953125,0.0379486083984375
1783002531197868800,0.765868896484375,-0.9764404296875,-0.1715087890625,0.0338134765625
1783002531207919900,0.775919921875,-0.980438232421875,-0.166656494140625,0.0333404541015625
1783002531217971700,0.7859716796875,-1.000030517578125,-0.15838623046875,0.0433197021484375
1783002531228023800,0.79602392578125,-1.0040283203125,-0.1607208251953125,0.05023193359375
1783002531238075600,0.80607568359375,-0.9881134033203125,-0.1619873046875,0.0373382568359375
1783002531248127700,0.816127685546875,-0.99859619140625,-0.1533050537109375,0.02801513671875
1783002531258179800,0.826179931640625,-1.0085906982421875,-0.1517333984375,0.0285186767578125
1783002531268231000,0.83623095703125,-1.0065155029296875,-0.163482666015625,0.027069091796875
1783002531278283000,0.846282958984375,-0.999725341796875,-0.165679931640625,0.0265960693359375
1783002531288334800,0.8563349609375,-0.9983673095703125,-0.161285400390625,0.0257415771484375
1783002531298386700,0.86638671875,-1.006072998046875,-0.161895751953125,0.0301361083984375
1783002531308438800,0.876438720703125,-1.0004425048828125,-0.1610260009765625,0.0401611328125
1783002531318489900,0.88648974609375,-0.9990997314453125,-0.164398193359375,0.04278564453125
1783002531328541700,0.896541748046875,-1.0075836181640625,-0.1641845703125,0.042694091796875
1783002531338593800,0.90659375,-0.991546630859375,-0.1646728515625,0.03863525390625
1783002531348645600,0.916645751953125,-0.9772491455078125,-0.164459228515625,0.032623291015625
1783002531358698000,0.926697998046875,-0.9842681884765625,-0.1665802001953125,0.0330810546875
1783002531368749800,0.936749755859375,-0.986083984375,-0.168243408203125,0.0367584228515625
1783002531378801000,0.94680078125,-0.9850311279296875,-0.17010498046875,0.035064697265625
1783002531388852700,0.956852783203125,-0.9814453125,-0.1702423095703125,0.036865234375
1783002531398904800,0.96690478515625,-0.9758758544921875,-0.1739654541015625,0.0377197265625
1783002531408956700,0.976956787109375,-0.9849090576171875,-0.166717529296875,0.0422515869140625
1783002531419008800,0.9870087890625,-1.00128173828125,-0.165130615234375,0.0486297607421875
1783002531429059800,0.997059814453125,-1.0013885498046875,-0.1651611328125,0.04638671875
1783002531439111700,1.007111572265625,-0.99981689453125,-0.1617431640625,0.0444183349609375
1783002531449164000,1.0171640625,-1.010009765625,-0.1636505126953125,0.042724609375
1783002531459216000,1.0272158203125,-1.0079498291015625,-0.162139892578125,0.0413360595703125
1783002531469268000,1.03726806640625,-0.9958038330078125,-0.16375732421875,0.039642333984375
1783002531479318800,1.04731884765625,-0.9856414794921875,-0.1677093505859375,0.037078857421875
1783002531489371000,1.057370849609375,-0.997955322265625,-0.1685791015625,0.03759765625
1783002531499422700,1.067422607421875,-1.008026123046875,-0.1631927490234375,0.0391387939453125
1783002531509474800,1.077474853515625,-1.00860595703125,-0.1504669189453125,0.0287322998046875
1783002531519526700,1.087526611328125,-1.005126953125,-0.146209716796875,0.032012939453125
1783002531529578800,1.097578857421875,-0.997802734375,-0.1512298583984375,0.030364990234375
1783002531539629800,1.1076298828125,-0.9970855712890625,-0.1499481201171875,0.04522705078125
1783002531549682000,1.117681884765625,-1.0015106201171875,-0.148651123046875,0.0527191162109375
1783002531559733800,1.127733642578125,-1.0078277587890625,-0.1547393798828125,0.04241943359375
1783002531569785900,1.137785888671875,-1.0106964111328125,-0.162261962890625,0.011688232421875
1783002531579837700,1.147837646484375,-1.0130767822265625,-0.15380859375,-0.0052337646484375
1783002531589888800,1.157888671875,-1.0221710205078125,-0.139007568359375,0.0126800537109375
1783002531599940900,1.16794091796875,-0.9920806884765625,-0.14605712890625,0.0329437255859375
1783002531609992700,1.17799267578125,-0.9326934814453125,-0.1668243408203125,0.0329132080078125
1783002531620044800,1.188044921875,-0.89093017578125,-0.15985107421875,0.0269927978515625
1783002531630097000,1.198096923828125,-0.8879241943359375,-0.147216796875,0.038909912109375
1783002531640149000,1.20814892578125,-0.9239654541015625,-0.1409149169921875,0.0792694091796875
1783002531650199800,1.21819970703125,-1.0097198486328125,-0.140960693359375,0.1190185546875
1783002531660252000,1.228251953125,-1.0134429931640625,-0.153350830078125,0.12689208984375
1783002531670303700,1.2383037109375,-1.0485076904296875,-0.1543731689453125,0.1169281005859375
1783002531680355800,1.24835595703125,-1.095855712890625,-0.140869140625,0.0837860107421875
1783002531690407700,1.25840771484375,-1.0787353515625,-0.1029510498046875,0.05010986328125
1783002531700458800,1.268458740234375,-1.017822265625,-0.0708160400390625,0.0212249755859375
1783002531710510800,1.2785107421875,-0.987548828125,-0.0594024658203125,0.025146484375
1783002531720562700,1.288562744140625,-0.988616943359375,-0.0701446533203125,0.0385284423828125
1783002531730614800,1.29861474609375,-1.013671875,-0.096343994140625,0.0478057861328125
1783002531740667000,1.3086669921875,-1.033477783203125,-0.1123504638671875,0.0540313720703125
1783002531750718700,1.31871875,-1.0260009765625,-0.1122894287109375,0.050262451171875
1783002531760769800,1.328769775390625,-1.0153045654296875,-0.1076202392578125,0.0478363037109375
1783002531770822000,1.33882177734375,-1.02337646484375,-0.1054229736328125,0.060821533203125
1783002531780873700,1.348873779296875,-1.03607177734375,-0.1168060302734375,0.077239990234375
1783002531790925800,1.35892578125,-1.02069091796875,-0.1321258544921875,0.064361572265625
1783002531800977700,1.368977783203125,-0.99371337890625,-0.125640869140625,0.0460357666015625
1783002531811028700,1.37902880859375,-0.982421875,-0.1101837158203125,0.037567138671875
1783002531821080600,1.38908056640625,-0.9749908447265625,-0.1123199462890625,0.0342864990234375
1783002531831133000,1.3991328125,-0.9781341552734375,-0.1273193359375,0.0361785888671875
1783002531841184800,1.409184814453125,-0.9772491455078125,-0.132568359375,0.035552978515625
1783002531851236900,1.41923681640625,-0.9769287109375,-0.1296844482421875,0.0367431640625
1783002531861288700,1.429288818359375,-0.975555419921875,-0.1309356689453125,0.0389404296875
1783002531871339800,1.43933984375,-0.9757537841796875,-0.12939453125,0.0517578125
1783002531881391900,1.449391845703125,-0.984893798828125,-0.1291351318359375,0.06103515625
1783002531891443700,1.459443603515625,-0.9816436767578125,-0.126190185546875,0.05523681640625
1783002531901495800,1.469495849609375,-0.9661712646484375,-0.1205596923828125,0.04888916015625
1783002531911548000,1.4795478515625,-0.9718780517578125,-0.1184234619140625,0.0459136962890625
1783002531921599000,1.489598876953125,-0.9776763916015625,-0.123504638671875,0.0439605712890625
1783002531931650800,1.49965087890625,-0.9766693115234375,-0.12982177734375,0.04638671875
1783002531941703000,1.509702880859375,-0.9802703857421875,-0.1260986328125,0.04754638671875
1783002531951754800,1.519754638671875,-0.987030029296875,-0.11962890625,0.0394439697265625
1783002531961806800,1.529806884765625,-1.00482177734375,-0.1179656982421875,0.04266357421875
1783002531971858700,1.539858642578125,-1.024017333984375,-0.1219635009765625,0.0577545166015625
1783002531981909800,1.54990966796875,-1.028472900390625,-0.125640869140625,0.0635528564453125
1783002531991961600,1.559961669921875,-1.02520751953125,-0.1222076416015625,0.0595855712890625
1783002532002014000,1.570013916015625,-1.0217742919921875,-0.1175689697265625,0.057525634765625
1783002532012065800,1.580065673828125,-1.003753662109375,-0.12017822265625,0.05487060546875
1783002532022118000,1.590117919921875,-0.996490478515625,-0.1240386962890625,0.0595245361328125
1783002532032169700,1.600169677734375,-0.9964599609375,-0.130645751953125,0.0579986572265625
1783002532042220800,1.610220703125,-0.9908599853515625,-0.1350860595703125,0.049072265625
1783002532052273000,1.62027294921875,-0.9906768798828125,-0.1290283203125,0.0489501953125
1783002532062324700,1.63032470703125,-1.0023193359375,-0.1284027099609375,0.0535430908203125
1783002532072376800,1.640376953125,-1.00738525390625,-0.1363983154296875,0.0485992431640625
1783002532082428700,1.6504287109375,-1.005126953125,-0.1345062255859375,0.044281005859375
1783002532092479700,1.660479736328125,-1.004150390625,-0.12664794921875,0.043212890625
1783002532102531600,1.670531494140625,-1.002838134765625,-0.1240234375,0.0442047119140625
1783002532112583700,1.680583740234375,-0.998992919921875,-0.125579833984375,0.047576904296875
1783002532122635500,1.690635498046875,-0.9948272705078125,-0.128387451171875,0.0501556396484375
1783002532132687600,1.7006875,-0.989593505859375,-0.131805419921875,0.0430908203125
1783002532142739700,1.71073974609375,-0.981689453125,-0.1258392333984375,0.0406951904296875
1783002532152790800,1.720790771484375,-0.9973602294921875,-0.1197662353515625,0.0485687255859375
1783002532162842600,1.730842529296875,-1.017547607421875,-0.126922607421875,0.055694580078125
1783002532172894700,1.740894775390625,-1.009368896484375,-0.13262939453125,0.0510711669921875
1783002532182946600,1.750946533203125,-1.000762939453125,-0.1205902099609375,0.0464019775390625
1783002532192998700,1.76099853515625,-0.996856689453125,-0.111541748046875,0.0453338623046875
1783002532203049700,1.7710498046875,-0.994781494140625,-0.118621826171875,0.0443115234375
1783002532213101600,1.7811015625,-0.99078369140625,-0.1272125244140625,0.050994873046875
1783002532223153700,1.791153564453125,-0.98382568359375,-0.128082275390625,0.0514984130859375
1783002532233205800,1.801205810546875,-0.9745635986328125,-0.1220855712890625,0.04693603515625
1783002532243257900,1.8112578125,-0.9805450439453125,-0.1179962158203125,0.047698974609375
1783002532253309700,1.821309814453125,-1.0033416748046875,-0.1181488037109375,0.052032470703125
1783002532263360800,1.83136083984375,-1.025390625,-0.1168060302734375,0.0599822998046875
1783002532273412600,1.84141259765625,-1.013214111328125,-0.11669921875,0.0503082275390625
1783002532283464700,1.851464599609375,-0.9983673095703125,-0.114166259765625,0.0414886474609375
1783002532293516500,1.8615166015625,-0.99029541015625,-0.1116943359375,0.04364013671875
1783002532303568600,1.871568603515625,-0.9955902099609375,-0.1163787841796875,0.048431396484375
1783002532313619700,1.88161962890625,-1.0022735595703125,-0.120086669921875,0.042388916015625
1783002532323671600,1.891671630859375,-1.0043182373046875,-0.1122894287109375,0.0422821044921875
1783002532333724000,1.901723876953125,-1.0028228759765625,-0.1089019775390625,0.0389556884765625
1783002532343775700,1.911775634765625,-0.999053955078125,-0.116943359375,0.0378875732421875
1783002532353827800,1.921827880859375,-0.9920806884765625,-0.1223297119140625,0.0403289794921875
1783002532363879700,1.931879638671875,-0.9927825927734375,-0.11395263671875,0.046234130859375
1783002532373930800,1.9419306640625,-1.01226806640625,-0.1132659912109375,0.039703369140625
1783002532383982600,1.951982666015625,-1.0095367431640625,-0.113677978515625,0.0460052490234375
1783002532394034700,1.96203466796875,-0.9889068603515625,-0.112945556640625,0.057525634765625
1783002532404086500,1.97208642578125,-0.9979705810546875,-0.10906982421875,0.06427001953125
1783002532414139000,1.982138916015625,-1.0085906982421875,-0.11053466796875,0.0600128173828125
1783002532424190700,1.992190673828125,-1.012939453125,-0.114532470703125,0.0617218017578125
1783002532434241800,2.00224169921875,-1.0061492919921875,-0.1238250732421875,0.05841064453125
1783002532444293600,2.012293701171875,-0.99285888671875,-0.12542724609375,0.0427093505859375
1783002532454345700,2.022345703125,-0.9906158447265625,-0.11529541015625,0.035675048828125
1783002532464397600,2.0323974609375,-0.9867401123046875,-0.1141357421875,0.0386962890625
1783002532474449700,2.04244970703125,-0.986358642578125,-0.11810302734375,0.046356201171875
1783002532484500700,2.052500732421875,-0.99481201171875,-0.117156982421875,0.05047607421875
1783002532494552600,2.062552490234375,-1.00299072265625,-0.11248779296875,0.0465240478515625
1783002532504604700,2.072604736328125,-1.015777587890625,-0.1093597412109375,0.04364013671875
1783002532514656800,2.08265673828125,-1.0215911865234375,-0.11322021484375,0.046356201171875
1783002532524708900,2.092708984375,-1.017852783203125,-0.1168365478515625,0.0558013916015625
1783002532534760700,2.1027607421875,-1.0098114013671875,-0.118927001953125,0.0579681396484375
1783002532544811800,2.112811767578125,-1.0052947998046875,-0.1203765869140625,0.0498046875
1783002532554863600,2.122863525390625,-1.0050048828125,-0.118438720703125,0.0429534912109375
1783002532564915700,2.132915771484375,-1.0096282958984375,-0.108673095703125,0.0492706298828125
1783002532574967600,2.142967529296875,-1.00958251953125,-0.1082763671875,0.0577545166015625
1783002532585019600,2.15301953125,-1.0034332275390625,-0.111358642578125,0.0684356689453125
1783002532595071700,2.16307177734375,-0.9955291748046875,-0.113037109375,0.0641937255859375
1783002532605122600,2.17312255859375,-0.9936981201171875,-0.1092376708984375,0.0557403564453125
1783002532615174700,2.183174560546875,-0.999755859375,-0.1090850830078125,0.0509185791015625
1783002532625226800,2.193226806640625,-1.0053863525390625,-0.113067626953125,0.0506439208984375
1783002532635278600,2.203278564453125,-1.0133819580078125,-0.117645263671875,0.0549774169921875
1783002532645330700,2.21333056640625,-1.016693115234375,-0.1163177490234375,0.059906005859375
1783002532655381800,2.2233818359375,-1.0169677734375,-0.115692138671875,0.0524749755859375
1783002532665433600,2.23343359375,-1.0276947021484375,-0.1093597412109375,0.04583740234375
1783002532675485700,2.243485595703125,-1.0266571044921875,-0.103179931640625,0.0528106689453125
1783002532685537500,2.25353759765625,-0.9999847412109375,-0.1101531982421875,0.0543975830078125
1783002532695590000,2.26358984375,-0.99029541015625,-0.1133575439453125,0.053314208984375
1783002532705641700,2.273641845703125,-0.9874420166015625,-0.1133880615234375,0.0532073974609375
1783002532715692800,2.28369287109375,-0.985015869140625,-0.11236572265625,0.05389404296875
1783002532725744600,2.29374462890625,-0.9785919189453125,-0.114471435546875,0.05450439453125
1783002532735796700,2.303796630859375,-0.9730072021484375,-0.113983154296875,0.0540618896484375
1783002532745848600,2.3138486328125,-0.9763031005859375,-0.1167449951171875,0.04107666015625
1783002532755900700,2.323900634765625,-0.98944091796875,-0.1166839599609375,0.038421630859375
1783002532765951700,2.33395166015625,-0.9909515380859375,-0.1204833984375,0.0412750244140625
1783002532776003600,2.344003662109375,-0.9925384521484375,-0.1158905029296875,0.041412353515625
1783002532786055700,2.3540556640625,-0.991058349609375,-0.1074676513671875,0.040924072265625
1783002532796107800,2.364107666015625,-1.0011444091796875,-0.1079559326171875,0.0453948974609375
1783002532806159600,2.37415966796875,-1.0130157470703125,-0.1124725341796875,0.0535888671875
1783002532816211700,2.384211669921875,-1.003265380859375,-0.1116180419921875,0.05938720703125
1783002532826262800,2.3942626953125,-0.9978485107421875,-0.1101226806640625,0.057373046875
1783002532836314600,2.404314697265625,-1.002166748046875,-0.1114044189453125,0.0484161376953125
1783002532846366700,2.41436669921875,-1.0046844482421875,-0.1130828857421875,0.0430145263671875
1783002532856418600,2.42441845703125,-1.008880615234375,-0.1128082275390625,0.04449462890625
1783002532866470700,2.434470703125,-1.0091094970703125,-0.1120452880859375,0.047698974609375
1783002532876522800,2.444522705078125,-1.0019073486328125,-0.108154296875,0.0501708984375
1783002532886573800,2.45457373046875,-0.999664306640625,-0.102874755859375,0.0450592041015625
1783002532896625700,2.464625732421875,-1.005035400390625,-0.1030120849609375,0.039398193359375
1783002532906677800,2.474677734375,-1.015289306640625,-0.1065521240234375,0.045806884765625
1783002532916729600,2.4847294921875,-1.0026702880859375,-0.110015869140625,0.0559234619140625
1783002532926781700,2.49478173828125,-1.0022430419921875,-0.1136474609375,0.054412841796875
1783002532936833500,2.50483349609375,-1.002899169921875,-0.1160736083984375,0.0488433837890625
1783002532946884600,2.514884521484375,-1.004669189453125,-0.1159820556640625,0.0497283935546875
1783002532956936700,2.524936767578125,-0.9954833984375,-0.1204681396484375,0.0526580810546875
1783002532966988500,2.534988525390625,-0.987396240234375,-0.12091064453125,0.05291748046875
1783002532977040600,2.54504052734375,-0.9883880615234375,-0.1165618896484375,0.05078125
1783002532987092700,2.5550927734375,-0.985748291015625,-0.1111907958984375,0.0497589111328125
1783002532997143800,2.565143798828125,-0.9881439208984375,-0.1114501953125,0.0500946044921875
1783002533007195600,2.575195556640625,-0.998504638671875,-0.114990234375,0.0560760498046875
1783002533017247700,2.585247802734375,-1.0060577392578125,-0.11517333984375,0.060150146484375
1783002533027299600,2.595299560546875,-1.00921630859375,-0.1111602783203125,0.05718994140625
1783002533037351700,2.6053515625,-1.0097808837890625,-0.110748291015625,0.052032470703125
1783002533047400200,2.615400146484375,-1.0109710693359375,-0.1143341064453125,0.0510101318359375
1783002533057451300,2.625451171875,-1.0088043212890625,-0.1151885986328125,0.0525665283203125
1783002533067503000,2.635503173828125,-1.0019989013671875,-0.1114654541015625,0.0519866943359375
1783002533077555200,2.64555517578125,-0.9985809326171875,-0.110260009765625,0.049957275390625
1783002533087607000,2.65560693359375,-0.994720458984375,-0.1080322265625,0.05023193359375
1783002533097659100,2.6656591796875,-1.0004425048828125,-0.106048583984375,0.049652099609375
1783002533107711000,2.6757109375,-1.0076141357421875,-0.1054840087890625,0.049957275390625
1783002533117762000,2.685761962890625,-1.0062255859375,-0.11041259765625,0.0534820556640625
1783002533127814400,2.695814453125,-1.0009307861328125,-0.115875244140625,0.057769775390625
1783002533137866200,2.7058662109375,-0.998626708984375,-0.1131439208984375,0.0542755126953125
1783002533147918300,2.71591845703125,-0.9995574951171875,-0.113189697265625,0.045379638671875
1783002533157970200,2.72597021484375,-1.00030517578125,-0.1184539794921875,0.0411529541015625
1783002533168022300,2.736022216796875,-0.9972381591796875,-0.1223602294921875,0.044830322265625
1783002533178073000,2.746072998046875,-0.99090576171875,-0.1168212890625,0.050933837890625
1783002533188125200,2.756125244140625,-0.9925079345703125,-0.1064300537109375,0.0497894287109375
1783002533198177000,2.766177001953125,-0.9974365234375,-0.10260009765625,0.0414886474609375
1783002533208229000,2.77622900390625,-1.0006256103515625,-0.1100311279296875,0.039794921875
1783002533218281200,2.78628125,-0.998565673828125,-0.1160736083984375,0.0476837158203125
1783002533228333300,2.796333251953125,-0.993743896484375,-0.1134033203125,0.049957275390625
1783002533238384000,2.806384033203125,-0.9974822998046875,-0.1123046875,0.044158935546875
1783002533248436200,2.816436279296875,-1.0044403076171875,-0.11297607421875,0.0438690185546875
1783002533258488000,2.826488037109375,-0.99810791015625,-0.1151123046875,0.0481719970703125
1783002533268540200,2.8365400390625,-0.998016357421875,-0.11492919921875,0.0499267578125
1783002533278592000,2.846592041015625,-1.0034942626953125,-0.1104278564453125,0.0519561767578125
1783002533288643000,2.85664306640625,-1.0150299072265625,-0.1067047119140625,0.0604248046875
1783002533298695200,2.866695068359375,-1.0192413330078125,-0.1129913330078125,0.063201904296875
1783002533308747300,2.876747314453125,-1.0039215087890625,-0.1183624267578125,0.0476531982421875
1783002533318799400,2.88679931640625,-0.9943695068359375,-0.1060791015625,0.03582763671875
1783002533328851200,2.896851318359375,-0.9847259521484375,-0.101593017578125,0.0378265380859375
1783002533338903300,2.9069033203125,-0.97540283203125,-0.1136932373046875,0.037872314453125
1783002533348954000,2.9169541015625,-0.9802398681640625,-0.1192626953125,0.0389556884765625
1783002533359006200,2.927006103515625,-1.00457763671875,-0.1169586181640625,0.039337158203125
1783002533369058000,2.93705810546875,-1.007537841796875,-0.1134185791015625,0.033843994140625
1783002533379110100,2.947110107421875,-1.0043487548828125,-0.1115570068359375,0.0341796875
1783002533389162000,2.957161865234375,-1.0081939697265625,-0.112884521484375,0.0399627685546875
1783002533399214300,2.96721435546875,-1.0111846923828125,-0.113861083984375,0.0465850830078125
1783002533409265200,2.97726513671875,-1.013885498046875,-0.110931396484375,0.048736572265625
1783002533419317200,2.987317138671875,-1.027557373046875,-0.1024017333984375,0.0519256591796875
1783002533429369000,2.997369140625,-1.0328521728515625,-0.1030426025390625,0.0572509765625
1783002533439421200,3.007421142578125,-1.0213470458984375,-0.1093292236328125,0.0575103759765625
1783002533449473000,3.01747314453125,-1.017486572265625,-0.1125030517578125,0.0490570068359375
1783002533459525000,3.027525146484375,-1.01116943359375,-0.111907958984375,0.038665771484375
1783002533469576200,3.037576171875,-0.9996185302734375,-0.1143798828125,0.0390625
1783002533479628000,3.0476279296875,-0.9901580810546875,-0.1188812255859375,0.0472564697265625
1783002533489680400,3.057680419921875,-0.9838104248046875,-0.1227569580078125,0.05328369140625
1783002533499732200,3.067732177734375,-0.9860076904296875,-0.120269775390625,0.0521697998046875
1783002533509784300,3.077784423828125,-0.989593505859375,-0.1168365478515625,0.0483551025390625
1783002533519836200,3.087836181640625,-0.9909515380859375,-0.116485595703125,0.04449462890625
1783002533529887200,3.09788720703125,-0.9881439208984375,-0.1144256591796875,0.0454864501953125
1783002533539939000,3.10793896484375,-0.982147216796875,-0.111846923828125,0.04046630859375
1783002533549991200,3.1179912109375,-0.981170654296875,-0.1168670654296875,0.0367279052734375
1783002533560043000,3.12804296875,-0.9882049560546875,-0.121063232421875,0.0397186279296875
1783002533570095000,3.13809521484375,-0.98828125,-0.118072509765625,0.0374603271484375
1783002533580146200,3.148146240234375,-0.9907989501953125,-0.1218109130859375,0.038238525390625
1783002533590198300,3.1581982421875,-0.9985198974609375,-0.107025146484375,0.044464111328125
1783002533600250400,3.16825048828125,-1.000640869140625,-0.110809326171875,0.0411224365234375
1783002533610302200,3.17830224609375,-1.0112152099609375,-0.115570068359375,0.0518341064453125
1783002533620354000,3.18835400390625,-1.0150909423828125,-0.1103973388671875,0.04864501953125
1783002533630406100,3.19840625,-1.0071563720703125,-0.10455322265625,0.0382537841796875
1783002533640458000,3.2084580078125,-1.0045166015625,-0.1080169677734375,0.0407867431640625
1783002533650509000,3.218509033203125,-1.0027618408203125,-0.1188812255859375,0.0395050048828125
1783002533660561200,3.22856103515625,-0.997528076171875,-0.1230316162109375,0.0401153564453125
1783002533670613200,3.23861328125,-0.99188232421875,-0.1240386962890625,0.039154052734375
1783002533680665300,3.248665283203125,-0.9868316650390625,-0.1254425048828125,0.036834716796875
1783002533690717200,3.25871728515625,-0.991851806640625,-0.123992919921875,0.037933349609375
1783002533700768300,3.268768310546875,-0.99713134765625,-0.124664306640625,0.038421630859375
1783002533710820000,3.278820068359375,-1.005523681640625,-0.1229248046875,0.0381927490234375
1783002533720872200,3.2888720703125,-1.012725830078125,-0.118408203125,0.0418853759765625
1783002533730924000,3.298924072265625,-1.01104736328125,-0.1183319091796875,0.0390777587890625
1783002533740976000,3.30897607421875,-1.005523681640625,-0.1147308349609375,0.0357513427734375
1783002533751028000,3.319028076171875,-1.003387451171875,-0.115478515625,0.0364837646484375
1783002533761079000,3.3290791015625,-1.0022430419921875,-0.120147705078125,0.0376129150390625
1783002533771131400,3.33913134765625,-1.0022735595703125,-0.1173095703125,0.0384368896484375
1783002533781183200,3.349183349609375,-1.00604248046875,-0.114990234375,0.036834716796875
1783002533791235300,3.3592353515625,-1.008392333984375,-0.116729736328125,0.033172607421875
1783002533801287200,3.369287109375,-1.00323486328125,-0.1172943115234375,0.03594970703125
1783002533811339300,3.37933935546875,-1.0004119873046875,-0.1183013916015625,0.037933349609375
1783002533821390000,3.38939013671875,-0.99603271484375,-0.11785888671875,0.0362701416015625
1783002533831442200,3.399442138671875,-0.9906463623046875,-0.1160888671875,0.038970947265625
1783002533841494000,3.409493896484375,-0.9986114501953125,-0.1165618896484375,0.0457305908203125
1783002533851546400,3.41954638671875,-1.00653076171875,-0.1186676025390625,0.052276611328125
1783002533861598200,3.42959814453125,-1.0064544677734375,-0.1209259033203125,0.05169677734375
1783002533871650300,3.439650390625,-1.0164031982421875,-0.1166229248046875,0.0486602783203125
1783002533881701000,3.449701171875,-1.02679443359375,-0.1137542724609375,0.041717529296875
1783002533891753200,3.459753173828125,-1.0186614990234375,-0.1163330078125,0.0338287353515625
1783002533901805000,3.46980517578125,-1.010345458984375,-0.1159820556640625,0.04644775390625
1783002533911857200,3.479857177734375,-1.0052947998046875,-0.120941162109375,0.0521087646484375
1783002533921909000,3.489908935546875,-1.0081634521484375,-0.12322998046875,0.0481109619140625
1783002533931961000,3.499961181640625,-0.99603271484375,-0.11480712890625,0.0399017333984375
1783002533942012200,3.51001220703125,-0.989105224609375,-0.1161346435546875,0.0355072021484375
1783002533952064300,3.520064208984375,-0.9918975830078125,-0.1201934814453125,0.0420989990234375
1783002533962116400,3.530116455078125,-0.994720458984375,-0.1175537109375,0.0493011474609375
1783002533972168200,3.540168212890625,-0.994384765625,-0.116058349609375,0.046417236328125
1783002533982220300,3.55022021484375,-1.0014801025390625,-0.1155242919921875,0.0402374267578125
1783002533992272100,3.560272216796875,-1.0110626220703125,-0.115570068359375,0.0412139892578125
1783002534002323200,3.5703232421875,-1.0086212158203125,-0.1207122802734375,0.0417938232421875
1783002534012375000,3.580375,-1.000946044921875,-0.120208740234375,0.0515594482421875
1783002534022427100,3.59042724609375,-1.0005035400390625,-0.109466552734375,0.0570220947265625
1783002534032479200,3.600479248046875,-0.994842529296875,-0.106658935546875,0.049285888671875
1783002534042531300,3.61053125,-0.9890594482421875,-0.0991973876953125,0.0504150390625
1783002534052584200,3.620584228515625,-0.9899749755859375,-0.094207763671875,0.049072265625
1783002534062635300,3.63063525390625,-0.9960784912109375,-0.0985107421875,0.0435791015625
1783002534072687000,3.64068701171875,-0.9994964599609375,-0.102874755859375,0.0348052978515625
1783002534082739200,3.6507392578125,-0.9901123046875,-0.111480712890625,0.0332794189453125
1783002534092791000,3.660791015625,-0.987884521484375,-0.10986328125,0.0420989990234375
1783002534102843400,3.670843505859375,-0.9768218994140625,-0.1098785400390625,0.0398406982421875
1783002534112895200,3.680895263671875,-0.9656524658203125,-0.119110107421875,0.0434722900390625
1783002534122946300,3.6909462890625,-0.9679107666015625,-0.12689208984375,0.041534423828125
1783002534132998100,3.700998046875,-0.9720611572265625,-0.1152496337890625,0.0322418212890625
1783002534143050200,3.71105029296875,-1.00018310546875,-0.0971221923828125,0.0400390625
1783002534153102000,3.72110205078125,-1.0202484130859375,-0.1037139892578125,0.043792724609375
1783002534163154200,3.731154296875,-1.0140228271484375,-0.1006011962890625,0.045196533203125
1783002534173206000,3.7412060546875,-0.996307373046875,-0.101593017578125,0.0447540283203125
1783002534183257000,3.751257080078125,-0.9939422607421875,-0.1063385009765625,0.040740966796875
1783002534193309200,3.76130908203125,-0.9996490478515625,-0.10601806640625,0.0406494140625
1783002534203361300,3.771361328125,-0.9993133544921875,-0.108245849609375,0.04534912109375
1783002534213413000,3.7814130859375,-0.9971160888671875,-0.1114654541015625,0.046356201171875
1783002534223465200,3.79146533203125,-0.9968109130859375,-0.1120758056640625,0.0423736572265625
1783002534233517000,3.80151708984375,-1.004486083984375,-0.112945556640625,0.0382843017578125
1783002534243568000,3.811568115234375,-1.0135955810546875,-0.114990234375,0.035888671875
1783002534253620200,3.8216201171875,-1.02099609375,-0.1210784912109375,0.03472900390625
1783002534263672000,3.831672119140625,-1.025787353515625,-0.1196746826171875,0.0391845703125
1783002534273724200,3.84172412109375,-1.02593994140625,-0.1101531982421875,0.0418701171875
1783002534283776300,3.8517763671875,-1.0260162353515625,-0.107269287109375,0.0400390625
1783002534293828400,3.861828369140625,-1.028564453125,-0.107391357421875,0.0404052734375
1783002534303879200,3.871879150390625,-1.029266357421875,-0.1097412109375,0.044952392578125
1783002534313931300,3.88193115234375,-1.019195556640625,-0.111724853515625,0.0453643798828125
1783002534323983000,3.891983154296875,-1.0058746337890625,-0.1112518310546875,0.0458221435546875
1783002534334035200,3.90203515625,-0.999298095703125,-0.111480712890625,0.04327392578125
1783002534344087000,3.912087158203125,-0.9944610595703125,-0.112030029296875,0.0421905517578125
1783002534354139100,3.92213916015625,-0.9933013916015625,-0.11297607421875,0.0425567626953125
1783002534364190200,3.932190185546875,-0.9945831298828125,-0.1117095947265625,0.0427093505859375
1783002534374242000,3.942241943359375,-0.9945526123046875,-0.1087188720703125,0.040130615234375
1783002534384294100,3.952294189453125,-0.9984588623046875,-0.1086273193359375,0.0402069091796875
1783002534394346200,3.96234619140625,-1.0055999755859375,-0.1069183349609375,0.0449066162109375
1783002534404398000,3.972398193359375,-1.0063018798828125,-0.1029510498046875,0.0455169677734375
1783002534414450200,3.9824501953125,-0.989898681640625,-0.0994415283203125,0.041015625
1783002534424501200,3.992501220703125,-0.9849090576171875,-0.096923828125,0.04034423828125
1783002534434553000,4.002552978515625,-0.98980712890625,-0.1019744873046875,0.03533935546875
1783002534444605200,4.012605224609375,-0.989654541015625,-0.105194091796875,0.0351409912109375
1783002534454657000,4.022656982421875,-0.99310302734375,-0.105560302734375,0.032928466796875
1783002534464709400,4.03270947265625,-0.995208740234375,-0.1085968017578125,0.028594970703125
1783002534474761200,4.04276123046875,-0.9970855712890625,-0.1053314208984375,0.027923583984375
1783002534484812300,4.052812255859375,-1.010498046875,-0.0976104736328125,0.035125732421875
1783002534494864100,4.062864013671875,-1.012847900390625,-0.0975799560546875,0.0450286865234375
1783002534504916200,4.072916259765625,-1.0095367431640625,-0.1024017333984375,0.048431396484375
1783002534514968000,4.082968017578125,-1.0097808837890625,-0.1000823974609375,0.043548583984375
1783002534525020200,4.093020263671875,-1.011077880859375,-0.102325439453125,0.0315399169921875
1783002534535072000,4.103072021484375,-1.0044097900390625,-0.1069793701171875,0.0240478515625
1783002534545123000,4.113123046875,-0.9967803955078125,-0.110015869140625,0.033294677734375
1783002534555175200,4.123175048828125,-0.993316650390625,-0.112884521484375,0.0401611328125
1783002534565227300,4.133227294921875,-0.995147705078125,-0.1075592041015625,0.04400634765625
1783002534575279400,4.143279296875,-1.0035400390625,-0.101837158203125,0.0496063232421875
1783002534585331200,4.153331298828125,-1.009735107421875,-0.10211181640625,0.0493316650390625
1783002534595383000,4.163383056640625,-1.0070953369140625,-0.1078338623046875,0.0437469482421875
1783002534605434000,4.17343408203125,-0.99908447265625,-0.1158294677734375,0.025909423828125
1783002534615486200,4.183486328125,-1.0037689208984375,-0.1079864501953125,0.0198974609375
1783002534625538000,4.1935380859375,-1.0122528076171875,-0.10198974609375,0.019287109375
1783002534635590100,4.203590087890625,-1.013916015625,-0.104400634765625,0.0231170654296875
1783002534645642200,4.213642333984375,-1.00579833984375,-0.106353759765625,0.0323638916015625
1783002534655694300,4.2236943359375,-1.0089569091796875,-0.1053924560546875,0.03228759765625
1783002534665745200,4.2337451171875,-1.0119476318359375,-0.105010986328125,0.04156494140625
1783002534675797200,4.24379736328125,-1.0095062255859375,-0.1068572998046875,0.0425262451171875
1783002534685849000,4.25384912109375,-1.008331298828125,-0.1024627685546875,0.0430450439453125
1783002534695901200,4.263901123046875,-1.0049896240234375,-0.099212646484375,0.042236328125
1783002534705953000,4.273953125,-1.016815185546875,-0.09710693359375,0.0517425537109375
1783002534716005000,4.284005126953125,-1.029693603515625,-0.1067352294921875,0.045013427734375
1783002534726056200,4.29405615234375,-1.0203704833984375,-0.1220550537109375,0.02215576171875
1783002534736108000,4.30410791015625,-1.0337982177734375,-0.1041412353515625,0.00909423828125
1783002534746160400,4.314160400390625,-1.0277557373046875,-0.09490966796875,0.0371551513671875
1783002534756212200,4.324212158203125,-0.9985504150390625,-0.1014404296875,0.0567779541015625
1783002534766264300,4.334264404296875,-0.972320556640625,-0.1133270263671875,0.050323486328125
1783002534776316200,4.344316162109375,-0.9688262939453125,-0.11700439453125,0.0390777587890625
1783002534786367200,4.3543671875,-0.9738311767578125,-0.1194610595703125,0.0225372314453125
1783002534796419000,4.364419189453125,-0.977081298828125,-0.1211090087890625,0.011566162109375
1783002534806471200,4.37447119140625,-0.9749298095703125,-0.1264495849609375,0.0043182373046875
1783002534816523000,4.38452294921875,-0.97821044921875,-0.1223907470703125,0.012054443359375
1783002534826575400,4.394575439453125,-0.9842681884765625,-0.112640380859375,0.0269775390625
1783002534836627200,4.404627197265625,-0.9941558837890625,-0.1175689697265625,0.033782958984375
1783002534846678300,4.41467822265625,-0.99993896484375,-0.1202850341796875,0.0279541015625
1783002534856730000,4.424730224609375,-0.992584228515625,-0.110626220703125,0.019683837890625
1783002534866782200,4.4347822265625,-0.9949493408203125,-0.1005096435546875,0.0190887451171875
1783002534876834000,4.444833984375,-1.003509521484375,-0.1031036376953125,0.01348876953125
1783002534886886100,4.45488623046875,-1.017120361328125,-0.112823486328125,0.0134735107421875
1783002534896938000,4.46493798828125,-1.0155029296875,-0.110565185546875,0.0198211669921875
1783002534906989000,4.474989013671875,-1.0110626220703125,-0.114166259765625,0.026824951171875
1783002534917041200,4.485041259765625,-1.0016326904296875,-0.115020751953125,0.0302734375
1783002534927093200,4.49509326171875,-0.9917144775390625,-0.1137847900390625,0.025726318359375
1783002534937145300,4.505145263671875,-0.9924774169921875,-0.11126708984375,0.0280609130859375
1783002534947197200,4.515197265625,-0.9942474365234375,-0.1101837158203125,0.0316009521484375
1783002534957249300,4.525249267578125,-0.9949798583984375,-0.1048126220703125,0.037567138671875
1783002534967300000,4.535300048828125,-0.9979400634765625,-0.1077728271484375,0.040496826171875
1783002534977352200,4.545352294921875,-1.0023651123046875,-0.114288330078125,0.0338897705078125
1783002534987404000,4.555404052734375,-1.001251220703125,-0.1126861572265625,0.02862548828125
1783002534997456100,4.5654560546875,-0.9891357421875,-0.1092376708984375,0.0205535888671875
1783002535007508200,4.57550830078125,-0.994232177734375,-0.1089019775390625,0.0244293212890625
1783002535017560300,4.585560302734375,-1.001434326171875,-0.115325927734375,0.0327301025390625
1783002535027611100,4.595611083984375,-0.985198974609375,-0.114593505859375,0.0328216552734375
1783002535037663200,4.605663330078125,-0.9809417724609375,-0.111785888671875,0.0208587646484375
1783002535047715000,4.615715087890625,-0.999847412109375,-0.1133880615234375,0.0122833251953125
1783002535057766100,4.62576611328125,-1.0177764892578125,-0.1150970458984375,0.012420654296875
1783002535067818500,4.635818603515625,-1.017547607421875,-0.1196136474609375,0.01123046875
1783002535077870300,4.645870361328125,-1.017120361328125,-0.120635986328125,0.0148468017578125
1783002535087921400,4.65592138671875,-1.0284881591796875,-0.1177215576171875,0.0220184326171875
1783002535097973200,4.66597314453125,-1.02154541015625,-0.11328125,0.025360107421875
1783002535108025300,4.676025390625,-1.019378662109375,-0.1041412353515625,0.0296478271484375
1783002535118077200,4.6860771484375,-1.0301971435546875,-0.0999603271484375,0.0379486083984375
1783002535128129300,4.69612939453125,-1.0270538330078125,-0.1000213623046875,0.0428009033203125
1783002535138181000,4.70618115234375,-1.0066986083984375,-0.0999298095703125,0.0424041748046875
1783002535148232200,4.716232177734375,-0.993499755859375,-0.10498046875,0.0398712158203125
1783002535158284300,4.7262841796875,-0.9863128662109375,-0.1150054931640625,0.0343780517578125
1783002535168336400,4.73633642578125,-0.9850006103515625,-0.1200103759765625,0.02545166015625
1783002535178388500,4.746388427734375,-0.985137939453125,-0.117584228515625,0.019500732421875
1783002535188440300,4.7564404296875,-0.981292724609375,-0.1195068359375,0.017791748046875
1783002535198492400,4.766492431640625,-0.9790191650390625,-0.1153106689453125,0.018463134765625
1783002535208544300,4.776544189453125,-0.9927978515625,-0.10687255859375,0.02203369140625
1783002535218595300,4.78659521484375,-1.00848388671875,-0.1057281494140625,0.027557373046875
1783002535228647200,4.796647216796875,-1.0208282470703125,-0.1005401611328125,0.0430755615234375
1783002535238699300,4.80669921875,-1.019134521484375,-0.1015625,0.0461578369140625
1783002535248751400,4.81675146484375,-1.0079345703125,-0.105743408203125,0.035736083984375
1783002535258803500,4.826803466796875,-1.001007080078125,-0.108123779296875,0.0277862548828125
1783002535268855300,4.836855224609375,-1.0013275146484375,-0.1112060546875,0.029876708984375
1783002535278906400,4.84690625,-1.0173187255859375,-0.1162261962890625,0.0319671630859375
1783002535288958200,4.856958251953125,-1.0179443359375,-0.119903564453125,0.034912109375
1783002535299010300,4.86701025390625,-0.9975433349609375,-0.11737060546875,0.0299835205078125
1783002535309062100,4.877062255859375,-0.991668701171875,-0.119171142578125,0.0323333740234375
1783002535319114200,4.8871142578125,-0.9966278076171875,-0.117095947265625,0.032958984375
1783002535329166300,4.897166259765625,-1.010894775390625,-0.1131134033203125,0.0407867431640625
1783002535339217200,4.907217041015625,-1.0049591064453125,-0.113372802734375,0.0414276123046875
1783002535349269500,4.91726953125,-0.996337890625,-0.1171417236328125,0.033843994140625
1783002535359321300,4.9273212890625,-0.9944915771484375,-0.1149139404296875,0.0344085693359375
1783002535369373400,4.93737353515625,-0.9943389892578125,-0.112548828125,0.0401611328125
1783002535379425300,4.94742529296875,-1.000396728515625,-0.109405517578125,0.0364990234375
1783002535389477400,4.957477294921875,-1.00201416015625,-0.1076812744140625,0.0329742431640625
1783002535399528200,4.967528076171875,-0.99676513671875,-0.1057281494140625,0.0318603515625
1783002535409580300,4.977580322265625,-0.9917144775390625,-0.1084136962890625,0.0219573974609375
1783002535419632000,4.987632080078125,-0.9913330078125,-0.1096343994140625,0.0146026611328125
1783002535429684500,4.9976845703125,-0.9943389892578125,-0.1044464111328125,0.0200042724609375
1783002535439736300,5.007736328125,-1.011871337890625,-0.1036529541015625,0.0268402099609375
1783002535449788400,5.017788330078125,-1.0241241455078125,-0.107940673828125,0.0384368896484375
1783002535459839200,5.027839111328125,-1.025634765625,-0.1162261962890625,0.0338897705078125
1783002535469891300,5.037891357421875,-1.00213623046875,-0.122711181640625,0.0134124755859375
1783002535479943200,5.047943115234375,-0.9827880859375,-0.1133880615234375,0.020904541015625
1783002535489995300,5.057995361328125,-0.9973602294921875,-0.10711669921875,0.0452423095703125
1783002535500047000,5.068047119140625,-1.0217132568359375,-0.1199798583984375,0.0373382568359375
1783002535510099500,5.078099365234375,-1.028533935546875,-0.12646484375,0.017364501953125
1783002535520150300,5.088150390625,-1.00140380859375,-0.115692138671875,0.00604248046875
1783002535530202400,5.098202392578125,-0.915191650390625,-0.100067138671875,0.0446624755859375
1783002535540254500,5.10825439453125,-0.909332275390625,-0.1295013427734375,0.0776519775390625
1783002535550306300,5.118306396484375,-0.983154296875,-0.158966064453125,0.0419158935546875
1783002535560358400,5.1283583984375,-1.019287109375,-0.127471923828125,0.0036773681640625
1783002535570410200,5.13841015625,-1.0814361572265625,-0.102264404296875,0.0056610107421875
1783002535580461300,5.14846142578125,-1.0835723876953125,-0.1195831298828125,0.0056915283203125
1783002535590513200,5.15851318359375,-1.0367279052734375,-0.12640380859375,0.01495361328125
1783002535600565200,5.168565185546875,-1.0146484375,-0.11187744140625,0.019683837890625
1783002535610617300,5.178617431640625,-0.9791412353515625,-0.10333251953125,0.0268096923828125
1783002535620669400,5.18866943359375,-0.934112548828125,-0.1178131103515625,0.0563812255859375
