time,seconds_elapsed,z,y,x
1783002530513083600,0.081083740234375,0.012609997764229774,-0.017969118431210518,0.015635080635547638
1783002530523135700,0.0911357421875,0.005137167405337095,-0.022808348760008812,0.019538741558790207
1783002530533187600,0.1011875,0.00720885768532753,-0.0036240480840206146,0.023117834702134132
1783002530543239700,0.11123974609375,0.012708817608654499,0.014401556923985481,0.01390036754310131
1783002530553290500,0.12129052734375,0.01703045517206192,0.008680977858603,-0.00830963347107172
1783002530563342600,0.131342529296875,0.02220923826098442,0.00020413566380739212,-0.020395059138536453
1783002530573394400,0.14139453125,0.020179828628897667,-0.004087579436600208,-0.015404867008328438
1783002530583446500,0.151446533203125,0.012602070346474648,-0.012148967012763023,-0.014292731881141663
1783002530593498600,0.16149853515625,0.010386055335402489,-0.019841685891151428,-0.02284388244152069
1783002530603550700,0.17155078125,0.0049004764296114445,-0.008334167301654816,-0.03156759962439537
1783002530613601800,0.181601806640625,0.002865599235519767,-0.004701046273112297,-0.03147578984498978
1783002530623653600,0.191653564453125,-0.006519113667309284,-0.014389626681804657,-0.037602923810482025
1783002530633705700,0.201705810546875,-0.010969754308462143,-0.02331637032330036,-0.04385244846343994
1783002530643757600,0.211757568359375,-0.005133436527103186,-0.012830173596739769,-0.030808284878730774
1783002530653809700,0.2218095703125,-0.007355987094342709,-0.006798223592340946,-0.01323385164141655
1783002530663860500,0.231860595703125,-0.009573068469762802,-0.018446624279022217,0.0009203171357512474
1783002530673912600,0.24191259765625,-0.007632264401763678,-0.00941755622625351,0.016878342255949974
1783002530683964400,0.25196435546875,-0.0031791930086910725,0.01706491783261299,0.036567624658346176
1783002530694016800,0.262016845703125,-0.009105298668146133,0.032627105712890625,0.0476268008351326
1783002530704068600,0.272068603515625,-0.020924672484397888,0.007586732041090727,0.03356504440307617
1783002530714120700,0.28212060546875,-0.026271024718880653,-0.018859513103961945,-0.00038118381053209305
1783002530724171500,0.292171630859375,-0.02516048587858677,-0.006196448113769293,-0.021436400711536407
1783002530734223600,0.3022236328125,-0.0208413228392601,0.026803970336914062,-0.03313201665878296
1783002530744275500,0.312275390625,-0.01969882845878601,0.029244493693113327,-0.04341767728328705
1783002530754327600,0.32232763671875,-0.01437998004257679,0.007728151045739651,-0.047445498406887054
1783002530764379400,0.33237939453125,0.0007065602112561464,0.011075744405388832,-0.02809124067425728
1783002530774430500,0.342430419921875,0.010789141058921814,0.015936613082885742,0.011868398636579514
1783002530784482600,0.352482666015625,0.007445009890943766,-0.01867995224893093,0.03231455385684967
1783002530794534700,0.36253466796875,-0.0027472935616970062,-0.06819990277290344,0.03755567595362663
1783002530804586800,0.372586669921875,-0.001683626789599657,-0.07533238083124161,0.021801214665174484
1783002530814638600,0.382638671875,0.0002189534716308117,-0.052401103079319,0.0036297254264354706
1783002530824690700,0.392690673828125,-0.00195871340110898,-0.039180636405944824,-0.0221848264336586
1783002530834741500,0.402741455078125,-0.0032667950727045536,-0.0332711823284626,-0.04804413765668869
1783002530844793600,0.412793701171875,-0.00011920509859919548,-0.024566108360886574,-0.0635964646935463
1783002530854845400,0.422845458984375,0.0011156515683978796,-0.020595548674464226,-0.05319780111312866
1783002530864897500,0.4328974609375,0.004201722331345081,-0.0015097386203706264,-0.026560328900814056
1783002530874949600,0.44294970703125,0.005561285652220249,0.01041975524276495,-0.009562650695443153
1783002530885000700,0.453000732421875,0.002670690882951021,0.012584639713168144,0.0021888138726353645
1783002530895052500,0.463052490234375,0.0005445168353617191,0.008396802470088005,0.02480422705411911
1783002530905104600,0.473104736328125,0.0002497052773833275,-0.0007048167753964663,0.03744891285896301
1783002530915156500,0.483156494140625,-0.0037483414635062218,-0.004421018064022064,0.031847044825553894
1783002530925208600,0.49320849609375,-0.0023027779534459114,-0.010430973023176193,0.018785040825605392
1783002530935259600,0.503259765625,-0.001177248079329729,-0.022787831723690033,-0.0032946481369435787
1783002530945311500,0.5133115234375,0.001139701809734106,-0.02287997677922249,-0.013913470320403576
1783002530955363600,0.523363525390625,0.004752217326313257,-0.019120827317237854,-0.018946297466754913
1783002530965415400,0.53341552734375,0.014736941084265709,-0.007743535563349724,-0.00645633926615119
1783002530975467800,0.5434677734375,0.019422216340899467,0.004161374177783728,0.009618434123694897
1783002530985519600,0.55351953125,0.025978386402130127,0.00766502832993865,0.01635223627090454
1783002530995570700,0.56357080078125,0.029550272971391678,0.008787320926785469,0.01484614610671997
1783002531005622500,0.57362255859375,0.024483343586325645,-0.0029566865414381027,0.004331986419856548
1783002531015674600,0.583674560546875,0.011939275078475475,-0.024712439626455307,-0.017792945727705956
1783002531025726500,0.5937265625,-0.0013568229041993618,-0.04411783069372177,-0.03925562649965286
1783002531035778600,0.603778564453125,-0.014960265718400478,-0.042259786278009415,-0.05197601020336151
1783002531045829600,0.61382958984375,-0.022379033267498016,-0.020009074360132217,-0.04594128578901291
1783002531055884800,0.623884765625,-0.01900545135140419,0.015140543691813946,-0.035570841282606125
1783002531065937000,0.63393701171875,-0.00479109538719058,0.01136950682848692,-0.017696769908070564
1783002531075988700,0.64398876953125,-0.0006955759599804878,0.0029894523322582245,0.0157841257750988
1783002531086040800,0.654040771484375,0.014498290605843067,0.0326237753033638,0.06032576411962509
1783002531096092700,0.6640927734375,0.02314259670674801,0.05763339623808861,0.0680636540055275
1783002531106143700,0.674143798828125,0.019752658903598785,0.0649096816778183,0.04042510315775871
1783002531116195800,0.68419580078125,0.014642374590039253,0.05340002849698067,0.002165844663977623
1783002531126248000,0.694248046875,0.012044461444020271,0.032266512513160706,-0.026604019105434418
1783002531136299800,0.7042998046875,0.007750559598207474,0.006472303066402674,-0.03281993791460991
1783002531146351900,0.714351806640625,0.003724126610904932,-0.004793400876224041,-0.021251164376735687
1783002531156403000,0.72440283203125,0.0073604220524430275,-0.02025265246629715,-0.012010471895337105
1783002531166454800,0.734454833984375,0.009859798476099968,-0.030034177005290985,-0.019164521247148514
1783002531176507000,0.7445068359375,0.0038127789739519358,-0.02639038860797882,-0.03452102467417717
1783002531186558700,0.754558837890625,0.009420065209269524,-0.004216110799461603,-0.04823337122797966
1783002531196610800,0.76461083984375,0.01041677687317133,0.02778041362762451,-0.05561769753694534
1783002531206663000,0.774662841796875,0.013870097696781158,0.02765151485800743,-0.05931736156344414
1783002531216714000,0.7847138671875,0.0034329663030803204,-0.018491046503186226,-0.039482682943344116
1783002531226765800,0.794765869140625,0.002065432956442237,-0.028828904032707214,-0.0036008483730256557
1783002531236818000,0.80481787109375,-0.005358230788260698,-0.0230068638920784,0.01469841506332159
1783002531246869800,0.814869873046875,-0.00756492605432868,-0.03524062782526016,0.007472192868590355
1783002531256921900,0.824921875,-0.00870431400835514,-0.021678907796740532,-0.02241363562643528
1783002531266972700,0.83497265625,-0.0057138497941195965,-0.004232538864016533,-0.03885359317064285
1783002531277024800,0.845024658203125,-0.003121324349194765,0.036985039710998535,-0.0429077111184597
1783002531287076600,0.85507666015625,0.003924334887415171,0.042702045291662216,-0.037384048104286194
1783002531297129000,0.86512890625,0.007482255809009075,0.027672063559293747,-0.03509185463190079
1783002531307180800,0.875180908203125,0.0013202333357185125,0.006470370572060347,-0.016707785427570343
1783002531317233000,0.88523291015625,-0.00019045453518629074,-0.02121196687221527,0.0053277090191841125
1783002531327284000,0.895283935546875,0.00219760206528008,-0.0508742555975914,0.020823044702410698
1783002531337335800,0.905335693359375,0.0010960884392261505,-0.029565144330263138,0.026229143142700195
1783002531347388000,0.915387939453125,0.0050732530653476715,-0.007954656146466732,0.025340978056192398
1783002531357439700,0.925439697265625,0.0015114790294319391,-0.01831585168838501,-0.005627044476568699
1783002531367491800,0.935491943359375,0.0002826964482665062,-0.0027225110679864883,-0.0445515401661396
1783002531377542700,0.945542724609375,0.000562532339245081,0.013200627639889717,-0.060896411538124084
1783002531387594800,0.9555947265625,-0.0008201808668673038,0.025392312556505203,-0.05850142985582352
1783002531397646800,0.965646728515625,0.00576174259185791,0.03538108617067337,-0.045251984149217606
1783002531407699000,0.975698974609375,0.003577684285119176,0.01240253634750843,-0.027138229459524155
1783002531417750800,0.985750732421875,0.004857567138969898,-0.016648907214403152,-0.0035360902547836304
1783002531427803000,0.995802978515625,0.006018972024321556,-0.013875756412744522,0.02642953023314476
1783002531437853700,1.005853759765625,0.003040619660168886,0.0006172340363264084,0.03857724368572235
1783002531447905800,1.01590576171875,0.008736588060855865,-0.007365857250988483,0.018034685403108597
1783002531457957600,1.02595751953125,0.009688887745141983,-0.01642525941133499,-0.01972939260303974
1783002531468009700,1.036009765625,0.009481161832809448,-0.027017181739211082,-0.05250731110572815
1783002531478061800,1.046061767578125,0.00578116811811924,-0.03766519948840141,-0.06937310099601746
1783002531488112600,1.056112548828125,0.0026018861681222916,-0.05191870406270027,-0.10244689136743546
1783002531498165000,1.0661650390625,0.004710515029728413,-0.03986629098653793,-0.10065004229545593
1783002531508216800,1.076216796875,0.00589961651712656,-0.03503584861755371,-0.05713718384504318
1783002531518269000,1.08626904296875,0.0014552399516105652,-0.030519112944602966,0.001519358716905117
1783002531528320800,1.09632080078125,-0.004931020084768534,-0.047654688358306885,0.05263500660657883
1783002531538372900,1.106372802734375,-0.022360706701874733,-0.054462604224681854,0.06212560832500458
1783002531548423700,1.116423583984375,-0.04348276928067207,-0.02734656259417534,0.031126147136092186
1783002531558475800,1.126475830078125,-0.057579394429922104,0.06336216628551483,-0.07103584706783295
1783002531568527600,1.136527587890625,-0.06844563037157059,0.19411563873291016,-0.245647594332695
1783002531578580000,1.146580078125,-0.08004076778888702,0.2937178909778595,-0.45832231640815735
1783002531588631800,1.1566318359375,-0.09861444681882858,0.33266741037368774,-0.6031543612480164
1783002531598683000,1.166682861328125,-0.09700557589530945,0.4135780334472656,-0.6746679544448853
1783002531608734700,1.176734619140625,-0.07534528523683548,0.5021587610244751,-0.6586154699325562
1783002531618786800,1.186786865234375,-0.05464337766170502,0.497287780046463,-0.5609793663024902
1783002531628838700,1.196838623046875,-0.025092406198382378,0.3681049942970276,-0.4261392652988434
1783002531638890800,1.206890869140625,-0.006595730781555176,0.03607943654060364,-0.31470930576324463
1783002531648941800,1.21694189453125,0.0033162878826260567,-0.3031359016895294,-0.27910152077674866
1783002531658993700,1.22699365234375,0.01576252467930317,-0.3256075382232666,-0.27939119935035706
1783002531669045800,1.237045654296875,0.020081372931599617,-0.24023883044719696,-0.29048725962638855
1783002531679097900,1.247097900390625,0.06530974060297012,-0.19075924158096313,-0.2688249349594116
1783002531689150000,1.25714990234375,0.1195564717054367,-0.09899336099624634,-0.17217031121253967
1783002531699201800,1.267201904296875,0.1414434164762497,0.034631673246622086,-0.040371209383010864
1783002531709252900,1.2772529296875,0.1282024383544922,0.1209348663687706,0.08388016372919083
1783002531719304700,1.2873046875,0.10011503100395203,0.12550900876522064,0.16750751435756683
1783002531729356800,1.297356689453125,0.07115182280540466,0.07201062142848969,0.2319815754890442
1783002531739408600,1.30740869140625,0.03602848947048187,0.004688481334596872,0.27101752161979675
1783002531749460700,1.317460693359375,0.0004960605874657631,0.0016753808595240116,0.26870349049568176
1783002531759511800,1.32751171875,-0.01679586060345173,-0.02035672590136528,0.223369762301445
1783002531769564000,1.33756396484375,-0.035573810338974,-0.08379002660512924,0.16451843082904816
1783002531779616000,1.347615966796875,-0.04750768467783928,-0.11251644045114517,0.10730661451816559
1783002531789667800,1.357667724609375,-0.04431615024805069,-0.04925331473350525,0.09722787886857986
1783002531799720000,1.367719970703125,-0.03619677200913429,0.017268821597099304,0.107627272605896
1783002531809771800,1.377771728515625,-0.036519281566143036,0.06069832295179367,0.12011509388685226
1783002531819822800,1.38782275390625,-0.027941200882196426,0.06889578700065613,0.12224149703979492
1783002531829874700,1.397874755859375,-0.0239909365773201,0.05574297159910202,0.09463144838809967
1783002531839926800,1.4079267578125,-0.0228315070271492,0.04756322503089905,0.0646214485168457
1783002531849978600,1.417978515625,-0.0201217420399189,0.02656686305999756,0.03549818694591522
1783002531860031000,1.428031005859375,-0.02165885828435421,-0.005796503741294146,0.01859215833246708
1783002531870081800,1.438081787109375,-0.026875458657741547,-0.03642525151371956,-0.009907660074532032
1783002531880134000,1.4481337890625,-0.030915547162294388,-0.06457285583019257,-0.03034907765686512
1783002531890185700,1.458185791015625,-0.03111555054783821,-0.05501237139105797,-0.02788751758635044
1783002531900237800,1.46823779296875,-0.031015226617455482,-0.027901869267225266,-0.02825028821825981
1783002531910289700,1.47828955078125,-0.02859894372522831,-0.010301303118467331,-0.03378806263208389
1783002531920341800,1.488341796875,-0.01240946352481842,0.015399246476590633,-0.02455330826342106
1783002531930392800,1.498392822265625,-0.0008622626774013042,0.03952029347419739,-0.00964306853711605
1783002531940444700,1.508444580078125,0.0014989417977631092,0.045557983219623566,0.010699396021664143
1783002531950497000,1.5184970703125,0.010116398334503174,0.0407661572098732,0.03576507046818733
1783002531960548900,1.528548828125,0.009476359002292156,-0.000840883469209075,0.041806936264038086
1783002531970601000,1.53860107421875,0.0024112588725984097,-0.029767606407403946,0.017898673191666603
1783002531980651800,1.54865185546875,-0.004963952582329512,-0.02446088194847107,-0.016384966671466827
1783002531990703900,1.558703857421875,-0.00906229019165039,-0.015840761363506317,-0.0478142611682415
1783002532000755700,1.568755615234375,-0.007229956332594156,-0.005262477323412895,-0.06854479014873505
1783002532010807800,1.578807861328125,-0.019256524741649628,0.005614671390503645,-0.06494340300559998
1783002532020859600,1.588859619140625,-0.026502782478928566,-0.005020651966333389,-0.04379654675722122
1783002532030912000,1.598912109375,-0.02629798650741577,-0.015426420606672764,-0.014871688559651375
1783002532040962800,1.608962890625,-0.020088810473680496,-0.017617274075746536,0.013986913487315178
1783002532051014700,1.6190146484375,-0.020343942567706108,-0.03636299818754196,0.03410789370536804
1783002532061066800,1.629066650390625,-0.016770290210843086,-0.04500037431716919,0.034520767629146576
1783002532071118600,1.63911865234375,-0.009378155693411827,-0.03335623815655708,0.013595246709883213
1783002532081170700,1.649170654296875,-0.015083430334925652,-0.018213726580142975,-0.029643774032592773
1783002532091222800,1.659222900390625,-0.018779896199703217,-0.008431137539446354,-0.06729874014854431
1783002532101273900,1.66927392578125,-0.024725059047341347,-0.0003998118918389082,-0.09599027037620544
1783002532111325700,1.67932568359375,-0.030977362766861916,-0.008265458047389984,-0.09828004986047745
1783002532121377800,1.689377685546875,-0.035867784172296524,-0.014266395941376686,-0.08015769720077515
1783002532131429600,1.6994296875,-0.030096182599663734,0.0014606360346078873,-0.04293815791606903
1783002532141481700,1.709481689453125,-0.019701184704899788,0.00822171289473772,-0.013513123616576195
1783002532151532500,1.719532470703125,-0.020748073235154152,-0.040163397789001465,0.004654161632061005
1783002532161584600,1.729584716796875,-0.015400204807519913,-0.05585544928908348,0.010286892764270306
1783002532171636500,1.739636474609375,-0.01442255824804306,-0.028432875871658325,-0.001383612398058176
1783002532181688800,1.749688720703125,-0.010282465256750584,-0.023888761177659035,-0.0276966355741024
1783002532191740700,1.75974072265625,-0.011009241454303265,-0.022548925131559372,-0.04623037204146385
1783002532201792800,1.769792724609375,-0.016860181465744972,-0.02938370779156685,-0.05622728168964386
1783002532211843800,1.77984375,-0.025492817163467407,-0.03356487303972244,-0.07460122555494308
1783002532221895700,1.789895751953125,-0.022506460547447205,-0.02072739601135254,-0.0790768414735794
1783002532231947800,1.79994775390625,-0.02290407009422779,-0.002999532036483288,-0.07696788758039474
1783002532241999600,1.80999951171875,-0.030237989500164986,-0.004061715677380562,-0.07918433845043182
1783002532252051700,1.8200517578125,-0.030599115416407585,-0.038016751408576965,-0.08231088519096375
1783002532262102500,1.8301025390625,-0.03682904690504074,-0.04466160386800766,-0.07910577952861786
1783002532272154600,1.840154541015625,-0.0265982486307621,-0.0333719328045845,-0.06417076289653778
1783002532282206700,1.850206787109375,-0.019738493487238884,-0.03762797266244888,-0.04864034056663513
1783002532292258800,1.8602587890625,-0.023492751643061638,-0.0465192049741745,-0.0316469743847847
1783002532302310700,1.870310546875,-0.02534424513578415,-0.037990864366292953,-0.020873675122857094
1783002532312362800,1.88036279296875,-0.019967323169112206,-0.018499985337257385,-0.017984146252274513
1783002532322413600,1.89041357421875,-0.01498136855661869,-0.008906078524887562,-0.024556351825594902
1783002532332465700,1.900465576171875,-0.01683998852968216,-0.0009565427899360657,-0.029092779383063316
1783002532342517500,1.910517578125,-0.01541291456669569,0.020501939579844475,-0.03478200361132622
1783002532352569600,1.920569580078125,-0.02475554868578911,0.030245380476117134,-0.0424489788711071
1783002532362621700,1.93062158203125,-0.015804413706064224,0.02590145729482174,-0.04471858590841293
1783002532372672800,1.9406728515625,-0.005516889970749617,0.016360150650143623,-0.02074827440083027
1783002532382724900,1.950724853515625,0.0009356669615954161,0.028009306639432907,0.020210547372698784
1783002532392776700,1.960776611328125,-0.0035514933988451958,0.033784639090299606,0.041288670152425766
1783002532402828800,1.970828857421875,-0.005974269472062588,0.009872663766145706,0.031139519065618515
1783002532412880600,1.980880615234375,-0.007436878047883511,-0.013973014429211617,0.0018753716722130775
1783002532422932700,1.9909326171875,-0.013363638892769814,-0.03577748313546181,-0.012455781921744347
1783002532432983600,2.000983642578125,-0.012629671022295952,-0.013245543465018272,-0.027896257117390633
1783002532443035600,2.01103564453125,-0.013941938057541847,0.015486701391637325,-0.05596887320280075
1783002532453087500,2.02108740234375,-0.007347151171416044,0.022197868674993515,-0.07372710108757019
1783002532463139800,2.031139892578125,-0.0011490555480122566,0.028596267104148865,-0.05976124852895737
1783002532473191700,2.041191650390625,0.0005021044053137302,0.02911185473203659,-0.027363361790776253
1783002532483243800,2.051243896484375,0.0037421060260385275,0.02735922858119011,0.011915067210793495
1783002532493294600,2.061294677734375,0.01035233773291111,0.023349042981863022,0.03716209903359413
1783002532503346700,2.0713466796875,0.016970831900835037,0.01781490445137024,0.04163355380296707
1783002532513398500,2.0813984375,0.019476333633065224,0.007396884728223085,0.028128929436206818
1783002532523450600,2.09145068359375,0.018313059583306313,0.0013569239526987076,0.014453060925006866
1783002532533502500,2.10150244140625,0.011560614220798016,0.01562827080488205,0.004749033600091934
1783002532543553500,2.111553466796875,0.013482166454195976,0.045970939099788666,-0.01892508938908577
1783002532553606000,2.12160595703125,0.01933792419731617,0.06379067897796631,-0.04685472697019577
1783002532563657700,2.13165771484375,0.022128188982605934,0.04558587819337845,-0.06296627223491669
1783002532573709800,2.141709716796875,0.021706609055399895,0.005586263723671436,-0.03236442059278488
1783002532583761700,2.15176171875,0.013711400330066681,-0.0034191468730568886,0.018273159861564636
1783002532593813800,2.161813720703125,0.0173649899661541,0.0027484679594635963,0.06181718036532402
1783002532603864600,2.171864501953125,0.026554107666015625,0.011223288252949715,0.08079942315816879
1783002532613916700,2.181916748046875,0.031059643253684044,0.02828855998814106,0.08230117708444595
1783002532623968500,2.191968505859375,0.037588272243738174,0.041510507464408875,0.06707225739955902
1783002532634020600,2.2020205078125,0.03795179724693298,0.034344740211963654,0.039244621992111206
1783002532644072700,2.21207275390625,0.03434903174638748,0.031056540086865425,-0.00007628556340932846
1783002532654124800,2.222124755859375,0.030524201691150665,0.03516925871372223,-0.047325022518634796
1783002532664175900,2.23217578125,0.04288627952337265,0.0185581985861063,-0.08389520645141602
1783002532674227700,2.242227783203125,0.03163229301571846,0.0005749366246163845,-0.0792117714881897
1783002532684279800,2.25227978515625,0.04560059309005737,-0.005236838012933731,-0.05890271067619324
1783002532694331600,2.26233154296875,0.047535642981529236,0.007808656431734562,-0.03336193040013313
1783002532704383500,2.272383544921875,0.04299013316631317,0.010435426607728004,0.004270012490451336
1783002532714434600,2.2824345703125,0.04692096263170242,0.00511309877038002,0.02988908812403679
1783002532724486700,2.292486572265625,0.03962292894721031,-0.011160428635776043,0.03757055848836899
1783002532734538800,2.302538818359375,0.030602537095546722,-0.00011044088751077652,0.04498346522450447
1783002532744590800,2.3125908203125,0.016893859952688217,-0.004125459119677544,0.03259291499853134
1783002532754642700,2.322642578125,0.012311359867453575,0.004465365782380104,0.012989919632673264
1783002532764694800,2.33269482421875,0.01217350922524929,0.022488689050078392,-0.015557930804789066
1783002532774745600,2.34274560546875,0.01258816197514534,0.03529663011431694,-0.028989849612116814
1783002532784797700,2.352797607421875,0.010098135098814964,0.04384532943367958,-0.010015294887125492
1783002532794849500,2.362849609375,0.010772980749607086,0.024206914007663727,0.01830183155834675
1783002532804901600,2.372901611328125,0.013058658689260483,-0.01038278080523014,0.033375147730112076
1783002532814953500,2.382953369140625,0.0045815506018698215,-0.027556441724300385,0.03955261781811714
1783002532825005800,2.393005859375,-0.00045496877282857895,-0.023183539509773254,0.020372778177261353
1783002532835057000,2.403056884765625,-0.001975367311388254,-0.014458758756518364,-0.018074477091431618
1783002532845108700,2.413108642578125,-0.0017935577780008316,-0.011934024281799793,-0.04881246015429497
1783002532855160800,2.423160888671875,-0.005350209306925535,-0.010414425283670425,-0.06737975776195526
1783002532865212700,2.433212646484375,-0.0013297866098582745,-0.013494742102921009,-0.05763247609138489
1783002532875264800,2.4432646484375,-0.0061477115377783775,-0.00973489135503769,-0.026574157178401947
1783002532885315600,2.453315673828125,-0.013418404385447502,0.017131740227341652,-0.003077559173107147
1783002532895367700,2.46336767578125,-0.0015385751612484455,0.0013991170562803745,0.014407690614461899
1783002532905419500,2.47341943359375,0.004117196425795555,-0.012001069262623787,0.03675993159413338
1783002532915472000,2.483471923828125,-0.0024197986349463463,-0.015058377757668495,0.046008288860321045
1783002532925523700,2.493523681640625,-0.0055101471953094006,-0.017944220453500748,0.03938627988100052
1783002532935575800,2.503575927734375,-0.007453189697116613,-0.013736160472035408,0.012328827753663063
1783002532945626600,2.513626708984375,-0.008352808654308319,-0.020003773272037506,-0.015600070357322693
1783002532955678700,2.5236787109375,-0.010509702377021313,-0.004424814134836197,-0.039084091782569885
1783002532965730600,2.53373046875,-0.012801432982087135,0.0022644358687102795,-0.061732664704322815
1783002532975782700,2.54378271484375,-0.011792095378041267,-0.01017598807811737,-0.05471336841583252
1783002532985834500,2.55383447265625,-0.007692328654229641,-0.006319877691566944,-0.011855868622660637
1783002532995886600,2.563886474609375,-0.0035191550850868225,-0.002791722072288394,0.03962303325533867
1783002533005937700,2.573937744140625,-0.00036883819848299026,-0.01518058031797409,0.07132875174283981
1783002533015989800,2.58398974609375,0.003217108082026243,-0.033433884382247925,0.06901286542415619
1783002533026041900,2.594041748046875,0.0011895671486854553,-0.049333035945892334,0.03520724177360535
1783002533036093700,2.60409375,0.00043509341776371,-0.04637160152196884,-0.004571858793497086
1783002533046145800,2.614145751953125,0.00014433590695261955,-0.042799290269613266,-0.035973794758319855
1783002533056194000,2.624194091796875,-0.0028392034582793713,-0.030523180961608887,-0.050287485122680664
1783002533066245000,2.6342451171875,-0.00258230185136199,-0.020473510026931763,-0.04443417862057686
1783002533076297200,2.644297119140625,0.0006931198295205832,-0.0073494501411914825,-0.02693774551153183
1783002533086349300,2.654349365234375,0.0016372718382626772,0.0006027799099683762,-0.005920027382671833
1783002533096401200,2.664401123046875,-0.001869578380137682,-0.002219637855887413,0.014939980581402779
1783002533106453200,2.674453369140625,0.004443683661520481,-0.011787258088588715,0.038171879947185516
1783002533116505000,2.684505126953125,0.007598464377224445,-0.02631719969213009,0.05080058425664902
1783002533126556200,2.69455615234375,-0.001154247671365738,-0.03773355484008789,0.04476945102214813
1783002533136608000,2.70460791015625,-0.005146326497197151,-0.04404604434967041,0.02194616012275219
1783002533146660000,2.71466015625,-0.00448438199236989,-0.039204444736242294,-0.0034302081912755966
1783002533156712200,2.724712158203125,0.0014411511365324259,-0.034159883856773376,-0.028944090008735657
1783002533166764300,2.734764404296875,-0.0002477928064763546,-0.03618206828832626,-0.05091350898146629
1783002533176815400,2.7448154296875,-0.002569803036749363,-0.021883025765419006,-0.06804562360048294
1783002533186867200,2.7548671875,-0.005445284303277731,0.011892477981746197,-0.05738917365670204
1783002533196919300,2.764919189453125,0.0025300842244178057,0.024385634809732437,-0.029355939477682114
1783002533206971100,2.77497119140625,0.006524943746626377,-0.004457174334675074,0.009253941476345062
1783002533217023200,2.785023193359375,0.006657036952674389,-0.03816214203834534,0.03914686292409897
1783002533227075000,2.795074951171875,0.0021843742579221725,-0.027599485591053963,0.06088455393910408
1783002533237126100,2.805126220703125,0.003619551658630371,-0.0222846157848835,0.06491497904062271
1783002533247178000,2.815177978515625,0.011381278745830059,-0.012439429759979248,0.050660960376262665
1783002533257230300,2.825230224609375,0.01569932885468006,0.010509295389056206,0.01821194216609001
1783002533267282200,2.8352822265625,0.016601404175162315,0.022586897015571594,-0.020014021545648575
1783002533277334300,2.845334228515625,0.01278163306415081,0.015155346132814884,-0.055097974836826324
1783002533287386000,2.85538623046875,0.0026320908218622208,-0.03414607420563698,-0.07675707340240479
1783002533297437200,2.865437255859375,-0.004635676275938749,-0.040497444570064545,-0.06814546883106232
1783002533307489300,2.8754892578125,-0.0038688769564032555,-0.029757153242826462,-0.059858206659555435
1783002533317541000,2.885541015625,-0.0018065250478684902,-0.043436747044324875,-0.049449771642684937
1783002533327593200,2.89559326171875,-0.0018104836344718933,-0.04697320982813835,-0.014603188261389732
1783002533337645300,2.905645263671875,0.0008220509625971317,-0.015689589083194733,0.03860357403755188
1783002533347697200,2.915697265625,0.0032760011963546276,-0.006755857728421688,0.05994345247745514
1783002533357748200,2.925748291015625,0.012979760766029358,-0.016514211893081665,0.04460364580154419
1783002533367800300,2.93580029296875,0.01733427867293358,0.0029798182658851147,0.01442144624888897
1783002533377852200,2.94585205078125,0.015642106533050537,0.024594565853476524,-0.015223264694213867
1783002533387904300,2.955904296875,0.01559295505285263,0.03273255005478859,-0.022456834092736244
1783002533397956000,2.9659560546875,0.02166043408215046,0.04339051991701126,-0.017711080610752106
1783002533408007200,2.976007080078125,0.018045594915747643,0.03959917649626732,0.0038214074447751045
1783002533418059000,2.98605908203125,0.022098127752542496,0.0007178229279816151,0.030196290463209152
1783002533428111000,2.996111083984375,0.015920575708150864,-0.021777309477329254,0.058802321553230286
1783002533438163200,3.0061630859375,0.011382017284631729,-0.01604325696825981,0.0690150111913681
1783002533448215300,3.01621533203125,0.010169977322220802,-0.01987176574766636,0.05081611126661301
1783002533458267100,3.02626708984375,0.011279982514679432,-0.015768632292747498,0.0370507650077343
1783002533468318200,3.036318115234375,0.012195179238915443,0.00506547512486577,0.026219187304377556
1783002533478370300,3.046370361328125,0.016108429059386253,0.026817908510565758,0.029543345794081688
1783002533488422100,3.056422119140625,0.01577865704894066,0.027040783315896988,0.03670240938663483
1783002533498474200,3.06647412109375,0.017613044008612633,0.007864424958825111,0.04779660701751709
1783002533508526000,3.076526123046875,0.016602445393800735,-0.004710189998149872,0.06583557277917862
1783002533518578200,3.086578125,0.012124073691666126,-0.017469927668571472,0.0698942244052887
1783002533528629000,3.09662890625,0.0046567367389798164,-0.02643650956451893,0.05756368488073349
1783002533538681300,3.106681396484375,-0.002174005378037691,-0.01416519470512867,0.03979454189538956
1783002533548733200,3.116733154296875,-0.004429420456290245,0.0017360486090183258,0.005644355900585651
1783002533558785300,3.126785400390625,-0.001771851908415556,0.011724235489964485,-0.022181682288646698
1783002533568837000,3.136837158203125,0.005478270817548037,0.03673674166202545,-0.03324070945382118
1783002533578889200,3.14688916015625,0.005198638886213303,0.013652462512254715,-0.03870977461338043
1783002533588940000,3.15693994140625,0.0009020064026117325,-0.0011929012835025787,-0.021770095452666283
1783002533598992100,3.1669921875,0.001970732817426324,-0.004065120592713356,-0.0004325825721025467
1783002533609044000,3.1770439453125,0.0005740257911384106,-0.020228486508131027,-0.0015929555520415306
1783002533619096300,3.187096435546875,-0.000833454541862011,-0.015366620384156704,-0.012863187119364738
1783002533629148200,3.197148193359375,-0.0034403111785650253,-0.005987212061882019,-0.017436334863305092
1783002533639200300,3.2072001953125,-0.007122930139303207,-0.0019261576235294342,-0.018654998391866684
1783002533649251300,3.217251220703125,-0.008357271552085876,0.006110019516199827,-0.01874474436044693
1783002533659303200,3.22730322265625,-0.008647557348012924,0.008111119270324707,-0.013404840603470802
1783002533669355300,3.237355224609375,-0.0008895020000636578,-0.005371667444705963,-0.009626347571611404
1783002533679407000,3.247406982421875,0.003515366232022643,-0.012741966173052788,-0.01188790425658226
1783002533689459200,3.257459228515625,-0.001510912086814642,-0.02056725323200226,-0.009244500659406185
1783002533699511300,3.26751123046875,0.0019317560363560915,-0.016863327473402023,-0.0062436508014798164
1783002533709562000,3.27756201171875,0.002193477936089039,-0.020675674080848694,-0.013598548248410225
1783002533719614200,3.2876142578125,-0.002161589451134205,-0.02107647806406021,-0.025807011872529984
1783002533729666300,3.297666259765625,-0.0020382036454975605,-0.007346076890826225,-0.04016859456896782
1783002533739718100,3.30771826171875,-0.0018893326632678509,-0.002038929844275117,-0.03678105026483536
1783002533749770200,3.317770263671875,-0.006753412075340748,-0.0005464369896799326,-0.024956131353974342
1783002533759822000,3.327822021484375,-0.009169697761535645,-0.008953237906098366,-0.012551393359899521
1783002533769873200,3.337873046875,-0.018457455560564995,-0.01759755052626133,-0.00638744467869401
1783002533779925000,3.347925048828125,-0.01903802528977394,-0.01772032305598259,-0.011710571125149727
1783002533789977000,3.35797705078125,-0.01848718523979187,-0.010042710229754448,-0.02686651051044464
1783002533800029200,3.368029296875,-0.01675400137901306,0.004907210357487202,-0.032305218279361725
1783002533810081300,3.378081298828125,-0.017177239060401917,0.01764804869890213,-0.02578631043434143
1783002533820132400,3.38813232421875,-0.012926033698022366,0.03474767506122589,-0.003602446522563696
1783002533830184200,3.39818408203125,-0.01245893631130457,0.04119283705949783,0.025993727147579193
1783002533840236300,3.408236328125,-0.011670374311506748,0.017848365008831024,0.051952626556158066
1783002533850288000,3.4182880859375,-0.016919929534196854,-0.011914689093828201,0.0552956722676754
1783002533860340200,3.42834033203125,-0.024513933807611465,-0.023142842575907707,0.03777154162526131
1783002533870392000,3.43839208984375,-0.03991248831152916,-0.02670825645327568,-0.018194347620010376
1783002533880444400,3.4484443359375,-0.04751794412732124,-0.02350500598549843,-0.08391343802213669
1783002533890495000,3.458494873046875,-0.05161789059638977,-0.018369808793067932,-0.12494929134845734
1783002533900547300,3.46854736328125,-0.06348466128110886,0.0013202717527747154,-0.139788419008255
1783002533910599200,3.47859912109375,-0.0540538989007473,0.009971242398023605,-0.1338443160057068
1783002533920651300,3.4886513671875,-0.03149931877851486,0.009805060923099518,-0.106304831802845
1783002533930703000,3.498703125,-0.01767941191792488,0.014659919776022434,-0.024218875914812088
1783002533940754200,3.508754150390625,-0.006505054421722889,0.01529961172491312,0.07372845709323883
1783002533950806000,3.518805908203125,0.0008844186086207628,-0.014386378228664398,0.13437077403068542
1783002533960858000,3.528858154296875,0.0006268909201025963,-0.03492068126797676,0.13720117509365082
1783002533970910000,3.538909912109375,0.0027942706365138292,-0.024110393598675728,0.11029723286628723
1783002533980962300,3.54896240234375,0.004017460625618696,-0.009508814662694931,0.0619741789996624
1783002533991014100,3.55901416015625,0.0017372621223330498,-0.0018085509072989225,-0.00475957989692688
1783002534001065200,3.569065185546875,0.004391901195049286,0.006664828397333622,-0.05959859490394592
1783002534011117300,3.579117431640625,-0.0011219237931072712,-0.004228606820106506,-0.090582937002182
1783002534021169200,3.589169189453125,-0.0021203430369496346,-0.022812411189079285,-0.07997370511293411
1783002534031221200,3.59922119140625,0.0005248175002634525,-0.03454947471618652,-0.038019295781850815
1783002534041273000,3.609273193359375,-0.007388765923678875,-0.05096440017223358,0.01258609164506197
1783002534051326200,3.619326171875,-0.010393541306257248,-0.05759043991565704,0.06295976787805557
1783002534061377300,3.629377197265625,-0.010134682059288025,-0.04076299071311951,0.08426479250192642
1783002534071429400,3.639429443359375,-0.0021892539225518703,-0.0073291584849357605,0.08388952165842056
1783002534081481200,3.649481201171875,0.006276136264204979,0.0032670265063643456,0.05792076885700226
1783002534091533300,3.659533203125,0.003161020576953888,-0.004044060129672289,0.009886927902698517
1783002534101585200,3.669585205078125,0.0024307817220687866,0.015599681064486504,-0.030557699501514435
1783002534111637000,3.679636962890625,0.015944527462124825,0.04245623201131821,-0.0646515041589737
1783002534121688000,3.68968798828125,0.031719762831926346,0.020040670409798622,-0.06469064950942993
1783002534131740200,3.699740234375,0.028490163385868073,0.021359775215387344,-0.04243987798690796
1783002534141792300,3.709792236328125,0.03691214695572853,0.007812807336449623,-0.037476811558008194
1783002534151844400,3.71984423828125,0.044201068580150604,-0.02656937576830387,-0.04696708172559738
1783002534161896200,3.729896240234375,0.03371034190058708,-0.05385532230138779,-0.05899125337600708
1783002534171948300,3.7399482421875,0.021055251359939575,-0.056780315935611725,-0.08475979417562485
1783002534181999000,3.7499990234375,0.014611199498176575,-0.041555557399988174,-0.09778398275375366
1783002534192051200,3.76005126953125,0.012282997369766235,-0.020183056592941284,-0.10153849422931671
1783002534202103000,3.77010302734375,0.009868575260043144,0.0032325205393135548,-0.08561891317367554
1783002534212155100,3.780155029296875,0.006872090511023998,0.02754746936261654,-0.058135855942964554
1783002534222207000,3.79020703125,0.005594039335846901,0.033286578953266144,-0.02134428545832634
1783002534232259300,3.80025927734375,0.006617004983127117,0.026094933971762657,-0.004106651060283184
1783002534242310400,3.810310302734375,0.006934985984116793,0.01984795555472374,-0.009662005119025707
1783002534252362200,3.8203623046875,0.019974371418356895,0.017711877822875977,-0.014981873333454132
1783002534262414300,3.830414306640625,0.019901402294635773,0.015642333775758743,-0.024890698492527008
1783002534272466200,3.840466064453125,0.020109644159674644,0.022709522396326065,-0.03094625473022461
1783002534282518300,3.850518310546875,0.02194189839065075,0.029650520533323288,-0.028145408257842064
1783002534292570000,3.860570068359375,0.025268953293561935,0.013806759379804134,-0.02001490443944931
1783002534302621200,3.87062109375,0.029068484902381897,-0.006056427955627441,-0.002351753879338503
1783002534312673000,3.880673095703125,0.027703365311026573,-0.022440418601036072,0.02209905907511711
1783002534322725400,3.890725341796875,0.02425643615424633,-0.030051201581954956,0.0421779602766037
1783002534332777200,3.900777099609375,0.025030534714460373,-0.023368604481220245,0.05574106425046921
1783002534342829300,3.910829345703125,0.02652350254356861,-0.006123838014900684,0.05010262131690979
1783002534352881200,3.920881103515625,0.019523663446307182,0.009622540324926376,0.025963587686419487
1783002534362932200,3.93093212890625,0.014233560301363468,0.025692854076623917,-0.008351510390639305
1783002534372984000,3.940984130859375,0.013160325586795807,0.03349263221025467,-0.04022528976202011
1783002534383036200,3.9510361328125,0.008626560680568218,0.0283117163926363,-0.05864078179001808
1783002534393088000,3.961087890625,0.008271828293800354,0.00960354320704937,-0.055776018649339676
1783002534403140000,3.97114013671875,0.008191400207579136,-0.015263190492987633,-0.035546381026506424
1783002534413192200,3.981192138671875,0.004356046207249165,-0.0241684652864933,-0.007217566482722759
1783002534423243300,3.9912431640625,-0.001083726529031992,-0.017586730420589447,0.01849951595067978
1783002534433295400,4.00129541015625,0.004348172340542078,-0.02231754921376705,0.025414178147912025
1783002534443347200,4.01134716796875,0.006194275803864002,-0.007661108393222094,0.015137303620576859
1783002534453399300,4.0213994140625,0.012590007856488228,0.005733239930123091,-0.00030666403472423553
1783002534463451100,4.031451171875,0.019127268344163895,0.028936298564076424,-0.018228406086564064
1783002534473503200,4.041503173828125,0.02020109072327614,0.027263781055808067,-0.02478492259979248
1783002534483554000,4.051553955078125,0.012150621972978115,0.0059270658530294895,-0.00471347663551569
1783002534493606100,4.061606201171875,0.01158982701599598,-0.017169831320643425,0.02549288049340248
1783002534503658200,4.071658203125,0.0016953842714428902,-0.03717363253235817,0.0352507047355175
1783002534513710300,4.08171044921875,-0.002609685994684696,-0.041784659028053284,0.02524036541581154
1783002534523762200,4.09176220703125,-0.001245348248630762,-0.02835460752248764,-0.004091688897460699
1783002534533814300,4.101814208984375,0.006670001894235611,-0.016869312152266502,-0.028800545260310173
1783002534543865000,4.111864990234375,0.005003661848604679,-0.007940264418721199,-0.03733917325735092
1783002534553917200,4.121917236328125,-0.0015449565835297108,-0.018297716975212097,-0.031820930540561676
1783002534563969000,4.131968994140625,-0.01048918254673481,-0.04129650816321373,-0.01289011538028717
1783002534574021000,4.142021240234375,-0.022829987108707428,-0.07730452716350555,0.015768099576234818
1783002534584073000,4.152072998046875,-0.038692306727170944,-0.10384932160377502,0.03829364851117134
1783002534594125300,4.162125244140625,-0.046637482941150665,-0.08013361692428589,0.03969058766961098
1783002534604176400,4.17217626953125,-0.03637978434562683,-0.019582394510507584,0.02386581525206566
1783002534614228200,4.182228271484375,-0.032853905111551285,0.009092284366488457,-0.005288639105856419
1783002534624280300,4.1922802734375,-0.016855232417583466,0.010000955313444138,-0.023943815380334854
1783002534634332200,4.202332275390625,-0.02194415219128132,-0.0005331577267497778,-0.017060313373804092
1783002534644384300,4.21238427734375,-0.016387999057769775,-0.014847115613520145,0.0045048994943499565
1783002534654436000,4.22243603515625,-0.017528869211673737,-0.04659030959010124,0.01835573837161064
1783002534664488200,4.23248828125,-0.021474340930581093,-0.06633951514959335,0.027945246547460556
1783002534674539000,4.2425390625,-0.023307571187615395,-0.08442297577857971,0.043105460703372955
1783002534684591400,4.25259130859375,-0.023472420871257782,-0.0895567461848259,0.08177030086517334
1783002534694643200,4.262643310546875,-0.039947833865880966,-0.11456204950809479,0.13864517211914062
1783002534704695300,4.2726953125,-0.06138947606086731,-0.16487768292427063,0.17700932919979095
1783002534714747100,4.2827470703125,-0.06836932897567749,-0.1455027163028717,0.15096329152584076
1783002534724798200,4.292798095703125,-0.0775308758020401,-0.06638125330209732,0.059807006269693375
1783002534734850000,4.30285009765625,-0.07769466191530228,-0.049533870071172714,-0.057810891419649124
1783002534744902100,4.312902099609375,-0.08506736159324646,-0.060965485870838165,-0.12986378371715546
1783002534754954000,4.3229541015625,-0.10241715610027313,-0.03794507309794426,-0.12461354583501816
1783002534765006000,4.333006103515625,-0.11102236062288284,-0.023121118545532227,-0.06995295733213425
1783002534775058200,4.34305810546875,-0.10515899211168289,-0.029037127271294594,-0.009753366932272911
1783002534785109200,4.353109130859375,-0.09863105416297913,-0.041331611573696136,0.03436269611120224
1783002534795161300,4.363161376953125,-0.0715516209602356,-0.052158452570438385,0.06693138182163239
1783002534805213200,4.373213134765625,-0.03813081234693527,-0.050349898636341095,0.07837791740894318
1783002534815265300,4.383265380859375,-0.030161116272211075,-0.058718688786029816,0.07022880017757416
1783002534825317000,4.393317138671875,-0.032624274492263794,-0.05520704388618469,0.049882251769304276
1783002534835369200,4.403369140625,-0.01410738006234169,-0.0563821978867054,0.02829042077064514
1783002534845421000,4.413421142578125,0.00008859951049089432,-0.03845486417412758,0.010455497540533543
1783002534855472000,4.42347216796875,-0.005635520443320274,-0.014190463349223137,0.0013776915147900581
1783002534865524200,4.433524169921875,-0.01596006378531456,0.013197749853134155,-0.005745199508965015
1783002534875576300,4.443576416015625,-0.010406719520688057,0.03868396207690239,-0.02721676416695118
1783002534885628200,4.453628173828125,0.01412791758775711,0.046232160180807114,-0.03437906876206398
1783002534895680300,4.46368017578125,0.02848976105451584,0.04634362459182739,-0.008678155019879341
1783002534905732000,4.473732177734375,0.04123698174953461,0.003433704376220703,0.02461189031600952
1783002534915783200,4.483783203125,0.03656087443232536,-0.015712225809693336,0.049473002552986145
1783002534925835000,4.4938349609375,0.03751242160797119,-0.0322595089673996,0.057479262351989746
1783002534935887000,4.50388720703125,0.038478199392557144,-0.03430399298667908,0.04926517978310585
1783002534945939000,4.51393896484375,0.03699402138590813,-0.03990728408098221,0.03662927821278572
1783002534955991300,4.5239912109375,0.022972410544753075,-0.030378129333257675,0.00989408791065216
1783002534966043100,4.534043212890625,0.01485509518533945,-0.020907927304506302,-0.02476961724460125
1783002534976094200,4.54409423828125,0.0068732984364032745,-0.010319413617253304,-0.06838838756084442
1783002534986146300,4.554146240234375,-0.01078292727470398,0.012375778518617153,-0.09727223217487335
1783002534996198100,4.5641982421875,-0.0237785205245018,0.037097349762916565,-0.10532885789871216
1783002535006250200,4.574250244140625,-0.021020283922553062,0.024753600358963013,-0.08799860626459122
1783002535016302000,4.584302001953125,-0.014181200414896011,0.006677335128188133,-0.048950761556625366
1783002535026354200,4.594354248046875,-0.01959008164703846,0.0273573137819767,0.005289309658110142
1783002535036405000,4.604405029296875,-0.010355072095990181,0.04551625996828079,0.04776527360081673
1783002535046457300,4.614457275390625,0.002327434252947569,0.03162707760930061,0.05922618880867958
1783002535056508400,4.62450830078125,0.012576976791024208,0.016847314313054085,0.04696643352508545
1783002535066560300,4.634560302734375,0.013223061338067055,0.022789359092712402,0.026278464123606682
1783002535076612400,4.6446123046875,0.010080596432089806,0.017686378210783005,-0.005739937070757151
1783002535086664200,4.654664306640625,0.006703442428261042,0.020465120673179626,-0.03365732356905937
1783002535096715300,4.66471533203125,-0.0028769969940185547,0.05324547737836838,-0.04131145030260086
1783002535106767400,4.674767333984375,-0.02053189091384411,0.06658098846673965,-0.05104317143559456
1783002535116819500,4.6848193359375,-0.03416970372200012,0.04883893206715584,-0.06282219290733337
1783002535126871300,4.694871337890625,-0.04017593339085579,0.019686635583639145,-0.04786907881498337
1783002535136923400,4.70492333984375,-0.04429437965154648,0.0018918593414127827,-0.011260700412094593
1783002535146975200,4.714975341796875,-0.046854741871356964,-0.003925282973796129,0.03506419062614441
1783002535157026300,4.7250263671875,-0.03358590602874756,0.007270796690136194,0.06098616123199463
1783002535167078100,4.735078125,-0.016943281516432762,0.026094285771250725,0.06252839416265488
1783002535177130200,4.745130126953125,-0.001104581169784069,0.040721505880355835,0.04070070758461952
1783002535187182000,4.75518212890625,0.011333978734910488,0.05288895592093468,0.02274034544825554
1783002535197234400,4.765234375,0.006669419817626476,0.06291394680738449,-0.003524201922118664
1783002535207286300,4.775286376953125,0.00846492312848568,0.056922100484371185,-0.027032457292079926
1783002535217337300,4.78533740234375,0.007653051521629095,0.02604680508375168,-0.03728846088051796
1783002535227389400,4.795389404296875,-0.004325047601014376,-0.012435074895620346,-0.03486471623182297
1783002535237441300,4.805441162109375,-0.012730441987514496,-0.02572900615632534,-0.0016123037785291672
1783002535247493400,4.815493408203125,-0.0062485747039318085,-0.007423502393066883,0.04833181947469711
1783002535257545200,4.825545166015625,-0.003372794948518276,0.013455932028591633,0.07808263599872589
1783002535267597300,4.835597412109375,-0.003732854500412941,0.03962761163711548,0.09623074531555176
1783002535277648100,4.845648193359375,0.0017523537389934063,0.0168452225625515,0.0794001966714859
1783002535287700500,4.855700439453125,0.012282758951187134,0.03598695620894432,0.05881822481751442
1783002535297752300,4.86575244140625,0.029483290389180183,0.0544765368103981,0.047364965081214905
1783002535307804400,4.875804443359375,0.03325166180729866,0.07417699694633484,0.03235619142651558
1783002535317856300,4.885856201171875,0.026291050016880035,0.059365686029195786,0.02875378355383873
1783002535327908400,4.895908447265625,0.019292529672384262,0.021094996482133865,0.03133571892976761
1783002535337959200,4.905959228515625,0.02319289743900299,0.004456906579434872,0.03259620815515518
1783002535348011300,4.91601123046875,0.01832623779773712,-0.011390766128897667,0.0242831502109766
1783002535358063000,4.92606298828125,0.012115762569010258,-0.0339205339550972,-0.0027958108112215996
1783002535368115200,4.936115234375,0.007527136243879795,-0.0449255108833313,-0.034989964216947556
1783002535378167300,4.946167236328125,0.012048788368701935,-0.060810405761003494,-0.048966534435749054
1783002535388219400,4.956219482421875,0.012432016432285309,-0.07082042843103409,-0.03318890184164047
1783002535398271200,4.966271240234375,0.006513357162475586,-0.06188245117664337,-0.008470960892736912
1783002535408322300,4.976322265625,0.01634414866566658,-0.029829444363713264,0.010658258572220802
1783002535418374400,4.98637451171875,0.023192619904875755,0.0066961864940822124,0.01249720249325037
1783002535428426200,4.99642626953125,0.029617229476571083,0.034406375139951706,0.007815630175173283
1783002535438478300,5.006478271484375,0.030826305970549583,0.020731044933199883,0.01626104861497879
1783002535448530200,5.0165302734375,0.02906648814678192,-0.000045872293412685394,0.03503713011741638
1783002535458581200,5.026581298828125,0.03967340663075447,-0.0012170574627816677,0.04499427229166031
1783002535468633300,5.03663330078125,0.05105815455317497,0.004617129452526569,0.05691191554069519
1783002535478685400,5.046685546875,0.030463099479675293,-0.026000382378697395,0.07425449788570404
1783002535488737300,5.0567373046875,0.0012737896759063005,-0.038584351539611816,0.07286618649959564
1783002535498789400,5.066789306640625,-0.009343070909380913,-0.039666544646024704,0.026973973959684372
1783002535508841200,5.07684130859375,-0.0012276195921003819,0.006845829542726278,-0.03650513291358948
1783002535518893300,5.086893310546875,-0.0024654152803122997,0.020427674055099487,-0.04561475291848183
1783002535528944000,5.096944091796875,-0.06445714831352234,0.06263265758752823,0.09994404017925262
1783002535538996200,5.106996337890625,-0.0957631766796112,0.042224328964948654,0.15981484949588776
1783002535549048000,5.117048095703125,-0.08049740642309189,0.05977882072329521,0.11455308645963669
1783002535559100400,5.127100341796875,-0.052412256598472595,0.030980821698904037,-0.001507593784481287
1783002535569152300,5.13715234375,-0.013349279761314392,-0.01641945168375969,-0.09513475000858307
1783002535579204400,5.147204345703125,0.02804594114422798,0.023029975593090057,-0.13587282598018646
1783002535589255400,5.15725537109375,0.04511760175228119,0.03622540459036827,-0.13168500363826752
1783002535599307300,5.167307373046875,0.05229421705007553,0.017662739381194115,-0.09617093205451965
1783002535609359400,5.177359375,0.042205631732940674,0.013133235275745392,0.006557307206094265
1783002535619411200,5.1874111328125,0.022911354899406433,-0.003163316287100315,0.14692886173725128
1783002535629463300,5.19746337890625,0.014792708680033684,-0.059329383075237274,0.21518674492835999
