time,seconds_elapsed,z,y,x
1783002530504289500,0.07228955078125,0.015157913789153099,0.0011507519520819187,0.006719421595335007
1783002530514341600,0.082341552734375,0.004996622912585735,-0.01685168407857418,0.02389334887266159
1783002530524393500,0.0923935546875,0.00016484966909047216,-0.016046078875660896,0.028594359755516052
1783002530534445600,0.102445556640625,0.0032629049383103848,0.0036525253672152758,0.03184102103114128
1783002530544497400,0.112497314453125,0.008266185410320759,0.01848153956234455,0.01931297779083252
1783002530554548500,0.122548583984375,0.010202037170529366,0.010358897969126701,-0.002633866388350725
1783002530564600800,0.132600830078125,0.019114306196570396,0.003623496973887086,-0.011887285858392715
1783002530574652700,0.142652587890625,0.015020227991044521,0.0017496967921033502,-0.00791225116699934
1783002530584704500,0.15270458984375,0.008309861645102501,-0.009370066225528717,-0.00780679052695632
1783002530594756600,0.162756591796875,0.0035896748304367065,-0.01733078621327877,-0.01860031671822071
1783002530604807700,0.1728076171875,-0.00005965480886516161,-0.004150802735239267,-0.022776152938604355
1783002530614859500,0.182859619140625,-0.0026527747977524996,-0.0006641923682764173,-0.02443556860089302
1783002530624911600,0.19291162109375,-0.012083561159670353,-0.014458567835390568,-0.02918691374361515
1783002530634963500,0.20296337890625,-0.013968545943498611,-0.01914386637508869,-0.036061063408851624
1783002530645015600,0.213015625,-0.010758904740214348,-0.007931426167488098,-0.022893598303198814
1783002530655067600,0.223067626953125,-0.011486213654279709,-0.0044173854403197765,-0.00130920996889472
1783002530665118700,0.23311865234375,-0.014254570007324219,-0.01236132811754942,0.013155749067664146
1783002530675170600,0.243170654296875,-0.012455071322619915,-0.002414954360574484,0.027716848999261856
1783002530685222700,0.25322265625,-0.009661149233579636,0.02556448243558407,0.04621649906039238
1783002530695274500,0.2632744140625,-0.014942997135221958,0.035785429179668427,0.0563168004155159
1783002530705326600,0.27332666015625,-0.02544730342924595,0.008991364389657974,0.03791648894548416
1783002530715377700,0.283377685546875,-0.03134380653500557,-0.01503966934978962,0.0052173989824950695
1783002530725429500,0.293429443359375,-0.02949024736881256,0.0018940401496365666,-0.01630493812263012
1783002530735481600,0.303481689453125,-0.025945579633116722,0.033965155482292175,-0.025295769795775414
1783002530745533700,0.31353369140625,-0.02340812049806118,0.030544593930244446,-0.037214744836091995
1783002530755585800,0.323585693359375,-0.016332633793354034,0.009650496765971184,-0.03706001862883568
1783002530765637600,0.3336376953125,-0.0007725830073468387,0.018762236461043358,-0.01395895890891552
1783002530775688700,0.343688720703125,0.005094361025840044,0.019650133326649666,0.023573769256472588
1783002530785740500,0.353740478515625,0.001740109408274293,-0.020918065682053566,0.0456274077296257
1783002530795792600,0.363792724609375,-0.004449076950550079,-0.06676890701055527,0.04441699758172035
1783002530805844500,0.373844482421875,-0.007208910770714283,-0.06981796026229858,0.026010561734437943
1783002530815896600,0.383896484375,-0.002871420234441757,-0.04820534586906433,0.007444600574672222
1783002530825947600,0.39394775390625,-0.00706829596310854,-0.03464852273464203,-0.016888435930013657
1783002530835999500,0.40399951171875,-0.006675745826214552,-0.027098994702100754,-0.043527502566576004
1783002530846051600,0.414051513671875,-0.004526575095951557,-0.02130209282040596,-0.055629439651966095
1783002530856103700,0.424103759765625,-0.00401578051969409,-0.014607438817620277,-0.041667550802230835
1783002530866155500,0.434155517578125,-0.0002665824140422046,0.004792091902345419,-0.016320915892720222
1783002530876206600,0.44420654296875,-0.0014397049089893699,0.015593340620398521,0.001175252953544259
1783002530886258700,0.4542587890625,-0.000472977408207953,0.017307084053754807,0.014840465039014816
1783002530896310500,0.464310546875,-0.0017270599491894245,0.00932239554822445,0.03388606011867523
1783002530906362600,0.474362548828125,-0.0031433289404958487,0.004090082831680775,0.0464726947247982
1783002530916414500,0.48441455078125,-0.007712514605373144,0.0024825986474752426,0.04001585766673088
1783002530926466800,0.494466796875,-0.006098106037825346,-0.009764480404555798,0.022790001705288887
1783002530936517400,0.504517333984375,-0.0049026133492589,-0.02137053571641445,0.0028698223177343607
1783002530946569700,0.51456982421875,-0.0051564122550189495,-0.01979021541774273,-0.010002566501498222
1783002530956621600,0.52462158203125,0.0020985708106309175,-0.012322979047894478,-0.007099454756826162
1783002530966673700,0.534673583984375,0.010011621750891209,-0.0006253102328628302,0.006645918358117342
1783002530976725500,0.5447255859375,0.014432468451559544,0.011419101618230343,0.018371550366282463
1783002530986776600,0.554776611328125,0.02376232109963894,0.01196984387934208,0.026369288563728333
1783002530996828700,0.56482861328125,0.023264842107892036,0.0128734540194273,0.02172313816845417
1783002531006880500,0.574880615234375,0.019393671303987503,-0.0006311691831797361,0.011140801943838596
1783002531016932600,0.5849326171875,0.004674113821238279,-0.022582273930311203,-0.014032195322215557
1783002531026984700,0.594984619140625,-0.006336725316941738,-0.039318110793828964,-0.0349649079144001
1783002531037036500,0.60503662109375,-0.02057265304028988,-0.03603656217455864,-0.04396559298038483
1783002531047090700,0.615090576171875,-0.02851872704923153,-0.010973288677632809,-0.03446050360798836
1783002531057142800,0.625142822265625,-0.02039848268032074,0.020926853641867638,-0.026751453056931496
1783002531067194600,0.635194580078125,-0.01062414888292551,0.012630308046936989,-0.009147425182163715
1783002531077247000,0.6452470703125,-0.003391801845282316,0.008288822136819363,0.031081220135092735
1783002531087298800,0.655298828125,0.010291253216564655,0.04157407581806183,0.0732736811041832
1783002531097350000,0.665349853515625,0.017123859375715256,0.06354488432407379,0.07332028448581696
1783002531107401700,0.675401611328125,0.015750734135508537,0.0692664235830307,0.04615870490670204
1783002531117453800,0.685453857421875,0.009268865920603275,0.055861134082078934,0.005248291417956352
1783002531127505700,0.695505615234375,0.0041039311327040195,0.03249908611178398,-0.020730845630168915
1783002531137557800,0.705557861328125,0.0014199974248185754,0.0079133166000247,-0.024893632158637047
1783002531147609600,0.715609619140625,0.0009113337146118283,-0.004265584982931614,-0.012149873189628124
1783002531157660700,0.72566064453125,0.0026996464002877474,-0.0185832716524601,-0.004186755511909723
1783002531167712800,0.735712646484375,0.0054392400197684765,-0.024021713063120842,-0.013709153980016708
1783002531177764900,0.745764892578125,0.002507632365450263,-0.01973535493016243,-0.027774106711149216
1783002531187817000,0.75581689453125,0.005678125657141209,0.004122839774936438,-0.039987631142139435
1783002531197868800,0.765868896484375,0.0076246303506195545,0.03467568755149841,-0.04914384335279465
1783002531207919900,0.775919921875,0.007679224945604801,0.026558106765151024,-0.051545750349760056
1783002531217971700,0.7859716796875,-0.0022807312197983265,-0.021747905761003494,-0.028086230158805847
1783002531228023800,0.79602392578125,-0.0018610169645398855,-0.0226198248565197,0.0070099723525345325
1783002531238075600,0.80607568359375,-0.008378570899367332,-0.01925385557115078,0.024628646671772003
1783002531248127700,0.816127685546875,-0.01212670374661684,-0.03139280900359154,0.015352058224380016
1783002531258179800,0.826179931640625,-0.012378105893731117,-0.013423397205770016,-0.017016001045703888
1783002531268231000,0.83623095703125,-0.00836951658129692,0.001907089608721435,-0.03244129568338394
1783002531278283000,0.846282958984375,-0.009586314670741558,0.04604179412126541,-0.03237365186214447
1783002531288334800,0.8563349609375,0.0029678267892450094,0.04225051775574684,-0.029992787167429924
1783002531298386700,0.86638671875,0.0013789847726002336,0.03136271610856056,-0.026283536106348038
1783002531308438800,0.876438720703125,-0.002100701443850994,0.007931958884000778,-0.0050099384970963
1783002531318489900,0.88648974609375,-0.0057412427850067616,-0.020810740068554878,0.012440158054232597
1783002531328541700,0.896541748046875,-0.0020871192682534456,-0.04553233087062836,0.029103023931384087
1783002531338593800,0.90659375,-0.0021550299134105444,-0.020801419392228127,0.03640061989426613
1783002531348645600,0.916645751953125,-0.0003808320325333625,-0.00669252360239625,0.0291174054145813
1783002531358698000,0.926697998046875,-0.0025803367607295513,-0.01392673421651125,-0.004111388232558966
1783002531368749800,0.936749755859375,-0.004369182046502829,0.001398159540258348,-0.03862382471561432
1783002531378801000,0.94680078125,-0.003722566645592451,0.019059712067246437,-0.05572158470749855
1783002531388852700,0.956852783203125,-0.0034043188206851482,0.03196938335895538,-0.05215374752879143
1783002531398904800,0.96690478515625,0.0008921589469537139,0.03822275251150131,-0.034985680133104324
1783002531408956700,0.976956787109375,-0.0012532835826277733,0.01133654359728098,-0.01537762489169836
1783002531419008800,0.9870087890625,0.00145222176797688,-0.0155517952516675,0.006687463726848364
1783002531429059800,0.997059814453125,-0.0021174794528633356,-0.006901049055159092,0.0413929782807827
1783002531439111700,1.007111572265625,0.0007795072160661221,0.006393983494490385,0.044075049459934235
1783002531449164000,1.0171640625,0.0028850024100393057,-0.0035119105596095324,0.019882895052433014
1783002531459216000,1.0272158203125,0.0067963870242238045,-0.013010873459279537,-0.016282299533486366
1783002531469268000,1.03726806640625,0.0027387947775423527,-0.024105336517095566,-0.04683168604969978
1783002531479318800,1.04731884765625,-0.0006833671359345317,-0.0357835628092289,-0.06419336795806885
1783002531489371000,1.057370849609375,-0.003326288191601634,-0.04813956469297409,-0.09700378030538559
1783002531499422700,1.067422607421875,-0.0000881506348378025,-0.031990423798561096,-0.08977702260017395
1783002531509474800,1.077474853515625,0.0017395768081769347,-0.0314098559319973,-0.042581282556056976
1783002531519526700,1.087526611328125,-0.004667456261813641,-0.027713919058442116,0.01756727509200573
1783002531529578800,1.097578857421875,-0.00917405728250742,-0.04620691016316414,0.06628048419952393
1783002531539629800,1.1076298828125,-0.026881948113441467,-0.05199449136853218,0.06527327746152878
1783002531549682000,1.117681884765625,-0.04953958839178085,-0.014444719068706036,0.032525986433029175
1783002531559733800,1.127733642578125,-0.06308682262897491,0.08618069440126419,-0.07808974385261536
1783002531569785900,1.137785888671875,-0.07129468768835068,0.2158460021018982,-0.26287955045700073
1783002531579837700,1.147837646484375,-0.08628881722688675,0.3046776056289673,-0.4743494689464569
1783002531589888800,1.157888671875,-0.10562789440155029,0.34621891379356384,-0.6082963347434998
1783002531599940900,1.16794091796875,-0.09780405461788177,0.42913246154785156,-0.669620156288147
1783002531609992700,1.17799267578125,-0.07933370769023895,0.512721061706543,-0.6429118514060974
1783002531620044800,1.188044921875,-0.0573519729077816,0.4914354979991913,-0.5362961888313293
1783002531630097000,1.198096923828125,-0.02581881359219551,0.345607191324234,-0.4001024067401886
1783002531640149000,1.20814892578125,-0.009554622694849968,-0.014084394089877605,-0.30047887563705444
1783002531650199800,1.21819970703125,0.0008503473363816738,-0.3125983774662018,-0.27052175998687744
1783002531660252000,1.228251953125,0.01438373327255249,-0.31456273794174194,-0.27257239818573
1783002531670303700,1.2383037109375,0.01733078621327877,-0.22519423067569733,-0.2834274470806122
1783002531680355800,1.24835595703125,0.0685175433754921,-0.18103475868701935,-0.25088921189308167
1783002531690407700,1.25840771484375,0.12072641402482986,-0.07898110151290894,-0.14571751654148102
1783002531700458800,1.268458740234375,0.13811632990837097,0.05247519165277481,-0.01576191931962967
1783002531710510800,1.2785107421875,0.11771198362112045,0.12958861887454987,0.1033407673239708
1783002531720562700,1.288562744140625,0.09231794625520706,0.12709642946720123,0.18593472242355347
1783002531730614800,1.29861474609375,0.062314506620168686,0.06444130837917328,0.2475602626800537
1783002531740667000,1.3086669921875,0.026023611426353455,0.003096723696216941,0.2825717628002167
1783002531750718700,1.31871875,-0.007444600574672222,0.00845873262733221,0.2713406980037689
1783002531760769800,1.328769775390625,-0.02352050505578518,-0.022965237498283386,0.22330419719219208
1783002531770822000,1.33882177734375,-0.04320552572607994,-0.08792559057474136,0.16300515830516815
1783002531780873700,1.348873779296875,-0.05492103844881058,-0.1021500676870346,0.11184743791818619
1783002531790925800,1.35892578125,-0.04544737562537193,-0.036309003829956055,0.10292771458625793
1783002531800977700,1.368977783203125,-0.04027152433991432,0.02966095693409443,0.11806085705757141
1783002531811028700,1.37902880859375,-0.04026965796947479,0.06910637021064758,0.12762373685836792
1783002531821080600,1.38908056640625,-0.03147723153233528,0.07100094109773636,0.1286812722682953
1783002531831133000,1.3991328125,-0.02714213915169239,0.059365853667259216,0.09912978112697601
1783002531841184800,1.409184814453125,-0.02731151506304741,0.04908924922347069,0.06803551316261292
1783002531851236900,1.41923681640625,-0.02472878247499466,0.02876373752951622,0.041791390627622604
1783002531861288700,1.429288818359375,-0.02695971168577671,-0.0041430797427892685,0.022435002028942108
1783002531871339800,1.43933984375,-0.03259868919849396,-0.034024279564619064,-0.005502357147634029
1783002531881391900,1.449391845703125,-0.037529800087213516,-0.062422897666692734,-0.019530026242136955
1783002531891443700,1.459443603515625,-0.035038143396377563,-0.047564856708049774,-0.020923923701047897
1783002531901495800,1.469495849609375,-0.03670927882194519,-0.019042667001485825,-0.019870910793542862
1783002531911548000,1.4795478515625,-0.03136804327368736,-0.005537510849535465,-0.024588167667388916
1783002531921599000,1.489598876953125,-0.01404657680541277,0.022593459114432335,-0.016045013442635536
1783002531931650800,1.49965087890625,-0.004139084834605455,0.0442391000688076,0.0007725830073468387
1783002531941703000,1.509702880859375,-0.0034698324743658304,0.04987115412950516,0.021469339728355408
1783002531951754800,1.519754638671875,0.00589623861014843,0.03876204416155815,0.04782318323850632
1783002531961806800,1.529806884765625,0.003519367426633835,-0.00427144393324852,0.04818963259458542
1783002531971858700,1.539858642578125,-0.0034794199746102095,-0.02984657883644104,0.022273346781730652
1783002531981909800,1.54990966796875,-0.009350891225039959,-0.02233166992664337,-0.013069995678961277
1783002531991961600,1.559961669921875,-0.013522999361157417,-0.008164718747138977,-0.042507246136665344
1783002532002014000,1.570013916015625,-0.014418354257941246,-0.0005006743012927473,-0.06365194916725159
1783002532012065800,1.580065673828125,-0.025611354038119316,0.01176185067743063,-0.05770750343799591
1783002532022118000,1.590117919921875,-0.03303731232881546,-0.002894589677453041,-0.03212065249681473
1783002532032169700,1.600169677734375,-0.027541879564523697,-0.01221831701695919,-0.005630454979836941
1783002532042220800,1.610220703125,-0.0221476461738348,-0.016033029183745384,0.023575900122523308
1783002532052273000,1.62027294921875,-0.02473117969930172,-0.03408127278089523,0.04275918006896973
1783002532062324700,1.63032470703125,-0.019753731787204742,-0.043660130351781845,0.04109390825033188
1783002532072376800,1.640376953125,-0.013067332096397877,-0.027605528011918068,0.01744556985795498
1783002532082428700,1.6504287109375,-0.01834971271455288,-0.01278796698898077,-0.021991051733493805
1783002532092479700,1.660479736328125,-0.024097345769405365,-0.002913498319685459,-0.0631621927022934
1783002532102531600,1.670531494140625,-0.030047114938497543,0.0038248319178819656,-0.08781959861516953
1783002532112583700,1.680583740234375,-0.03568742424249649,-0.005161738954484463,-0.08859005570411682
1783002532122635500,1.690635498046875,-0.03960679844021797,-0.010044910944998264,-0.06896894425153732
1783002532132687600,1.7006875,-0.0311584509909153,0.010488061234354973,-0.028374649584293365
1783002532142739700,1.71073974609375,-0.025174329057335854,0.007958590984344482,-0.005250688176602125
1783002532152790800,1.720790771484375,-0.024109330028295517,-0.04246676713228226,0.01641705632209778
1783002532162842600,1.730842529296875,-0.019884491339325905,-0.05047249421477318,0.018624816089868546
1783002532172894700,1.740894775390625,-0.019164107739925385,-0.02171621471643448,0.004373443312942982
1783002532182946600,1.750946533203125,-0.013511547818779945,-0.018614962697029114,-0.023176159709692
1783002532192998700,1.76099853515625,-0.01540745235979557,-0.018149709329009056,-0.03832901269197464
1783002532203049700,1.7710498046875,-0.02412557601928711,-0.02480042167007923,-0.05419932305812836
1783002532213101600,1.7811015625,-0.029893983155488968,-0.026944532990455627,-0.06502959877252579
1783002532223153700,1.791153564453125,-0.028484638780355453,-0.01335894875228405,-0.07009599357843399
1783002532233205800,1.801205810546875,-0.026015354320406914,0.00276169809512794,-0.06917241215705872
1783002532243257900,1.8112578125,-0.034390728920698166,-0.004910602699965239,-0.0714438259601593
1783002532253309700,1.821309814453125,-0.03524081036448479,-0.038608912378549576,-0.0755930244922638
1783002532263360800,1.83136083984375,-0.03936604782938957,-0.038898397237062454,-0.06807998567819595
1783002532273412600,1.84141259765625,-0.030557110905647278,-0.029518211260437965,-0.056411609053611755
1783002532283464700,1.851464599609375,-0.022163359448313713,-0.03287326171994209,-0.03857722133398056
1783002532293516500,1.8615166015625,-0.030159233137965202,-0.04376132786273956,-0.02070368081331253
1783002532303568600,1.871568603515625,-0.029203692451119423,-0.03200693428516388,-0.00860174372792244
1783002532313619700,1.88161962890625,-0.02215084247291088,-0.01318291388452053,-0.011324293911457062
1783002532323671600,1.891671630859375,-0.018148111179471016,-0.004863198380917311,-0.016525447368621826
1783002532333724000,1.901723876953125,-0.0202751774340868,0.005372394807636738,-0.023615580052137375
1783002532343775700,1.911775634765625,-0.01949220895767212,0.02732456475496292,-0.027338147163391113
1783002532353827800,1.921827880859375,-0.027522437274456024,0.03337579965591431,-0.03554973751306534
1783002532363879700,1.931879638671875,-0.018993930891156197,0.028923260048031807,-0.036972932517528534
1783002532373930800,1.9419306640625,-0.008713596500456333,0.021329257637262344,-0.008716792799532413
1783002532383982600,1.951982666015625,-0.0043798345141112804,0.03338192403316498,0.033479396253824234
1783002532394034700,1.96203466796875,-0.007121026515960693,0.032875657081604004,0.04899230971932411
1783002532404086500,1.97208642578125,-0.009304019622504711,0.010940265841782093,0.03502962365746498
1783002532414139000,1.982138916015625,-0.012035091407597065,-0.016088156029582024,0.008793491870164871
1783002532424190700,1.992190673828125,-0.01679389365017414,-0.031205588951706886,-0.007510646712034941
1783002532434241800,2.00224169921875,-0.019773438572883606,-0.003925499506294727,-0.024227574467658997
1783002532444293600,2.012293701171875,-0.017119331285357475,0.02069462649524212,-0.05059606581926346
1783002532454345700,2.022345703125,-0.012523781508207321,0.025068068876862526,-0.06722430884838104
1783002532464397600,2.0323974609375,-0.004515655804425478,0.030401049181818962,-0.04927780106663704
1783002532474449700,2.04244970703125,-0.005082376766949892,0.03214115649461746,-0.013701963238418102
1783002532484500700,2.052500732421875,-0.00016671388584654778,0.029863622039556503,0.025913888588547707
1783002532494552600,2.062552490234375,0.0073298183269798756,0.02562759816646576,0.04688601568341255
1783002532504604700,2.072604736328125,0.01005236804485321,0.021453892812132835,0.04704394191503525
1783002532514656800,2.08265673828125,0.01471662800759077,0.007514108903706074,0.03581445664167404
1783002532524708900,2.092708984375,0.014812235720455647,0.007816910743713379,0.02395619824528694
1783002532534760700,2.1027607421875,0.007246727589517832,0.024655278772115707,0.011545602232217789
1783002532544811800,2.112811767578125,0.010076070204377174,0.05426749959588051,-0.013922739773988724
1783002532554863600,2.122863525390625,0.016500946134328842,0.06797026097774506,-0.04337064176797867
1783002532564915700,2.132915771484375,0.017241304740309715,0.04388436675071716,-0.05273032188415527
1783002532574967600,2.142967529296875,0.01558135636150837,0.006136721931397915,-0.01912655681371689
1783002532585019600,2.15301953125,0.008429703302681446,0.0013398362789303064,0.033608026802539825
1783002532595071700,2.16307177734375,0.013965883292257786,0.009268599562346935,0.07514695078134537
1783002532605122600,2.17312255859375,0.022108230739831924,0.019569972530007362,0.0913083404302597
1783002532615174700,2.183174560546875,0.027243072167038918,0.03403892740607262,0.08848006278276443
1783002532625226800,2.193226806640625,0.03386688604950905,0.048111069947481155,0.07364226132631302
1783002532635278600,2.203278564453125,0.03286047652363777,0.03747839853167534,0.044311538338661194
1783002532645330700,2.21333056640625,0.02882738783955574,0.03361521661281586,0.004215251188725233
1783002532655381800,2.2233818359375,0.029916886240243912,0.04098072275519371,-0.04561861604452133
1783002532665433600,2.23343359375,0.038680549710989,0.01733291707932949,-0.07639597356319427
1783002532675485700,2.243485595703125,0.027047064155340195,0.006459497381001711,-0.06868958473205566
1783002532685537500,2.25353759765625,0.04057672247290611,-0.0006420881254598498,-0.04627109318971634
1783002532695590000,2.26358984375,0.04415388032793999,0.013161341659724712,-0.02051779255270958
1783002532705641700,2.273641845703125,0.03880491852760315,0.01823173463344574,0.016802947968244553
1783002532715692800,2.28369287109375,0.04192135110497475,0.008162056095898151,0.04018070921301842
1783002532725744600,2.29374462890625,0.03423120826482773,-0.006648581475019455,0.04700479283928871
1783002532735796700,2.303796630859375,0.023976173251867294,0.005091697443276644,0.05389492213726044
1783002532745848600,2.3138486328125,0.009866478852927685,0.0007821703911758959,0.03947017714381218
1783002532755900700,2.323900634765625,0.007290936075150967,0.009073656052350998,0.019045330584049225
1783002532765951700,2.33395166015625,0.011568771675229073,0.03214115649461746,-0.007074687164276838
1783002532776003600,2.344003662109375,0.008657936938107014,0.038485605269670486,-0.018731608986854553
1783002532786055700,2.3540556640625,0.005830724723637104,0.04627668485045433,0.0001507349224993959
1783002532796107800,2.364107666015625,0.007940481416881084,0.023622505366802216,0.027783960103988647
1783002532806159600,2.37415966796875,0.005785983521491289,-0.009473662823438644,0.04393709823489189
1783002532816211700,2.384211669921875,-0.000570981705095619,-0.022185463458299637,0.04872972145676613
1783002532826262800,2.3942626953125,-0.005288771353662014,-0.01739044114947319,0.025500832125544548
1783002532836314600,2.404314697265625,-0.007231014780700207,-0.00971414614468813,-0.01582556776702404
1783002532846366700,2.41436669921875,-0.00688986387103796,-0.0043681166134774685,-0.04404522106051445
1783002532856418600,2.42441845703125,-0.010188987478613853,-0.006019276566803455,-0.058759987354278564
1783002532866470700,2.434470703125,-0.006458698306232691,-0.009370066225528717,-0.048838380724191666
1783002532876522800,2.444522705078125,-0.012753878720104694,-0.005148689262568951,-0.012831642292439938
1783002532886573800,2.45457373046875,-0.017125457525253296,0.023014504462480545,0.006649114191532135
1783002532896625700,2.464625732421875,-0.006485862657427788,0.000538491178303957,0.02550775744020939
1783002532906677800,2.474677734375,-0.00021598236344289035,-0.008855010382831097,0.046964313834905624
1783002532916729600,2.4847294921875,-0.008703210391104221,-0.012428972870111465,0.052858419716358185
1783002532926781700,2.49478173828125,-0.011242800392210484,-0.013767210766673088,0.04464736208319664
1783002532936833500,2.50483349609375,-0.013095562346279621,-0.009152485989034176,0.01618323102593422
1783002532946884600,2.514884521484375,-0.013317936100065708,-0.013134976848959923,-0.01085584331303835
1783002532956936700,2.524936767578125,-0.016199210658669472,0.002418416552245617,-0.03405117616057396
1783002532966988500,2.534988525390625,-0.015966981649398804,0.003328684950247407,-0.05067436397075653
1783002532977040600,2.54504052734375,-0.018546253442764282,-0.005592904519289732,-0.043055590242147446
1783002532987092700,2.5550927734375,-0.010693657211959362,-0.0013994910987094045,0.002010952914133668
1783002532997143800,2.565143798828125,-0.0054818508215248585,0.00044847631943412125,0.051291417330503464
1783002533007195600,2.575195556640625,-0.0051841093227267265,-0.014278272166848183,0.07749292999505997
1783002533017247700,2.585247802734375,0.00018029600323643535,-0.03175633028149605,0.07343214005231857
1783002533027299600,2.595299560546875,-0.003019758267328143,-0.04507054015994072,0.04247875139117241
1783002533037351700,2.6053515625,-0.00723634148016572,-0.041304562240839005,-0.0006138586322776973
1783002533047400200,2.615400146484375,-0.005556419026106596,-0.038599856197834015,-0.02912273071706295
1783002533057451300,2.625451171875,-0.007120227441191673,-0.024950623512268066,-0.042744267731904984
1783002533067503000,2.635503173828125,-0.007193197961896658,-0.016086025163531303,-0.03555186837911606
1783002533077555200,2.64555517578125,-0.0005544701125472784,-0.002862365450710058,-0.01708710752427578
1783002533087607000,2.65560693359375,-0.004474376793950796,0.00566933723166585,0.004861067980527878
1783002533097659100,2.6656591796875,-0.005284244194626808,0.0009422263829037547,0.026668095961213112
1783002533107711000,2.6757109375,-0.0008250473183579743,-0.0113988621160388,0.046901196241378784
1783002533117762000,2.685761962890625,-0.0009920274605974555,-0.02442544884979725,0.05813147872686386
1783002533127814400,2.695814453125,-0.006637662649154663,-0.03458034619688988,0.05118595436215401
1783002533137866200,2.7058662109375,-0.009810552932322025,-0.04078098386526108,0.02791951596736908
1783002533147918300,2.71591845703125,-0.008131163194775581,-0.03549647331237793,0.002856240142136812
1783002533157970200,2.72597021484375,-0.00501047121360898,-0.030346453189849854,-0.028182368725538254
1783002533168022300,2.736022216796875,-0.005074653308838606,-0.0309336818754673,-0.049316950142383575
1783002533178073000,2.746072998046875,-0.010378604754805565,-0.014928349293768406,-0.062363509088754654
1783002533188125200,2.756125244140625,-0.007020358927547932,0.01667218655347824,-0.048117462545633316
1783002533198177000,2.766177001953125,0.0012024171883240342,0.02881540358066559,-0.016347814351320267
1783002533208229000,2.77622900390625,0.0026346652302891016,-0.003939880523830652,0.020372116938233376
1783002533218281200,2.78628125,0.002180063631385565,-0.03452655300498009,0.04847858473658562
1783002533228333300,2.796333251953125,-0.002027997048571706,-0.02178439125418663,0.07099747657775879
1783002533238384000,2.806384033203125,0.002537992550060153,-0.015846872702240944,0.07312268018722534
1783002533248436200,2.816436279296875,0.007276821415871382,-0.0060357884503901005,0.05501504987478256
1783002533258488000,2.826488037109375,0.009178051725029945,0.016872189939022064,0.021095963194966316
1783002533268540200,2.8365400390625,0.012752813287079334,0.026730148121714592,-0.01780909113585949
1783002533278592000,2.846592041015625,0.007337541319429874,0.014887070283293724,-0.04947567358613014
1783002533288643000,2.85664306640625,-0.005058940965682268,-0.035648275166749954,-0.06961582601070404
1783002533298695200,2.866695068359375,-0.011559717357158661,-0.03539847210049629,-0.057615891098976135
1783002533308747300,2.876747314453125,-0.009855826385319233,-0.025472071021795273,-0.04902426898479462
1783002533318799400,2.88679931640625,-0.007183078210800886,-0.040468595921993256,-0.03873328119516373
1783002533328851200,2.896851318359375,-0.007185741327702999,-0.03874979168176651,-0.0009046758059412241
1783002533338903300,2.9069033203125,-0.0015502260066568851,-0.007709318771958351,0.04824848845601082
1783002533348954000,2.9169541015625,0.0011432950850576162,-0.004065048880875111,0.06757185608148575
1783002533359006200,2.927006103515625,0.011374094523489475,-0.012819658033549786,0.04724207893013954
1783002533369058000,2.93705810546875,0.012978116981685162,0.009721869602799416,0.01558082364499569
1783002533379110100,2.947110107421875,0.010363158769905567,0.029514482244849205,-0.005574794951826334
1783002533389162000,2.957161865234375,0.013819143176078796,0.039023298770189285,-0.01684555970132351
1783002533399214300,2.96721435546875,0.015604259446263313,0.0470719039440155,-0.006326871924102306
1783002533409265200,2.97726513671875,0.017959559336304665,0.038537804037332535,0.016775252297520638
1783002533419317200,2.987317138671875,0.01516111008822918,-0.001181378262117505,0.0452316589653492
1783002533429369000,2.997369140625,0.010034791193902493,-0.016396816819906235,0.07197645306587219
1783002533439421200,3.007421142578125,0.006816360633820295,-0.010758105665445328,0.07664817571640015
1783002533449473000,3.01747314453125,0.008712797425687313,-0.01577150635421276,0.05763240158557892
1783002533459525000,3.027525146484375,0.007662713527679443,-0.012149340473115444,0.04326571524143219
1783002533469576200,3.037576171875,0.009844374842941761,0.009459015913307667,0.03542749956250191
1783002533479628000,3.0476279296875,0.012741628102958202,0.03352866694331169,0.038542598485946655
1783002533489680400,3.057680419921875,0.011915248818695545,0.030461769551038742,0.0472298301756382
1783002533499732200,3.067732177734375,0.009939716197550297,0.011562912724912167,0.05913549289107323
1783002533509784300,3.077784423828125,0.012413259595632553,-0.000215716048842296,0.07280682772397995
1783002533519836200,3.087836181640625,0.007723699789494276,-0.016100673004984856,0.07758267223834991
1783002533529887200,3.09788720703125,-0.001273257308639586,-0.023146331310272217,0.06329961121082306
1783002533539939000,3.10793896484375,-0.008697351440787315,-0.008199873380362988,0.04446999728679657
1783002533549991200,3.1179912109375,-0.006521814968436956,0.008359395898878574,0.008245679549872875
1783002533560043000,3.12804296875,-0.007926632650196552,0.019226690754294395,-0.015252988785505295
1783002533570095000,3.13809521484375,0.002537193475291133,0.04157247766852379,-0.024452611804008484
1783002533580146200,3.148146240234375,0.002246642718091607,0.013936055824160576,-0.027223631739616394
1783002533590198300,3.1581982421875,-0.0029089709278196096,0.0032828785479068756,-0.010602310299873352
1783002533600250400,3.16825048828125,0.00047857005847617984,-0.0025132251903414726,0.011116034351289272
1783002533610302200,3.17830224609375,-0.0057106162421405315,-0.017855163663625717,0.004607801325619221
1783002533620354000,3.18835400390625,-0.004497013986110687,-0.012119246646761894,-0.005061071366071701
1783002533630406100,3.19840625,-0.008079498074948788,0.0013393036788329482,-0.010726946406066418
1783002533640458000,3.2084580078125,-0.010418020188808441,0.003808320267125964,-0.009266735054552555
1783002533650509000,3.218509033203125,-0.012748817913234234,0.011383416131138802,-0.00920601561665535
1783002533660561200,3.22856103515625,-0.011330951005220413,0.011378355324268341,-0.004999286029487848
1783002533670613200,3.23861328125,-0.0034117756877094507,-0.0023457121569663286,-0.004122839774936438
1783002533680665300,3.248665283203125,-0.003964914008975029,-0.009272327646613121,-0.004422178957611322
1783002533690717200,3.25871728515625,-0.002986735198646784,-0.013437511399388313,-0.00007430219557136297
1783002533700768300,3.268768310546875,-0.00250523560680449,-0.013941914774477482,0.0010279801208525896
1783002533710820000,3.278820068359375,-0.001883121207356453,-0.01715634949505329,-0.005980394314974546
1783002533720872200,3.2888720703125,-0.004092479590326548,-0.015480955131351948,-0.017238907516002655
1783002533730924000,3.298924072265625,-0.004862665664404631,-0.0025156219489872456,-0.03224661946296692
1783002533740976000,3.30897607421875,-0.006871488410979509,0.001119060325436294,-0.02666516602039337
1783002533751028000,3.319028076171875,-0.012203669175505638,0.002172074280679226,-0.014566159807145596
1783002533761079000,3.3290791015625,-0.0160005372017622,-0.005630721338093281,-0.0013129384024068713
1783002533771131400,3.33913134765625,-0.023321300745010376,-0.012313923798501492,0.0034141724463552237
1783002533781183200,3.349183349609375,-0.022121813148260117,-0.015398397110402584,-0.00498197553679347
1783002533791235300,3.3592353515625,-0.023694410920143127,-0.0023435817565768957,-0.022971628233790398
1783002533801287200,3.369287109375,-0.023981498554348946,0.010175139643251896,-0.023029418662190437
1783002533811339300,3.37933935546875,-0.02027997188270092,0.02418283373117447,-0.016050072386860847
1783002533821390000,3.38939013671875,-0.016695355996489525,0.041070472449064255,0.006389722228050232
1783002533831442200,3.399442138671875,-0.012385030277073383,0.04574591666460037,0.0385788157582283
1783002533841494000,3.409493896484375,-0.01631079614162445,0.015911322087049484,0.060693707317113876
1783002533851546400,3.41954638671875,-0.024398550391197205,-0.011745072901248932,0.06263941526412964
1783002533861598200,3.42959814453125,-0.029454560950398445,-0.01683783531188965,0.04242495447397232
1783002533871650300,3.439650390625,-0.046538472175598145,-0.023865118622779846,-0.01986345276236534
1783002533881701000,3.449701171875,-0.05264004319906235,-0.019337212666869164,-0.08107887208461761
1783002533891753200,3.459753173828125,-0.058092065155506134,-0.013526461087167263,-0.12010882794857025
1783002533901805000,3.46980517578125,-0.06887839734554291,0.007921572774648666,-0.13333329558372498
1783002533911857200,3.479857177734375,-0.056541040539741516,0.015430089086294174,-0.12474726140499115
1783002533921909000,3.489908935546875,-0.03357527032494545,0.015033011324703693,-0.09055919200181961
1783002533931961000,3.499961181640625,-0.020146014168858528,0.02027118392288685,-0.0034115093294531107
1783002533942012200,3.51001220703125,-0.006555637344717979,0.014683072455227375,0.09130514413118362
1783002533952064300,3.520064208984375,-0.001972337020561099,-0.014079599641263485,0.14427515864372253
1783002533962116400,3.530116455078125,-0.004458131734281778,-0.0303946565836668,0.142917200922966
1783002533972168200,3.540168212890625,0.000333161442540586,-0.01715368591248989,0.11372097581624985
1783002533982220300,3.55022021484375,-0.0003153182624373585,-0.003371029393747449,0.06258668005466461
1783002533992272100,3.560272216796875,-0.0030927290208637714,0.0023755396250635386,-0.005026982631534338
1783002534002323200,3.5703232421875,-0.0011792477453127503,0.009298160672187805,-0.055939964950084686
1783002534012375000,3.580375,-0.007084274664521217,-0.004087686073035002,-0.08278942108154297
1783002534022427100,3.59042724609375,-0.00872345082461834,-0.01896250620484352,-0.06700193881988525
1783002534032479200,3.600479248046875,-0.0041002025827765465,-0.032518528401851654,-0.023754332214593887
1783002534042531300,3.61053125,-0.013660685159265995,-0.04926741495728493,0.027586353942751884
1783002534052584200,3.620584228515625,-0.01661652699112892,-0.05236094072461128,0.07499701529741287
1783002534062635300,3.63063525390625,-0.01185133308172226,-0.032102808356285095,0.0938950702548027
1783002534072687000,3.64068701171875,-0.004256263840943575,0.0001954760227818042,0.09146972745656967
1783002534082739200,3.6507392578125,0.002767290687188506,0.004514590837061405,0.05951951816678047
1783002534092791000,3.660791015625,-0.0032147017773240805,-0.0007126618875190616,0.011755459010601044
1783002534102843400,3.670843505859375,-0.002784334821626544,0.02443636767566204,-0.026461169123649597
1783002534112895200,3.680895263671875,0.017551563680171967,0.043906472623348236,-0.05682386830449104
1783002534122946300,3.6909462890625,0.026860643178224564,0.02369813807308674,-0.053280264139175415
1783002534132998100,3.700998046875,0.024989506229758263,0.024342091754078865,-0.03226259723305702
1783002534143050200,3.71105029296875,0.03706534206867218,0.0073079802095890045,-0.02864203043282032
1783002534153102000,3.72110205078125,0.0374445766210556,-0.025844646617770195,-0.03948961943387985
1783002534163154200,3.731154296875,0.02713947556912899,-0.04971322789788246,-0.05628591030836105
1783002534173206000,3.7412060546875,0.014331002719700336,-0.05006450042128563,-0.07984290271997452
1783002534183257000,3.751257080078125,0.011486480012536049,-0.03744138032197952,-0.08775009214878082
1783002534193309200,3.76130908203125,0.006923419889062643,-0.013925403356552124,-0.0916723981499672
1783002534203361300,3.771361328125,0.004032824654132128,0.009211874566972256,-0.0757560133934021
1783002534213413000,3.7814130859375,0.0032413334120064974,0.03235607594251633,-0.044410340487957
1783002534223465200,3.79146533203125,-0.0007307713967747986,0.03827787935733795,-0.011260110884904861
1783002534233517000,3.80151708984375,-0.000678307143971324,0.028974127024412155,0.003641073824837804
1783002534243568000,3.811568115234375,0.002776611829176545,0.02377190813422203,-0.00014141385327093303
1783002534253620200,3.8216201171875,0.01396002434194088,0.02104989066720009,-0.008472580462694168
1783002534263672000,3.831672119140625,0.014288924634456635,0.021578527987003326,-0.017825601622462273
1783002534273724200,3.84172412109375,0.01642477884888649,0.027829499915242195,-0.022358834743499756
1783002534283776300,3.8517763671875,0.01973668672144413,0.03305382281541824,-0.018866632133722305
1783002534293828400,3.861828369140625,0.022409701719880104,0.01588389091193676,-0.009885653853416443
1783002534303879200,3.871879150390625,0.026277942582964897,-0.005350024439394474,0.008855543099343777
1783002534313931300,3.88193115234375,0.01992790214717388,-0.018198445439338684,0.03286926820874214
1783002534323983000,3.891983154296875,0.0191904716193676,-0.027417242527008057,0.05167943984270096
1783002534334035200,3.90203515625,0.02033376693725586,-0.018546786159276962,0.06460829079151154
1783002534344087000,3.912087158203125,0.020615795627236366,-0.0006801713607273996,0.057983141392469406
1783002534354139100,3.92213916015625,0.015073491260409355,0.01642078533768654,0.030531544238328934
1783002534364190200,3.932190185546875,0.011915781535208225,0.0316372886300087,-0.005335643421858549
1783002534374242000,3.942241943359375,0.00689039658755064,0.03803872689604759,-0.03639236092567444
1783002534384294100,3.952294189453125,0.004176901653409004,0.0296135526150465,-0.051717787981033325
1783002534394346200,3.96234619140625,0.004215517546981573,0.010465956293046474,-0.04616456478834152
1783002534404398000,3.972398193359375,0.002927346620708704,-0.015308382920920849,-0.025489913299679756
1783002534414450200,3.9824501953125,-0.0031529164407402277,-0.020183565095067024,0.006588927004486322
1783002534424501200,3.992501220703125,-0.0031672974582761526,-0.013349893502891064,0.02810140885412693
1783002534434553000,4.002552978515625,0.0003057308786083013,-0.016771256923675537,0.03201332688331604
1783002534444605200,4.012605224609375,0.001047421246767044,-0.002242914168164134,0.02268880046904087
1783002534454657000,4.022656982421875,0.0073684342205524445,0.011699799448251724,0.005874933209270239
1783002534464709400,4.03270947265625,0.01519013848155737,0.033666618168354034,-0.015588547103106976
1783002534474761200,4.04276123046875,0.010683802887797356,0.029804235324263573,-0.015662049874663353
1783002534484812300,4.052812255859375,0.0062301987782120705,0.004948153160512447,0.006797718815505505
1783002534494864100,4.062864013671875,0.004364654887467623,-0.014155233278870583,0.036921266466379166
1783002534504916200,4.072916259765625,-0.0016098808264359832,-0.03502216562628746,0.04221909120678902
1783002534514968000,4.082968017578125,-0.007423827890306711,-0.036746829748153687,0.030724888667464256
1783002534525020200,4.093020263671875,-0.00004234426160110161,-0.020436033606529236,0.001237571006640792
1783002534535072000,4.103072021484375,0.0012932310346513987,-0.009334379807114601,-0.022965237498283386
1783002534545123000,4.113123046875,0.0017475662752985954,-0.005847502965480089,-0.031125428155064583
1783002534555175200,4.123175048828125,-0.005814213305711746,-0.015918778255581856,-0.0206283126026392
1783002534565227300,4.133227294921875,-0.016111325472593307,-0.04315785691142082,0.00035659727291204035
1783002534575279400,4.143279296875,-0.028956018388271332,-0.07856698334217072,0.02646649442613125
1783002534585331200,4.153331298828125,-0.04386066645383835,-0.09938330948352814,0.048051416873931885
1783002534595383000,4.163383056640625,-0.04927673563361168,-0.07004512846469879,0.04755020886659622
1783002534605434000,4.17343408203125,-0.04190004616975784,-0.009912019595503807,0.027110978960990906
1783002534615486200,4.183486328125,-0.03544560819864273,0.015240205451846123,-0.000666322885081172
1783002534625538000,4.1935380859375,-0.02106507122516632,0.011905129067599773,-0.017553161829710007
1783002534635590100,4.203590087890625,-0.03099706396460533,0.0035358788445591927,-0.006608634255826473
1783002534645642200,4.213642333984375,-0.019777964800596237,-0.014616226777434349,0.013462811708450317
1783002534655694300,4.2236943359375,-0.025770343840122223,-0.0465155690908432,0.028931517153978348
1783002534665745200,4.2337451171875,-0.026991937309503555,-0.06312224268913269,0.035408057272434235
1783002534675797200,4.24379736328125,-0.025232385843992233,-0.08057926595211029,0.05367707833647728
1783002534685849000,4.25384912109375,-0.03154008463025093,-0.08571623265743256,0.09862297773361206
1783002534695901200,4.263901123046875,-0.049012549221515656,-0.11655750870704651,0.15385854244232178
1783002534705953000,4.273953125,-0.06354941427707672,-0.16637752950191498,0.18518637120723724
1783002534716005000,4.284005126953125,-0.0740867406129837,-0.13152074813842773,0.15411287546157837
1783002534726056200,4.29405615234375,-0.08207356184720993,-0.05705210193991661,0.052686113864183426
1783002534736108000,4.30410791015625,-0.08051108568906784,-0.04554405063390732,-0.06191769614815712
1783002534746160400,4.314160400390625,-0.09037383645772934,-0.05765796825289726,-0.12522876262664795
1783002534756212200,4.324212158203125,-0.10313570499420166,-0.029691848903894424,-0.11091000586748123
1783002534766264300,4.334264404296875,-0.11787896603345871,-0.01908261515200138,-0.054723698645830154
1783002534776316200,4.344316162109375,-0.10856322944164276,-0.02461959235370159,0.006706904619932175
1783002534786367200,4.3543671875,-0.09974097460508347,-0.040699493139982224,0.045404765754938126
1783002534796419000,4.364419189453125,-0.06954232603311539,-0.04770120978355408,0.07721462845802307
1783002534806471200,4.37447119140625,-0.038655515760183334,-0.04704926908016205,0.08973947167396545
1783002534816523000,4.38452294921875,-0.0354517325758934,-0.057496048510074615,0.07865459471940994
1783002534826575400,4.394575439453125,-0.034270089119672775,-0.051713526248931885,0.056104015558958054
1783002534836627200,4.404627197265625,-0.014964035712182522,-0.05350290611386299,0.03271853178739548
1783002534846678300,4.41467822265625,-0.0027691549621522427,-0.0309230275452137,0.014859373681247234
1783002534856730000,4.424730224609375,-0.011598865501582623,-0.007896006107330322,0.010017747059464455
1783002534866782200,4.4347822265625,-0.022098643705248833,0.024766599759459496,0.0005941512063145638
1783002534876834000,4.444833984375,-0.011034808121621609,0.044554151594638824,-0.019113773480057716
1783002534886886100,4.45488623046875,0.012625513598322868,0.05333539471030235,-0.02707715705037117
1783002534896938000,4.46493798828125,0.028777053579688072,0.04927939921617508,0.004920722916722298
1783002534906989000,4.474989013671875,0.034687139093875885,0.005146292503923178,0.03754204884171486
1783002534917041200,4.485041259765625,0.033056486397981644,-0.012738698162138462,0.06294035166501999
1783002534927093200,4.49509326171875,0.031198665499687195,-0.03031902387738228,0.06622589379549026
1783002534937145300,4.505145263671875,0.03357766568660736,-0.03277312591671944,0.054785482585430145
1783002534947197200,4.515197265625,0.030374150723218918,-0.03415956720709801,0.03877509385347366
1783002534957249300,4.525249267578125,0.016864733770489693,-0.026824956759810448,0.014733672142028809
1783002534967300000,4.535300048828125,0.010485930368304253,-0.014214355498552322,-0.021804098039865494
1783002534977352200,4.545352294921875,-0.00022397184511646628,-0.006252835970371962,-0.06448791176080704
1783002534987404000,4.555404052734375,-0.017785388976335526,0.02327576093375683,-0.09183058887720108
1783002534997456100,4.5654560546875,-0.02714480273425579,0.042033471167087555,-0.09697075188159943
1783002535007508200,4.57550830078125,-0.023392939940094948,0.025238510221242905,-0.07701515406370163
1783002535017560300,4.585560302734375,-0.018392322584986687,0.01074026245623827,-0.03206792101264
1783002535027611100,4.595611083984375,-0.021214473992586136,0.03603097051382065,0.019906597211956978
1783002535037663200,4.605663330078125,-0.01187956240028143,0.04932360723614693,0.05902949720621109
1783002535047715000,4.615715087890625,-0.0014679343439638615,0.0368187353014946,0.06499950587749481
1783002535057766100,4.62576611328125,0.008525577373802662,0.024327710270881653,0.053155362606048584
1783002535067818500,4.635818603515625,0.008696019649505615,0.028013525530695915,0.029336582869291306
1783002535077870300,4.645870361328125,0.003108441596850753,0.021697305142879486,-0.0035332157276570797
1783002535087921400,4.65592138671875,-0.0007837683078832924,0.026267822831869125,-0.02395300380885601
1783002535097973200,4.66597314453125,-0.01019617822021246,0.059113387018442154,-0.036558810621500015
1783002535108025300,4.676025390625,-0.028362132608890533,0.06944751739501953,-0.04505855590105057
1783002535118077200,4.6860771484375,-0.04122892767190933,0.049008022993803024,-0.05507497116923332
1783002535128129300,4.69612939453125,-0.04458744078874588,0.021864019334316254,-0.03512975946068764
1783002535138181000,4.70618115234375,-0.050346262753009796,0.003412308171391487,0.004293015692383051
1783002535148232200,4.716232177734375,-0.0473395511507988,-0.00007483482477255166,0.04543858766555786
1783002535158284300,4.7262841796875,-0.03446716442704201,0.012207131832838058,0.06927334517240524
1783002535168336400,4.73633642578125,-0.01937902346253395,0.032042089849710464,0.06814949214458466
1783002535178388500,4.746388427734375,-0.005438707303255796,0.04410301148891449,0.04735419899225235
1783002535188440300,4.7564404296875,0.006198773626238108,0.05847609415650368,0.024271517992019653
1783002535198492400,4.766492431640625,0.0016327840276062489,0.06636863946914673,-0.0010098706698045135
1783002535208544300,4.776544189453125,0.003232811111956835,0.05927477404475212,-0.020717529579997063
1783002535218595300,4.78659521484375,0.0014207963831722736,0.02599191851913929,-0.032876189798116684
1783002535228647200,4.796647216796875,-0.011651862412691116,-0.013793842867016792,-0.024518925696611404
1783002535238699300,4.80669921875,-0.015364042483270168,-0.019704995676875114,0.013512346893548965
1783002535248751400,4.81675146484375,-0.009546900168061256,-0.002100701443850994,0.06154432147741318
1783002535258803500,4.826803466796875,-0.006762032397091389,0.01991831511259079,0.08938687294721603
1783002535268855300,4.836855224609375,-0.010610832832753658,0.04541994631290436,0.10430962592363358
1783002535278906400,4.84690625,-0.0003909520455636084,0.01967942900955677,0.0839681401848793
1783002535288958200,4.856958251953125,0.010174606926739216,0.04868284985423088,0.06651138514280319
1783002535299010300,4.86701025390625,0.026486467570066452,0.05858661234378815,0.05209888890385628
1783002535309062100,4.877062255859375,0.026544790714979172,0.0781928077340126,0.038598258048295975
1783002535319114200,4.8871142578125,0.021319402381777763,0.05711708217859268,0.03773512691259384
1783002535329166300,4.897166259765625,0.01774650625884533,0.023690681904554367,0.040161799639463425
1783002535339217200,4.907217041015625,0.02075641043484211,0.00785392802208662,0.04123345762491226
1783002535349269500,4.91726953125,0.01281832717359066,-0.0070222229696810246,0.029772009700536728
1783002535359321300,4.9273212890625,0.006505303550511599,-0.03129267692565918,0.0013920343481004238
1783002535369373400,4.93737353515625,0.00410526292398572,-0.04224332794547081,-0.031246336176991463
1783002535379425300,4.94742529296875,0.006110623013228178,-0.05746994912624359,-0.0427839495241642
1783002535389477400,4.957477294921875,0.007762582041323185,-0.06828344613313675,-0.023256320506334305
1783002535399528200,4.967528076171875,0.0014476943761110306,-0.05324298143386841,0.006973220966756344
1783002535409580300,4.977580322265625,0.010878746397793293,-0.020418189465999603,0.018008828163146973
1783002535419632000,4.987632080078125,0.01974148117005825,0.015923039987683296,0.01804664544761181
1783002535429684500,4.9976845703125,0.02508910745382309,0.036860015243291855,0.015852199867367744
1783002535439736300,5.007736328125,0.027047064155340195,0.020684238523244858,0.02606036327779293
1783002535449788400,5.017788330078125,0.026749055832624435,0.0005017395596951246,0.04161641746759415
1783002535459839200,5.027839111328125,0.03750183433294296,0.003525226376950741,0.05678924545645714
1783002535469891300,5.037891357421875,0.04553792253136635,0.0059694754891097546,0.0696168914437294
1783002535479943200,5.047943115234375,0.02275404892861843,-0.026212429627776146,0.08456308394670486
1783002535489995300,5.057995361328125,-0.008015848696231842,-0.03572151064872742,0.0788029357790947
1783002535500047000,5.068047119140625,-0.012367986142635345,-0.03316807374358177,0.026004701852798462
1783002535510099500,5.078099365234375,-0.004328169394284487,0.013563745655119419,-0.036141227930784225
1783002535520150300,5.088150390625,-0.01242098305374384,0.03397767245769501,-0.02540096454322338
1783002535530202400,5.098202392578125,-0.0758012905716896,0.06306152045726776,0.1208643689751625
1783002535540254500,5.10825439453125,-0.10211997479200363,0.04832145944237709,0.16700203716754913
1783002535550306300,5.118306396484375,-0.07866418361663818,0.06618408113718033,0.11055580526590347
1783002535560358400,5.1283583984375,-0.053519416600465775,0.027949076145887375,-0.005933522712439299
1783002535570410200,5.13841015625,-0.011408449150621891,-0.008708003908395767,-0.09347136318683624
1783002535580461300,5.14846142578125,0.0243692547082901,0.03050944022834301,-0.12754704058170319
1783002535590513200,5.15851318359375,0.04024888575077057,0.03747280687093735,-0.11949869990348816
1783002535600565200,5.168565185546875,0.04721864312887192,0.019653595983982086,-0.0814322754740715
1783002535610617300,5.178617431640625,0.035947348922491074,0.016983510926365852,0.03232225403189659
1783002535620669400,5.18866943359375,0.018811238929629326,-0.005763346794992685,0.1700071543455124
