time,seconds_elapsed,z,y,x
1783003191932509700,0.074509765625,-0.85302734375,-0.33465576171875,0.1062469482421875
1783003191942561500,0.0845615234375,-0.8061676025390625,-0.3348388671875,0.0739898681640625
1783003191952612600,0.094612548828125,-0.7615814208984375,-0.3333587646484375,0.0417938232421875
1783003191962664700,0.104664794921875,-0.7228546142578125,-0.3595123291015625,-0.016998291015625
1783003191972715500,0.114715576171875,-0.761566162109375,-0.403472900390625,-0.044921875
1783003191982767600,0.124767578125,-0.8060302734375,-0.3906402587890625,-0.02459716796875
1783003191992818700,0.134818603515625,-0.8431243896484375,-0.3493499755859375,-0.0258941650390625
1783003192002870500,0.14487060546875,-0.9102325439453125,-0.32220458984375,-0.0577545166015625
1783003192012923000,0.1549228515625,-0.8834381103515625,-0.306640625,-0.131927490234375
1783003192022973700,0.1649736328125,-0.740142822265625,-0.315277099609375,-0.2510223388671875
1783003192033025800,0.17502587890625,-0.5690460205078125,-0.3687286376953125,-0.3116302490234375
1783003192043076900,0.185076904296875,-0.43011474609375,-0.3885040283203125,-0.2994232177734375
1783003192053128700,0.195128662109375,-0.4241943359375,-0.36468505859375,-0.2845611572265625
1783003192063180800,0.205180908203125,-0.474151611328125,-0.2868499755859375,-0.2571868896484375
1783003192073231600,0.215231689453125,-0.505828857421875,-0.1519012451171875,-0.3272705078125
1783003192083283700,0.22528369140625,-0.4263458251953125,-0.0858001708984375,-0.2534332275390625
1783003192093334800,0.235334716796875,-0.48651123046875,-0.00091552734375,-0.3115234375
1783003192103386600,0.24538671875,-0.58880615234375,0.0499420166015625,-0.3715667724609375
1783003192113437700,0.255437744140625,-0.6460723876953125,-0.0439605712890625,-0.348724365234375
1783003192123489500,0.265489501953125,-0.8766632080078125,-0.1443939208984375,-0.06549072265625
1783003192133541600,0.275541748046875,-1.166961669921875,-0.2729644775390625,0.4455718994140625
1783003192143592700,0.2855927734375,-1.149658203125,-0.5233917236328125,0.4762725830078125
1783003192153644500,0.29564453125,-1.2212982177734375,-0.6468048095703125,0.1258087158203125
1783003192163695600,0.305695556640625,-1.6247406005859375,-0.469879150390625,0.039886474609375
1783003192173747700,0.315747802734375,-1.8532562255859375,-0.1451416015625,0.127471923828125
1783003192183798500,0.325798583984375,-2.248291015625,-0.0579833984375,0.1911468505859375
1783003192193851000,0.335850830078125,-2.5692291259765625,-0.1212158203125,0.165069580078125
1783003192203902700,0.34590283203125,-2.532318115234375,-0.08831787109375,0.063262939453125
1783003192213953800,0.355953857421875,-2.489044189453125,-0.0091094970703125,-0.0407562255859375
1783003192224005600,0.366005615234375,-2.40252685546875,-0.059051513671875,-0.0943756103515625
1783003192234056700,0.376056640625,-2.304168701171875,-0.2506256103515625,-0.08197021484375
1783003192244108800,0.38610888671875,-2.2191619873046875,-0.4672698974609375,-0.0251312255859375
1783003192254159600,0.39615966796875,-2.0963592529296875,-0.701416015625,0.05072021484375
1783003192264211700,0.406211669921875,-1.955963134765625,-0.7743072509765625,0.0897216796875
1783003192274263600,0.416263671875,-1.8287506103515625,-0.7844085693359375,0.1175079345703125
1783003192284314600,0.426314697265625,-1.65362548828125,-0.86834716796875,0.132720947265625
1783003192294366700,0.43636669921875,-1.4789886474609375,-0.9229888916015625,0.1186065673828125
1783003192304417500,0.44641748046875,-1.3159027099609375,-0.89453125,0.0705108642578125
1783003192314469600,0.4564697265625,-1.162017822265625,-0.8184661865234375,0.0141754150390625
1783003192324520700,0.466520751953125,-0.9941253662109375,-0.7100067138671875,-0.0627899169921875
1783003192334572500,0.476572509765625,-0.84796142578125,-0.58966064453125,-0.1420745849609375
1783003192344624600,0.486624755859375,-0.710968017578125,-0.482025146484375,-0.18701171875
1783003192354675700,0.49667578125,-0.5675506591796875,-0.4029693603515625,-0.2212982177734375
1783003192364727800,0.506727783203125,-0.4658355712890625,-0.3231048583984375,-0.253173828125
1783003192374778600,0.516778564453125,-0.40728759765625,-0.249755859375,-0.2500762939453125
1783003192384830700,0.526830810546875,-0.3600921630859375,-0.19964599609375,-0.2156829833984375
1783003192394881800,0.5368818359375,-0.3268890380859375,-0.1617889404296875,-0.2089080810546875
1783003192404933600,0.54693359375,-0.2942047119140625,-0.1341552734375,-0.18023681640625
1783003192414985700,0.55698583984375,-0.26934814453125,-0.1217193603515625,-0.130340576171875
1783003192425036500,0.56703662109375,-0.26837158203125,-0.1267242431640625,-0.089752197265625
1783003192435088600,0.577088623046875,-0.2705230712890625,-0.134857177734375,-0.0484619140625
1783003192445139700,0.5871396484375,-0.257659912109375,-0.115081787109375,-0.027435302734375
1783003192455191600,0.597191650390625,-0.2323455810546875,-0.0943450927734375,-0.04205322265625
1783003192465242600,0.60724267578125,-0.2158660888671875,-0.1051788330078125,-0.05889892578125
1783003192475294500,0.61729443359375,-0.1851654052734375,-0.0933837890625,-0.0835418701171875
1783003192485346600,0.6273466796875,-0.1754150390625,-0.0571441650390625,-0.133087158203125
1783003192495397600,0.637397705078125,-0.1762542724609375,-0.0311431884765625,-0.149566650390625
1783003192505449700,0.64744970703125,-0.1675262451171875,-0.0327301025390625,-0.1570587158203125
1783003192515500800,0.657500732421875,-0.167327880859375,-0.0519866943359375,-0.144805908203125
1783003192525552600,0.667552734375,-0.1671600341796875,-0.099639892578125,-0.1266937255859375
1783003192535604700,0.677604736328125,-0.1750030517578125,-0.1357574462890625,-0.138092041015625
1783003192545655800,0.68765576171875,-0.1787872314453125,-0.142791748046875,-0.15191650390625
1783003192555707600,0.697707763671875,-0.183837890625,-0.1340789794921875,-0.160186767578125
1783003192565758700,0.7077587890625,-0.207275390625,-0.1195220947265625,-0.1350250244140625
1783003192575810600,0.717810546875,-0.2180328369140625,-0.1281890869140625,-0.091064453125
1783003192585861600,0.727861572265625,-0.2222137451171875,-0.14825439453125,-0.0680999755859375
1783003192595913700,0.737913818359375,-0.238372802734375,-0.1331787109375,-0.0848388671875
1783003192605964500,0.747964599609375,-0.26580810546875,-0.084625244140625,-0.0795135498046875
1783003192616016600,0.7580166015625,-0.2790679931640625,-0.0743255615234375,-0.060150146484375
1783003192626068500,0.768068359375,-0.2986907958984375,-0.102813720703125,-0.052947998046875
1783003192636119600,0.77811962890625,-0.35162353515625,-0.1373291015625,-0.0761566162109375
1783003192646171600,0.788171630859375,-0.42596435546875,-0.13427734375,-0.1041717529296875
1783003192656222500,0.798222412109375,-0.5101776123046875,-0.1107025146484375,-0.117889404296875
1783003192666274600,0.808274658203125,-0.6267547607421875,-0.117523193359375,-0.1044464111328125
1783003192676326700,0.81832666015625,-0.77752685546875,-0.1268310546875,-0.10040283203125
1783003192686377700,0.828377685546875,-0.9276580810546875,-0.094818115234375,-0.13360595703125
1783003192696429800,0.838429931640625,-1.07171630859375,-0.0550079345703125,-0.1772003173828125
1783003192706480600,0.848480712890625,-1.155181884765625,-0.0299224853515625,-0.2165069580078125
1783003192716532700,0.85853271484375,-1.225982666015625,-0.0550537109375,-0.2181549072265625
1783003192726583800,0.868583740234375,-1.34283447265625,-0.1771240234375,-0.1423797607421875
1783003192736635600,0.8786357421875,-1.5368499755859375,-0.3437957763671875,-0.0325469970703125
1783003192746688000,0.88868798828125,-1.7152252197265625,-0.4826507568359375,0.0811920166015625
1783003192756738800,0.89873876953125,-1.881439208984375,-0.596466064453125,0.153472900390625
1783003192766791000,0.908791015625,-2.0323944091796875,-0.6595306396484375,0.1432342529296875
1783003192776842000,0.918842041015625,-2.129791259765625,-0.6771697998046875,0.068572998046875
1783003192786893800,0.928893798828125,-2.168609619140625,-0.6544952392578125,-0.0386962890625
1783003192796945000,0.93894482421875,-2.08966064453125,-0.5687408447265625,-0.141387939453125
1783003192806996700,0.948996826171875,-1.914642333984375,-0.5397491455078125,-0.2343292236328125
1783003192817048800,0.959048828125,-1.78125,-0.625579833984375,-0.2625885009765625
1783003192827100000,0.969099853515625,-1.7263336181640625,-0.8423614501953125,-0.15386962890625
1783003192837151700,0.97915185546875,-1.690582275390625,-1.0762176513671875,0.053985595703125
1783003192847202800,0.989202880859375,-1.619720458984375,-1.199066162109375,0.225433349609375
1783003192857254700,0.999254638671875,-1.5614166259765625,-1.267486572265625,0.2891082763671875
1783003192867305700,1.0093056640625,-1.5077056884765625,-1.291015625,0.226165771484375
1783003192877357800,1.01935791015625,-1.4494171142578125,-1.1964569091796875,0.0700225830078125
1783003192887409700,1.02940966796875,-1.4170379638671875,-1.001678466796875,-0.0615081787109375
1783003192897460700,1.039460693359375,-1.3839874267578125,-0.765167236328125,-0.1168975830078125
1783003192907512800,1.049512939453125,-1.32379150390625,-0.5384521484375,-0.1518096923828125
1783003192917563600,1.059563720703125,-1.2789154052734375,-0.3519439697265625,-0.2408447265625
1783003192927616000,1.069615966796875,-1.3291015625,-0.2317657470703125,-0.339569091796875
1783003192937666800,1.079666748046875,-1.379730224609375,-0.1664276123046875,-0.44195556640625
1783003192947719000,1.089718994140625,-1.33416748046875,-0.1585235595703125,-0.48797607421875
1783003192957770800,1.099770751953125,-1.237396240234375,-0.19586181640625,-0.5308685302734375
1783003192967821800,1.10982177734375,-1.1437835693359375,-0.2363739013671875,-0.5598907470703125
1783003192977874000,1.1198740234375,-1.0309906005859375,-0.25750732421875,-0.52691650390625
1783003192987924700,1.1299248046875,-0.8994903564453125,-0.2688751220703125,-0.4991302490234375
1783003192997976800,1.139976806640625,-0.7735748291015625,-0.2703399658203125,-0.50592041015625
1783003193008028000,1.15002783203125,-0.678558349609375,-0.300628662109375,-0.51019287109375
1783003193018079700,1.160079833984375,-0.63153076171875,-0.3272552490234375,-0.4633331298828125
1783003193028131800,1.1701318359375,-0.577239990234375,-0.340118408203125,-0.371063232421875
1783003193038182700,1.1801826171875,-0.52752685546875,-0.3233489990234375,-0.2895050048828125
1783003193048234800,1.19023486328125,-0.519378662109375,-0.272125244140625,-0.21270751953125
1783003193058285800,1.200285888671875,-0.514739990234375,-0.2331085205078125,-0.1422576904296875
1783003193068337700,1.210337646484375,-0.486572265625,-0.2188873291015625,-0.0570526123046875
1783003193078388700,1.220388671875,-0.4554290771484375,-0.19512939453125,0.0027313232421875
1783003193088440800,1.23044091796875,-0.4328155517578125,-0.159454345703125,0.0183258056640625
1783003193098493000,1.240492919921875,-0.409454345703125,-0.143463134765625,-0.0034637451171875
1783003193108544000,1.2505439453125,-0.3750762939453125,-0.1460723876953125,-0.0323028564453125
1783003193118595800,1.260595947265625,-0.3572845458984375,-0.1580963134765625,-0.06231689453125
1783003193128647000,1.27064697265625,-0.3697357177734375,-0.1738739013671875,-0.0873260498046875
1783003193138698800,1.28069873046875,-0.3791351318359375,-0.198089599609375,-0.096038818359375
1783003193148749800,1.290749755859375,-0.3851470947265625,-0.2377471923828125,-0.088775634765625
1783003193158802000,1.300802001953125,-0.41070556640625,-0.271240234375,-0.0612030029296875
1783003193168853800,1.310853759765625,-0.4439239501953125,-0.2803955078125,-0.023162841796875
1783003193178904800,1.32090478515625,-0.504180908203125,-0.269256591796875,0.0286712646484375
1783003193188956700,1.330956787109375,-0.553314208984375,-0.2405242919921875,0.0720367431640625
1783003193199007700,1.3410078125,-0.60772705078125,-0.19384765625,0.095367431640625
1783003193209059800,1.351059814453125,-0.7198028564453125,-0.13800048828125,0.1070404052734375
1783003193219110700,1.361110595703125,-0.8706817626953125,-0.0868072509765625,0.1060028076171875
1783003193229162800,1.371162841796875,-0.9763946533203125,-0.03570556640625,0.0728912353515625
1783003193239214800,1.38121484375,-1.0247344970703125,0.0255889892578125,0.014801025390625
1783003193249266000,1.391265869140625,-1.04913330078125,0.0731964111328125,-0.01580810546875
1783003193259317800,1.40131787109375,-1.084136962890625,0.0982818603515625,-0.022705078125
1783003193269368800,1.411368896484375,-1.1370391845703125,0.0889434814453125,-0.01385498046875
1783003193279421000,1.4214208984375,-1.19970703125,0.026275634765625,0.0238800048828125
1783003193289471700,1.4314716796875,-1.277679443359375,-0.060028076171875,0.109527587890625
1783003193299523800,1.44152392578125,-1.3759002685546875,-0.13818359375,0.237396240234375
1783003193309575700,1.45157568359375,-1.556610107421875,-0.23388671875,0.3157806396484375
1783003193319626800,1.461626708984375,-1.79071044921875,-0.310882568359375,0.259674072265625
1783003193329678800,1.471678955078125,-1.779327392578125,-0.2988433837890625,0.0364990234375
1783003193339729700,1.481729736328125,-1.6595001220703125,-0.21282958984375,-0.265625
1783003193349781800,1.49178173828125,-1.5445709228515625,-0.14013671875,-0.463470458984375
1783003193359832800,1.501832763671875,-1.3730926513671875,-0.2228546142578125,-0.5128326416015625
1783003193369884700,1.511884765625,-1.2413787841796875,-0.473297119140625,-0.4527740478515625
1783003193379936800,1.521936767578125,-1.190338134765625,-0.7731170654296875,-0.2723846435546875
1783003193389987600,1.531987548828125,-1.1954803466796875,-0.99566650390625,-0.071197509765625
1783003193400039700,1.542039794921875,-1.18804931640625,-1.1675262451171875,0.126129150390625
1783003193410090800,1.5520908203125,-1.1606292724609375,-1.3923187255859375,0.233551025390625
1783003193420142800,1.562142822265625,-1.201751708984375,-1.578857421875,0.101470947265625
1783003193430194000,1.57219384765625,-1.206634521484375,-1.5064544677734375,-0.050201416015625
1783003193440245800,1.582245849609375,-1.075103759765625,-1.1802215576171875,-0.144927978515625
1783003193450297900,1.5922978515625,-0.9988861083984375,-0.9065704345703125,-0.2294464111328125
1783003193460349000,1.602348876953125,-0.931854248046875,-0.736175537109375,-0.274078369140625
1783003193470400800,1.61240087890625,-0.8172760009765625,-0.547607421875,-0.3083343505859375
1783003193480451800,1.622451904296875,-0.7013397216796875,-0.3610076904296875,-0.2744293212890625
1783003193490503700,1.632503662109375,-0.6212310791015625,-0.2222900390625,-0.2814483642578125
1783003193500554800,1.6425546875,-0.585205078125,-0.1092529296875,-0.2647247314453125
1783003193510606800,1.65260693359375,-0.5892333984375,-0.0621185302734375,-0.232269287109375
1783003193520658700,1.66265869140625,-0.6575469970703125,-0.0861663818359375,-0.20367431640625
1783003193530709800,1.672709716796875,-0.756195068359375,-0.13409423828125,-0.1917572021484375
1783003193540761600,1.68276171875,-0.7776641845703125,-0.151092529296875,-0.2315521240234375
1783003193550812700,1.692812744140625,-0.7856903076171875,-0.1328582763671875,-0.3011932373046875
1783003193560864800,1.70286474609375,-0.7723541259765625,-0.082855224609375,-0.3101959228515625
1783003193570915600,1.71291552734375,-0.7201690673828125,-0.04901123046875,-0.2479400634765625
1783003193580968000,1.722968017578125,-0.6419219970703125,-0.032989501953125,-0.228057861328125
1783003193591019800,1.733019775390625,-0.6005859375,0.03192138671875,-0.2403411865234375
1783003193601070800,1.74307080078125,-0.604461669921875,0.07421875,-0.2015533447265625
1783003193611123000,1.753123046875,-0.6061248779296875,0.0161590576171875,-0.11016845703125
1783003193621173800,1.763173828125,-0.6357879638671875,-0.07672119140625,-0.0453338623046875
1783003193631225900,1.773225830078125,-0.6566162109375,-0.1537933349609375,0.000732421875
1783003193641277000,1.78327685546875,-0.61163330078125,-0.196533203125,0.0458831787109375
1783003193651328800,1.793328857421875,-0.575286865234375,-0.1861419677734375,0.0579071044921875
1783003193661380900,1.803380859375,-0.56207275390625,-0.123260498046875,0.027740478515625
1783003193671431700,1.813431640625,-0.5081939697265625,-0.0433502197265625,0.0134429931640625
1783003193681483800,1.82348388671875,-0.451690673828125,0.005523681640625,0.01141357421875
1783003193691534800,1.833534912109375,-0.402862548828125,0.0209503173828125,0.0155029296875
1783003193701586700,1.843586669921875,-0.39581298828125,0.0338134765625,0.027587890625
1783003193711637800,1.8536376953125,-0.4043121337890625,0.0522308349609375,0.0301971435546875
1783003193721689600,1.863689697265625,-0.4164581298828125,0.0308685302734375,0.011627197265625
1783003193731742000,1.873741943359375,-0.4388427734375,-0.0063323974609375,-0.0150604248046875
1783003193741792800,1.883792724609375,-0.4743499755859375,-0.0362396240234375,-0.048065185546875
1783003193751844900,1.893844970703125,-0.4994659423828125,-0.0855560302734375,-0.0814971923828125
1783003193761896000,1.90389599609375,-0.5195159912109375,-0.1459197998046875,-0.1263580322265625
1783003193771947800,1.91394775390625,-0.5642242431640625,-0.1906890869140625,-0.160064697265625
1783003193781998800,1.923998779296875,-0.6002197265625,-0.2269439697265625,-0.1936492919921875
1783003193792051000,1.934051025390625,-0.66015625,-0.22930908203125,-0.23175048828125
1783003193802102800,1.944102783203125,-0.7112579345703125,-0.2069854736328125,-0.2280731201171875
1783003193812153900,1.95415380859375,-0.77001953125,-0.2105712890625,-0.223480224609375
1783003193822205700,1.964205810546875,-0.8160552978515625,-0.2295379638671875,-0.238555908203125
1783003193832256800,1.9742568359375,-0.8358306884765625,-0.3053131103515625,-0.215728759765625
1783003193842308900,1.984308837890625,-0.8854827880859375,-0.53985595703125,-0.150604248046875
1783003193852359700,1.994359619140625,-0.9776763916015625,-0.8779296875,0.00152587890625
1783003193862411800,2.004411865234375,-1.1233673095703125,-1.2382354736328125,0.1414794921875
1783003193872463600,2.014463623046875,-1.2870635986328125,-1.4974212646484375,0.268218994140625
1783003193882514700,2.0245146484375,-1.5208892822265625,-1.525238037109375,0.3184814453125
1783003193892566800,2.03456689453125,-1.69317626953125,-1.3795928955078125,0.3334503173828125
1783003193902617600,2.04461767578125,-1.775848388671875,-1.2412567138671875,0.238616943359375
1783003193912670000,2.054669921875,-2.00311279296875,-0.972442626953125,0.1577911376953125
1783003193922721000,2.064720947265625,-1.9425201416015625,-1.0012054443359375,0.1287841796875
1783003193932772900,2.07477294921875,-1.8968353271484375,-1.0580902099609375,0.0611572265625
1783003193942825000,2.084824951171875,-1.8831634521484375,-0.970367431640625,0.04296875
1783003193952875800,2.094875732421875,-1.7769775390625,-1.0678863525390625,-0.0258331298828125
1783003193962927900,2.104927978515625,-1.7126617431640625,-1.1646270751953125,-0.1484222412109375
1783003193972979000,2.11497900390625,-1.6465911865234375,-1.1808929443359375,-0.251068115234375
1783003193983030800,2.12503076171875,-1.553253173828125,-1.087921142578125,-0.3513946533203125
1783003193993081900,2.135081787109375,-1.4587249755859375,-0.918914794921875,-0.51531982421875
1783003194003133700,2.1451337890625,-1.347015380859375,-0.6767730712890625,-0.6022796630859375
1783003194013185800,2.155185791015625,-1.1947784423828125,-0.4498291015625,-0.5730743408203125
1783003194023236900,2.16523681640625,-1.004638671875,-0.2705230712890625,-0.524688720703125
1783003194033288700,2.175288818359375,-0.817230224609375,-0.1227874755859375,-0.4755859375
1783003194043339800,2.18533984375,-0.7035980224609375,-0.00640869140625,-0.4161376953125
1783003194053391600,2.1953916015625,-0.6634521484375,0.053619384765625,-0.324371337890625
1783003194063442700,2.205442626953125,-0.6070556640625,0.0049896240234375,-0.250213623046875
1783003194073494800,2.215494873046875,-0.5637664794921875,-0.090087890625,-0.21563720703125
1783003194083547000,2.225546875,-0.5169219970703125,-0.163421630859375,-0.1976318359375
1783003194093598000,2.235597900390625,-0.4517669677734375,-0.19696044921875,-0.18756103515625
1783003194103649800,2.24564990234375,-0.399383544921875,-0.196868896484375,-0.1881866455078125
1783003194113700900,2.255700927734375,-0.400115966796875,-0.1685333251953125,-0.1739501953125
1783003194123753000,2.2657529296875,-0.36865234375,-0.144622802734375,-0.1749114990234375
1783003194133803800,2.2758037109375,-0.2642364501953125,-0.151123046875,-0.1870880126953125
1783003194143855900,2.28585595703125,-0.2566680908203125,-0.147735595703125,-0.1426544189453125
1783003194153907700,2.29590771484375,-0.3173828125,-0.11773681640625,-0.0903778076171875
1783003194163958800,2.305958740234375,-0.3439178466796875,-0.0890960693359375,-0.06298828125
1783003194174011000,2.316010986328125,-0.3572540283203125,-0.0631561279296875,-0.054901123046875
1783003194184061700,2.326061767578125,-0.3707122802734375,-0.04144287109375,-0.0419769287109375
1783003194194113800,2.33611376953125,-0.395904541015625,-0.0564727783203125,-0.03314208984375
1783003194204164900,2.346164794921875,-0.4087066650390625,-0.0804443359375,-0.032562255859375
1783003194214216700,2.356216796875,-0.3906402587890625,-0.091766357421875,-0.05841064453125
1783003194224268800,2.366268798828125,-0.3582611083984375,-0.083831787109375,-0.103729248046875
1783003194234319600,2.376319580078125,-0.3473052978515625,-0.0698699951171875,-0.10211181640625
1783003194244372000,2.3863720703125,-0.3673858642578125,-0.0925445556640625,-0.0951995849609375
1783003194254422800,2.3964228515625,-0.402801513671875,-0.119049072265625,-0.0995941162109375
1783003194264475000,2.406474853515625,-0.4596710205078125,-0.1251983642578125,-0.1100311279296875
1783003194274526000,2.41652587890625,-0.4940948486328125,-0.12994384765625,-0.1378936767578125
1783003194284577800,2.426577880859375,-0.5349578857421875,-0.132080078125,-0.1352691650390625
1783003194294630000,2.4366298828125,-0.5931549072265625,-0.1351470947265625,-0.1439666748046875
1783003194304680700,2.4466806640625,-0.62164306640625,-0.117767333984375,-0.1905975341796875
1783003194314732800,2.45673291015625,-0.63525390625,-0.087799072265625,-0.2113189697265625
1783003194324783900,2.466783935546875,-0.7069091796875,-0.0760650634765625,-0.198028564453125
1783003194334835700,2.476835693359375,-0.8354949951171875,-0.0761260986328125,-0.1530303955078125
1783003194344886800,2.48688671875,-1.0098724365234375,-0.048126220703125,-0.1037139892578125
1783003194354938600,2.496938720703125,-1.1249237060546875,0.0064239501953125,-0.1093597412109375
1783003194364990700,2.50699072265625,-1.21099853515625,0.0466766357421875,-0.1429901123046875
1783003194375041800,2.517041748046875,-1.284088134765625,0.0565948486328125,-0.1433563232421875
1783003194385093600,2.52709375,-1.324951171875,0.0161590576171875,-0.169708251953125
1783003194395144700,2.537144775390625,-1.3846893310546875,-0.0829315185546875,-0.207916259765625
1783003194405196800,2.54719677734375,-1.4878082275390625,-0.2468109130859375,-0.128875732421875
1783003194415247600,2.55724755859375,-1.7293853759765625,-0.372894287109375,-0.01025390625
1783003194425300000,2.567300048828125,-1.9597015380859375,-0.4735565185546875,0.0603179931640625
1783003194435351800,2.577351806640625,-2.124725341796875,-0.4606475830078125,0.01458740234375
1783003194445403000,2.58740283203125,-2.2442779541015625,-0.3789520263671875,-0.073638916015625
1783003194455454700,2.597454833984375,-2.26837158203125,-0.3413238525390625,-0.1483917236328125
1783003194465505800,2.607505859375,-2.2003936767578125,-0.3185272216796875,-0.182037353515625
1783003194475558000,2.617557861328125,-2.1125946044921875,-0.3602447509765625,-0.1244354248046875
1783003194485608700,2.627608642578125,-2.018646240234375,-0.5293121337890625,-0.04534912109375
1783003194495660800,2.637660888671875,-1.8679656982421875,-0.7729034423828125,-0.023681640625
1783003194505712600,2.647712646484375,-1.7695465087890625,-0.9969940185546875,-0.022125244140625
1783003194515763700,2.657763671875,-1.7124786376953125,-1.140655517578125,-0.0363922119140625
1783003194525815800,2.66781591796875,-1.5297698974609375,-1.216888427734375,-0.12139892578125
1783003194535866600,2.67786669921875,-1.278961181640625,-1.2394866943359375,-0.228302001953125
1783003194545918700,2.687918701171875,-1.0520782470703125,-1.2439422607421875,-0.248779296875
1783003194555969800,2.6979697265625,-0.86810302734375,-1.222412109375,-0.2250213623046875
1783003194566021600,2.708021728515625,-0.72930908203125,-1.1578826904296875,-0.1744232177734375
1783003194576074000,2.718073974609375,-0.599517822265625,-1.054962158203125,-0.14044189453125
1783003194586124800,2.728124755859375,-0.474761962890625,-0.9140625,-0.1174468994140625
1783003194596177000,2.738177001953125,-0.3957977294921875,-0.751312255859375,-0.1029815673828125
1783003194606228000,2.74822802734375,-0.423431396484375,-0.6051025390625,-0.111724853515625
1783003194616279800,2.75827978515625,-0.4785308837890625,-0.4571990966796875,-0.10980224609375
1783003194626331000,2.768330810546875,-0.496063232421875,-0.3170013427734375,-0.0889739990234375
1783003194636382700,2.7783828125,-0.5522918701171875,-0.1884613037109375,-0.0860137939453125
1783003194646434800,2.788434814453125,-0.571258544921875,-0.0829925537109375,-0.0814666748046875
1783003194656486000,2.79848583984375,-0.538970947265625,-0.0397796630859375,-0.0930023193359375
1783003194666537700,2.808537841796875,-0.4827423095703125,-0.022003173828125,-0.0955810546875
1783003194676588800,2.8185888671875,-0.4261932373046875,-0.009033203125,-0.0754241943359375
1783003194686640600,2.828640625,-0.4074859619140625,0.01849365234375,-0.0692291259765625
1783003194696691200,2.838691162109375,-0.3744049072265625,0.016387939453125,-0.0712738037109375
1783003194706743300,2.848743408203125,-0.3203125,-0.0275726318359375,-0.08929443359375
1783003194716795100,2.858795166015625,-0.3199920654296875,-0.061370849609375,-0.124755859375
1783003194726846200,2.86884619140625,-0.275238037109375,-0.075439453125,-0.135833740234375
1783003194736898300,2.878898193359375,-0.2331390380859375,-0.1076507568359375,-0.144989013671875
1783003194746949000,2.88894921875,-0.240814208984375,-0.1287078857421875,-0.1343841552734375
1783003194757001500,2.89900146484375,-0.243865966796875,-0.1395263671875,-0.12188720703125
1783003194767052300,2.90905224609375,-0.240814208984375,-0.1362152099609375,-0.109375
1783003194777104400,2.9191044921875,-0.243560791015625,-0.1197967529296875,-0.0984039306640625
1783003194787156200,2.92915625,-0.275299072265625,-0.104248046875,-0.0700836181640625
1783003194797207300,2.939207275390625,-0.3143463134765625,-0.098114013671875,-0.0536651611328125
1783003194807259400,2.94925927734375,-0.3472747802734375,-0.085418701171875,-0.045318603515625
1783003194817310200,2.959310302734375,-0.3843231201171875,-0.0502166748046875,-0.0495452880859375
1783003194827362300,2.9693623046875,-0.4024658203125,-0.0287933349609375,-0.083251953125
1783003194837413400,2.979413330078125,-0.4480743408203125,-0.0282440185546875,-0.142181396484375
1783003194847465200,2.98946533203125,-0.4571533203125,-0.0380096435546875,-0.1654205322265625
1783003194857517300,2.999517333984375,-0.434478759765625,-0.0858917236328125,-0.185577392578125
1783003194867568000,3.009568115234375,-0.4599456787109375,-0.1253814697265625,-0.1848907470703125
1783003194877620200,3.0196201171875,-0.48809814453125,-0.1503448486328125,-0.15386962890625
1783003194887671300,3.02967138671875,-0.53961181640625,-0.1777801513671875,-0.141357421875
1783003194897723100,3.03972314453125,-0.58935546875,-0.198486328125,-0.1428070068359375
1783003194907774200,3.049774169921875,-0.663330078125,-0.21026611328125,-0.1244049072265625
1783003194917826000,3.059825927734375,-0.81427001953125,-0.20172119140625,-0.105438232421875
1783003194927878400,3.06987841796875,-1.003265380859375,-0.14874267578125,-0.087615966796875
1783003194937929500,3.079929443359375,-1.16754150390625,-0.088134765625,-0.1102142333984375
1783003194947981300,3.089981201171875,-1.2909393310546875,0.0084381103515625,-0.1661224365234375
1783003194958032400,3.100032470703125,-1.321380615234375,0.0919952392578125,-0.1872100830078125
1783003194968084200,3.110084228515625,-1.3125152587890625,0.023651123046875,-0.1523284912109375
1783003194978135300,3.12013525390625,-1.4207305908203125,-0.1794891357421875,-0.05633544921875
1783003194988187400,3.1301875,-1.6305084228515625,-0.4016876220703125,0.04461669921875
1783003194998239200,3.1402392578125,-1.8931732177734375,-0.604034423828125,0.145416259765625
1783003195008290300,3.150290283203125,-2.1271209716796875,-0.6756744384765625,0.1764678955078125
1783003195018342100,3.160342041015625,-2.2617340087890625,-0.56817626953125,0.1345367431640625
1783003195028393200,3.170393310546875,-2.2307281494140625,-0.421630859375,0.0651702880859375
1783003195038445300,3.1804453125,-2.24334716796875,-0.3328094482421875,0.082000732421875
1783003195048497200,3.1904970703125,-2.26556396484375,-0.2722320556640625,0.1348114013671875
1783003195058548200,3.20054833984375,-2.239593505859375,-0.2948455810546875,0.1855316162109375
1783003195068600000,3.21060009765625,-2.1509552001953125,-0.4367828369140625,0.224700927734375
1783003195078651100,3.220651123046875,-2.0141143798828125,-0.5831756591796875,0.27374267578125
1783003195088703500,3.230703369140625,-1.801361083984375,-0.680450439453125,0.2965087890625
1783003195098754300,3.24075439453125,-1.567169189453125,-0.754730224609375,0.254486083984375
1783003195108806400,3.250806396484375,-1.37432861328125,-0.80035400390625,0.1909942626953125
1783003195118858200,3.260858154296875,-1.1902008056640625,-0.8069305419921875,0.093414306640625
1783003195128909300,3.270909423828125,-1.0005950927734375,-0.777587890625,-0.0267181396484375
1783003195138961400,3.28096142578125,-0.83642578125,-0.71258544921875,-0.1473236083984375
1783003195149012200,3.29101220703125,-0.7308502197265625,-0.603515625,-0.242645263671875
1783003195159064300,3.301064208984375,-0.71051025390625,-0.4697113037109375,-0.3174591064453125
1783003195169115400,3.311115478515625,-0.828582763671875,-0.3461761474609375,-0.34808349609375
1783003195179167200,3.321167236328125,-1.081298828125,-0.23651123046875,-0.312255859375
1783003195189219300,3.33121923828125,-1.335052490234375,-0.10748291015625,-0.21807861328125
1783003195199270100,3.341270263671875,-1.451934814453125,0.0115203857421875,-0.15655517578125
1783003195209322200,3.351322265625,-1.450469970703125,0.087921142578125,-0.105560302734375
1783003195219373300,3.361373291015625,-1.380584716796875,0.09918212890625,-0.0662384033203125
1783003195229425200,3.371425048828125,-1.2575531005859375,0.0348358154296875,-0.0438385009765625
1783003195239476200,3.381476318359375,-1.106689453125,-0.0677947998046875,-0.0472259521484375
1783003195249528300,3.3915283203125,-0.9249114990234375,-0.18218994140625,-0.083984375
1783003195259580400,3.401580322265625,-0.7628631591796875,-0.285980224609375,-0.140380859375
1783003195269631500,3.411631591796875,-0.620880126953125,-0.3494873046875,-0.1656341552734375
1783003195279683300,3.421683349609375,-0.5074005126953125,-0.392364501953125,-0.1795806884765625
1783003195289734400,3.431734375,-0.4448394775390625,-0.389312744140625,-0.1939544677734375
1783003195299786200,3.4417861328125,-0.4376220703125,-0.336151123046875,-0.1773223876953125
1783003195309837300,3.45183740234375,-0.4029693603515625,-0.279022216796875,-0.1651611328125
1783003195319889400,3.461889404296875,-0.3839111328125,-0.24493408203125,-0.144317626953125
1783003195329941200,3.471941162109375,-0.393646240234375,-0.202850341796875,-0.1060638427734375
1783003195339992300,3.481992431640625,-0.3913726806640625,-0.1733245849609375,-0.0623931884765625
1783003195350044200,3.492044189453125,-0.391998291015625,-0.1656494140625,-0.0760498046875
1783003195360095200,3.50209521484375,-0.380157470703125,-0.1569976806640625,-0.1103057861328125
1783003195370147300,3.512147216796875,-0.361175537109375,-0.1676483154296875,-0.108551025390625
1783003195380198100,3.5221982421875,-0.3519134521484375,-0.1996917724609375,-0.1217193603515625
1783003195390250200,3.532250244140625,-0.3365936279296875,-0.21783447265625,-0.1338043212890625
1783003195400302000,3.542302001953125,-0.3342742919921875,-0.2252349853515625,-0.1466064453125
1783003195410353200,3.552353271484375,-0.3254852294921875,-0.228729248046875,-0.1431427001953125
1783003195420405500,3.562405517578125,-0.34130859375,-0.217041015625,-0.1138763427734375
1783003195430456300,3.572456298828125,-0.3577728271484375,-0.1861724853515625,-0.0910797119140625
1783003195440508400,3.58250830078125,-0.36578369140625,-0.1506805419921875,-0.101806640625
1783003195450559500,3.5925595703125,-0.408111572265625,-0.1053619384765625,-0.0885009765625
1783003195460611300,3.602611328125,-0.4768524169921875,-0.0856781005859375,-0.0701904296875
1783003195470663400,3.612663330078125,-0.57440185546875,-0.0681915283203125,-0.0624542236328125
1783003195480714200,3.62271435546875,-0.666961669921875,-0.057220458984375,-0.07958984375
1783003195490766300,3.632766357421875,-0.767303466796875,-0.0608673095703125,-0.109100341796875
1783003195500817400,3.6428173828125,-0.8826751708984375,-0.0654296875,-0.1327972412109375
1783003195510869200,3.652869140625,-1.0084991455078125,-0.0544586181640625,-0.1400146484375
1783003195520920300,3.66292041015625,-1.140869140625,-0.0086212158203125,-0.14141845703125
1783003195530972200,3.67297216796875,-1.216278076171875,0.064117431640625,-0.125213623046875
1783003195541024300,3.683024169921875,-1.24005126953125,0.1324615478515625,-0.0949249267578125
1783003195551075300,3.693075439453125,-1.2583770751953125,0.1602325439453125,-0.0669097900390625
1783003195561127200,3.703127197265625,-1.3077545166015625,0.104339599609375,-0.0044097900390625
1783003195571178200,3.71317822265625,-1.4072113037109375,-0.012664794921875,0.0953369140625
1783003195581230300,3.723230224609375,-1.5952606201171875,-0.151458740234375,0.110992431640625
1783003195591281200,3.73328125,-1.866729736328125,-0.329315185546875,0.031219482421875
1783003195601333500,3.74333349609375,-2.250518798828125,-0.519439697265625,-0.035858154296875
1783003195611385300,3.75338525390625,-2.6043243408203125,-0.656280517578125,-0.1527557373046875
1783003195621436400,3.7634365234375,-2.8096466064453125,-0.644927978515625,-0.328094482421875
1783003195631488300,3.77348828125,-2.7800140380859375,-0.4387969970703125,-0.4496612548828125
1783003195641539300,3.783539306640625,-2.522918701171875,-0.1862335205078125,-0.432586669921875
1783003195651591400,3.79359130859375,-2.1691741943359375,-0.153228759765625,-0.207000732421875
1783003195661643300,3.803643310546875,-1.9178924560546875,-0.3365020751953125,0.13287353515625
1783003195671694300,3.8136943359375,-1.7829742431640625,-0.5535736083984375,0.3925323486328125
1783003195681746200,3.82374609375,-1.6456298828125,-0.7737274169921875,0.4677581787109375
1783003195691797200,3.83379736328125,-1.481201171875,-1.00482177734375,0.4117431640625
1783003195701849300,3.843849365234375,-1.28619384765625,-1.142303466796875,0.300506591796875
1783003195711900400,3.853900390625,-1.06219482421875,-1.198455810546875,0.0695953369140625
1783003195721952500,3.863952392578125,-0.8700408935546875,-1.1513671875,-0.1442413330078125
1783003195732004600,3.874004638671875,-0.744659423828125,-1.027801513671875,-0.2598114013671875
1783003195742055700,3.8840556640625,-0.6899566650390625,-0.8500823974609375,-0.2680206298828125
1783003195752107500,3.894107421875,-0.7126312255859375,-0.6469268798828125,-0.220550537109375
1783003195762158600,3.90415869140625,-0.7168426513671875,-0.5224151611328125,-0.1390228271484375
1783003195772210700,3.914210693359375,-0.70574951171875,-0.44091796875,-0.0689544677734375
1783003195782261500,3.924261474609375,-0.7186279296875,-0.313812255859375,-0.04669189453125
1783003195792313600,3.934313720703125,-0.6641998291015625,-0.2696685791015625,-0.0696868896484375
1783003195802365400,3.944365478515625,-0.596649169921875,-0.2920379638671875,-0.1257781982421875
1783003195812416500,3.95441650390625,-0.537811279296875,-0.295379638671875,-0.1562042236328125
1783003195822468600,3.964468505859375,-0.4913482666015625,-0.301116943359375,-0.196136474609375
1783003195832519400,3.97451953125,-0.4329071044921875,-0.31201171875,-0.2116851806640625
1783003195842571500,3.984571533203125,-0.3867340087890625,-0.319244384765625,-0.2083892822265625
1783003195852622600,3.99462255859375,-0.364288330078125,-0.29632568359375,-0.2171783447265625
1783003195862674400,4.00467431640625,-0.3442535400390625,-0.267059326171875,-0.1934356689453125
1783003195872726500,4.0147265625,-0.3310394287109375,-0.2451629638671875,-0.153289794921875
1783003195882777300,4.02477734375,-0.317901611328125,-0.2102203369140625,-0.1405792236328125
1783003195892829700,4.03482958984375,-0.3271484375,-0.1648712158203125,-0.1136627197265625
1783003195902880500,4.044880615234375,-0.334503173828125,-0.138885498046875,-0.064483642578125
1783003195912932600,4.0549326171875,-0.3111114501953125,-0.1477508544921875,-0.0433197021484375
1783003195922983700,4.064983642578125,-0.2905120849609375,-0.1545257568359375,-0.0339508056640625
1783003195933035500,4.075035400390625,-0.2710113525390625,-0.1390228271484375,-0.0273284912109375
1783003195943087600,4.085087646484375,-0.25640869140625,-0.135284423828125,-0.02490234375
1783003195953138700,4.095138671875,-0.246978759765625,-0.1487274169921875,-0.04022216796875
1783003195963190500,4.1051904296875,-0.241302490234375,-0.15130615234375,-0.045135498046875
1783003195973241600,4.11524169921875,-0.259307861328125,-0.121612548828125,-0.062591552734375
1783003195983293400,4.12529345703125,-0.2506866455078125,-0.0988311767578125,-0.054534912109375
1783003195993344500,4.135344482421875,-0.2678680419921875,-0.086700439453125,-0.0164642333984375
1783003196003396600,4.145396728515625,-0.2918548583984375,-0.0526580810546875,0.0355682373046875
1783003196013448400,4.155448486328125,-0.3017120361328125,-0.0358734130859375,0.07220458984375
1783003196023499500,4.16549951171875,-0.3109588623046875,-0.035430908203125,0.0921783447265625
1783003196033551400,4.17555126953125,-0.3131256103515625,-0.0316162109375,0.089324951171875
1783003196043602400,4.1856025390625,-0.3276519775390625,-0.042633056640625,0.0765228271484375
1783003196053654500,4.195654541015625,-0.3402099609375,-0.06182861328125,0.0587615966796875
1783003196063705300,4.205705322265625,-0.352203369140625,-0.0713043212890625,0.0214385986328125
1783003196073757700,4.2157578125,-0.38262939453125,-0.07611083984375,-0.0031585693359375
1783003196083809500,4.2258095703125,-0.439727783203125,-0.0833282470703125,-0.0198516845703125
1783003196093860600,4.235860595703125,-0.5124969482421875,-0.090484619140625,-0.0112152099609375
1783003196103912700,4.24591259765625,-0.60443115234375,-0.1190338134765625,0.0304107666015625
1783003196113963500,4.255963623046875,-0.6993560791015625,-0.13861083984375,0.068450927734375
1783003196124015600,4.266015625,-0.801055908203125,-0.134063720703125,0.10748291015625
1783003196134066700,4.276066650390625,-0.9695587158203125,-0.1295623779296875,0.157958984375
1783003196144118500,4.286118408203125,-1.13824462890625,-0.13983154296875,0.1877593994140625
1783003196154170600,4.296170654296875,-1.2280120849609375,-0.2227935791015625,0.223175048828125
1783003196164221400,4.306221435546875,-1.39581298828125,-0.385528564453125,0.2798004150390625
1783003196174273500,4.3162734375,-1.700836181640625,-0.6360321044921875,0.4156341552734375
1783003196184324600,4.32632470703125,-2.154144287109375,-0.871002197265625,0.5142059326171875
1783003196194376400,4.33637646484375,-2.590667724609375,-0.9421539306640625,0.4425048828125
1783003196204428500,4.346428466796875,-2.71728515625,-0.7331390380859375,0.1999053955078125
1783003196214479400,4.356479248046875,-2.56671142578125,-0.457916259765625,-0.00506591796875
1783003196224531700,4.36653173828125,-2.469573974609375,-0.3222808837890625,0.0030517578125
1783003196234582500,4.37658251953125,-2.3610382080078125,-0.433441162109375,0.2494659423828125
1783003196244634600,4.386634521484375,-2.1757049560546875,-0.6581268310546875,0.4585418701171875
1783003196254685700,4.396685791015625,-1.993560791015625,-0.7796783447265625,0.549896240234375
1783003196264737500,4.406737548828125,-1.8143157958984375,-0.8774566650390625,0.57879638671875
1783003196274788600,4.41678857421875,-1.57562255859375,-1.0180206298828125,0.5423431396484375
1783003196284840700,4.4268408203125,-1.404449462890625,-1.10107421875,0.412078857421875
1783003196294892500,4.436892578125,-1.3313140869140625,-1.1004486083984375,0.2511138916015625
1783003196304943600,4.446943603515625,-1.2848052978515625,-0.9993133544921875,0.102081298828125
1783003196314995500,4.456995361328125,-1.250244140625,-0.795501708984375,0.007049560546875
1783003196325046500,4.467046630859375,-1.2406768798828125,-0.5760040283203125,0.005462646484375
1783003196335098600,4.4770986328125,-1.22412109375,-0.3878021240234375,0.00726318359375
1783003196345150500,4.487150390625,-1.177520751953125,-0.2364959716796875,-0.045196533203125
1783003196355201500,4.497201416015625,-1.1533050537109375,-0.1255035400390625,-0.138458251953125
1783003196365253400,4.50725341796875,-1.13427734375,-0.033843994140625,-0.2519989013671875
1783003196375304400,4.517304443359375,-1.093017578125,0.0180816650390625,-0.348175048828125
1783003196385356500,4.5273564453125,-1.0295867919921875,0.029876708984375,-0.370391845703125
1783003196395407400,4.537407470703125,-0.9582061767578125,0.032958984375,-0.3451385498046875
1783003196405459700,4.547459716796875,-0.8734893798828125,-0.0016937255859375,-0.305328369140625
1783003196415511600,4.557511474609375,-0.7835693359375,-0.031158447265625,-0.1997528076171875
1783003196425562600,4.567562744140625,-0.696258544921875,-0.063812255859375,-0.0827789306640625
1783003196435614500,4.577614501953125,-0.6172027587890625,-0.102783203125,0.0008697509765625
1783003196445665500,4.58766552734375,-0.54913330078125,-0.1223907470703125,0.052978515625
1783003196455717600,4.597717529296875,-0.5370635986328125,-0.0824127197265625,0.053741455078125
1783003196465768400,4.6077685546875,-0.4984283447265625,-0.0293121337890625,-0.0259552001953125
1783003196475820500,4.617820556640625,-0.407958984375,-0.0328826904296875,-0.04571533203125
1783003196485872400,4.627872314453125,-0.368255615234375,-0.0796356201171875,-0.0522613525390625
1783003196495923500,4.63792333984375,-0.3573150634765625,-0.12420654296875,-0.102874755859375
1783003196505975600,4.6479755859375,-0.3225555419921875,-0.1130828857421875,-0.1429901123046875
1783003196516026600,4.658026611328125,-0.27862548828125,-0.114593505859375,-0.159149169921875
1783003196526078500,4.668078369140625,-0.247650146484375,-0.13397216796875,-0.1339569091796875
1783003196536129500,4.678129638671875,-0.22686767578125,-0.1555328369140625,-0.109771728515625
1783003196546181400,4.688181396484375,-0.2205657958984375,-0.1710205078125,-0.070037841796875
1783003196556233700,4.698233642578125,-0.210784912109375,-0.160552978515625,-0.0254669189453125
1783003196566284500,4.708284423828125,-0.2316131591796875,-0.1479949951171875,-0.0136566162109375
1783003196576336600,4.718336669921875,-0.2583160400390625,-0.164215087890625,-0.01513671875
1783003196586387700,4.7283876953125,-0.291259765625,-0.185272216796875,-0.0172882080078125
1783003196596439600,4.738439453125,-0.32781982421875,-0.16461181640625,-0.031402587890625
1783003196606490600,4.74849072265625,-0.373779296875,-0.137054443359375,-0.0602569580078125
1783003196616542500,4.75854248046875,-0.415618896484375,-0.14501953125,-0.071441650390625
1783003196626594600,4.768594482421875,-0.4583282470703125,-0.1422271728515625,-0.0900421142578125
1783003196636645600,4.778645751953125,-0.4898223876953125,-0.1141357421875,-0.088592529296875
1783003196646697500,4.788697509765625,-0.5276641845703125,-0.118072509765625,-0.078277587890625
1783003196656748500,4.79874853515625,-0.586883544921875,-0.1742401123046875,-0.049530029296875
1783003196666800400,4.80880029296875,-0.6808013916015625,-0.21417236328125,-0.0426788330078125
1783003196676851500,4.8188515625,-0.8094482421875,-0.22674560546875,-0.0717010498046875
1783003196686903600,4.828903564453125,-0.956390380859375,-0.23736572265625,-0.140411376953125
1783003196696955600,4.83895556640625,-1.10186767578125,-0.22479248046875,-0.243316650390625
1783003196707006700,4.8490068359375,-1.2357025146484375,-0.1648406982421875,-0.285247802734375
1783003196717058600,4.85905859375,-1.33197021484375,-0.062042236328125,-0.26910400390625
1783003196727109600,4.869109619140625,-1.3540191650390625,0.0196075439453125,-0.1728973388671875
1783003196737161700,4.87916162109375,-1.410186767578125,0.0062408447265625,-0.0001373291015625
1783003196747212500,4.889212646484375,-1.4934539794921875,-0.0852508544921875,0.165924072265625
1783003196757264600,4.8992646484375,-1.5427703857421875,-0.2426910400390625,0.2747955322265625
1783003196767316500,4.90931640625,-1.6722869873046875,-0.41632080078125,0.27642822265625
1783003196777367600,4.919367431640625,-1.87921142578125,-0.4949188232421875,0.2488250732421875
1783003196787419600,4.929419677734375,-2.0171661376953125,-0.431915283203125,0.155548095703125
1783003196797470500,4.939470458984375,-2.0449371337890625,-0.32025146484375,0.0850830078125
1783003196807522600,4.9495224609375,-1.995208740234375,-0.2427520751953125,0.068023681640625
1783003196817573600,4.95957373046875,-1.9386138916015625,-0.208648681640625,0.15740966796875
1783003196827625500,4.96962548828125,-1.864959716796875,-0.279693603515625,0.3279876708984375
1783003196837677600,4.979677490234375,-1.8770599365234375,-0.42327880859375,0.4942626953125
1783003196847728400,4.989728271484375,-1.88348388671875,-0.4874114990234375,0.6291351318359375
1783003196857780700,4.99978076171875,-1.7659454345703125,-0.5383453369140625,0.6013641357421875
1783003196867831600,5.00983154296875,-1.6745758056640625,-0.574798583984375,0.4814453125
1783003196877883600,5.019883544921875,-1.6412200927734375,-0.592926025390625,0.340576171875
1783003196887934700,5.029934814453125,-1.5759735107421875,-0.5943145751953125,0.1339874267578125
1783003196897986600,5.039986572265625,-1.3952178955078125,-0.578094482421875,-0.111053466796875
1783003196908038700,5.05003857421875,-1.1836090087890625,-0.534881591796875,-0.2718048095703125
1783003196918089700,5.06008984375,-0.9952545166015625,-0.5027923583984375,-0.291717529296875
1783003196928141600,5.0701416015625,-0.8451080322265625,-0.5067596435546875,-0.2318572998046875
1783003196938192600,5.080192626953125,-0.7809295654296875,-0.5021209716796875,-0.1332855224609375
1783003196948244500,5.090244384765625,-0.786285400390625,-0.42462158203125,-0.0161895751953125
1783003196958295600,5.100295654296875,-0.792236328125,-0.303375244140625,0.0258636474609375
1783003196968347600,5.11034765625,-0.8159637451171875,-0.166656494140625,0.0536651611328125
1783003196978399500,5.1203994140625,-0.8372344970703125,-0.0966949462890625,0.1051788330078125
1783003196988450600,5.130450439453125,-0.82720947265625,-0.0728607177734375,0.159942626953125
1783003196998502400,5.14050244140625,-0.8185882568359375,-0.0149383544921875,0.123138427734375
1783003197008553500,5.150553466796875,-0.7699737548828125,0.0407257080078125,0.102142333984375
1783003197018605600,5.16060546875,-0.726959228515625,0.03204345703125,0.1152496337890625
1783003197028656400,5.170656494140625,-0.66302490234375,-0.0065765380859375,0.091796875
1783003197038708700,5.180708740234375,-0.59368896484375,-0.023345947265625,0.0611114501953125
1783003197048760600,5.190760498046875,-0.5434417724609375,-0.0517578125,0.0035858154296875
1783003197058811600,5.200811767578125,-0.47662353515625,-0.1070556640625,-0.033416748046875
1783003197068863700,5.21086376953125,-0.4326934814453125,-0.14825439453125,-0.0243377685546875
1783003197078914600,5.22091455078125,-0.413909912109375,-0.1870269775390625,-0.0171051025390625
1783003197088966700,5.230966552734375,-0.406585693359375,-0.23046875,-0.0621185302734375
1783003197099017700,5.241017822265625,-0.389801025390625,-0.2614898681640625,-0.110687255859375
1783003197109069600,5.251069580078125,-0.3905181884765625,-0.27227783203125,-0.15924072265625
1783003197119120600,5.26112060546875,-0.4152069091796875,-0.2315826416015625,-0.18505859375
1783003197129172500,5.27117236328125,-0.491119384765625,-0.173797607421875,-0.16015625
1783003197139224600,5.281224609375,-0.5572662353515625,-0.1583404541015625,-0.097442626953125
1783003197149275600,5.291275634765625,-0.5199737548828125,-0.1712646484375,-0.016204833984375
1783003197159327500,5.301327392578125,-0.5042266845703125,-0.1732940673828125,0.058380126953125
1783003197169378600,5.311378662109375,-0.5245819091796875,-0.193206787109375,0.072357177734375
1783003197179430400,5.321430419921875,-0.68646240234375,-0.2425384521484375,0.02850341796875
1783003197189481500,5.3314814453125,-0.6214447021484375,-0.297454833984375,-0.032806396484375
1783003197199533800,5.341533935546875,-0.385833740234375,-0.3476104736328125,-0.058563232421875
1783003197209585700,5.351585693359375,-0.468658447265625,-0.3431549072265625,-0.0550079345703125
1783003197219636700,5.36163671875,-0.6031341552734375,-0.345428466796875,-0.151458740234375
1783003197229688600,5.3716884765625,-0.7977142333984375,-0.286346435546875,-0.201019287109375
1783003197239739600,5.38173974609375,-1.0545806884765625,-0.173370361328125,-0.170867919921875
1783003197249791700,5.391791748046875,-1.2580718994140625,-0.09710693359375,-0.1515045166015625
1783003197259842600,5.401842529296875,-1.2591400146484375,-0.066253662109375,-0.1820526123046875
1783003197269894700,5.411894775390625,-1.17608642578125,-0.0172882080078125,-0.203948974609375
1783003197279946500,5.421946533203125,-1.2094573974609375,0.0377655029296875,-0.2193756103515625
1783003197289997600,5.43199755859375,-1.2053375244140625,0.0308074951171875,-0.279510498046875
1783003197300049700,5.442049560546875,-1.077789306640625,-0.0229644775390625,-0.3921356201171875
1783003197310100500,5.4521005859375,-0.995391845703125,-0.083251953125,-0.48565673828125
1783003197320152600,5.462152587890625,-1.0677642822265625,-0.1861724853515625,-0.51800537109375
1783003197330203600,5.47220361328125,-1.2886505126953125,-0.3225860595703125,-0.5157470703125
1783003197340255500,5.48225537109375,-1.5567474365234375,-0.417877197265625,-0.4516448974609375
1783003197350307600,5.4923076171875,-1.639129638671875,-0.4307098388671875,-0.282440185546875
1783003197360358400,5.5023583984375,-1.8258514404296875,-0.325469970703125,-0.0024871826171875
1783003197370410800,5.51241064453125,-2.073760986328125,-0.304595947265625,0.213653564453125
1783003197380461600,5.522461669921875,-1.861602783203125,-0.4233245849609375,0.2774810791015625
1783003197390513700,5.532513671875,-1.6486968994140625,-0.339019775390625,0.206298828125
1783003197400564700,5.542564697265625,-1.650665283203125,-0.1683197021484375,0.094390869140625
1783003197410616600,5.552616455078125,-1.6154632568359375,-0.2028350830078125,0.0084381103515625
1783003197420668700,5.562668701171875,-1.54296875,-0.30389404296875,-0.0420989990234375
1783003197430719500,5.572719482421875,-1.4259796142578125,-0.404754638671875,-0.056793212890625
1783003197440771600,5.582771484375,-1.369049072265625,-0.46575927734375,-0.0355224609375
1783003197450822700,5.59282275390625,-1.417633056640625,-0.4989776611328125,0.006317138671875
1783003197460874500,5.60287451171875,-1.44464111328125,-0.52606201171875,0.0089111328125
1783003197470925600,5.612925537109375,-1.4309234619140625,-0.5496368408203125,-0.017547607421875
1783003197480977400,5.622977294921875,-1.3670654296875,-0.52850341796875,-0.070404052734375
1783003197491028500,5.633028564453125,-1.2418670654296875,-0.4521331787109375,-0.1427001953125
1783003197501080600,5.64308056640625,-1.0379791259765625,-0.3631591796875,-0.2298126220703125
1783003197511132400,5.65313232421875,-0.8470916748046875,-0.27899169921875,-0.2663116455078125
1783003197521183500,5.66318359375,-0.71392822265625,-0.1812286376953125,-0.231231689453125
1783003197531235600,5.673235595703125,-0.717254638671875,-0.0756683349609375,-0.1578216552734375
1783003197541286400,5.683286376953125,-0.8035430908203125,-0.0071868896484375,-0.0577239990234375
1783003197551338800,5.6933388671875,-0.8438720703125,0.0052642822265625,0.019256591796875
1783003197561389600,5.7033896484375,-0.89984130859375,-0.0062255859375,0.0559539794921875
1783003197571441700,5.713441650390625,-0.882568359375,-0.0481109619140625,0.04388427734375
1783003197581493500,5.723493408203125,-0.8159027099609375,-0.072113037109375,0.0112762451171875
1783003197591544600,5.733544677734375,-0.716644287109375,-0.05987548828125,-0.035308837890625
1783003197601596700,5.7435966796875,-0.598388671875,-0.0549468994140625,-0.0908966064453125
1783003197611647500,5.7536474609375,-0.5577392578125,-0.069427490234375,-0.0918426513671875
1783003197621699600,5.763699462890625,-0.54058837890625,-0.1009521484375,-0.0523529052734375
1783003197631750700,5.773750732421875,-0.5127410888671875,-0.1278076171875,-0.0317230224609375
1783003197641802500,5.783802490234375,-0.489776611328125,-0.1371307373046875,-0.03338623046875
1783003197651854600,5.7938544921875,-0.4693756103515625,-0.1507720947265625,-0.021881103515625
1783003197661905400,5.803905517578125,-0.4410858154296875,-0.1643524169921875,0.002655029296875
1783003197671957500,5.81395751953125,-0.409423828125,-0.1519317626953125,0.0155487060546875
1783003197682008600,5.824008544921875,-0.3904571533203125,-0.1219482421875,0.0232696533203125
1783003197692060400,5.834060302734375,-0.3603515625,-0.1010284423828125,0.03948974609375
1783003197702111700,5.84411181640625,-0.3250579833984375,-0.093597412109375,0.0470123291015625
1783003197712163600,5.85416357421875,-0.3226318359375,-0.0872650146484375,0.039215087890625
1783003197722215700,5.864215576171875,-0.3623046875,-0.0740203857421875,0.02392578125
1783003197732266800,5.874266845703125,-0.4087066650390625,-0.0692291259765625,-0.002197265625
1783003197742318600,5.884318603515625,-0.3882293701171875,-0.087432861328125,-0.0547943115234375
1783003197752369700,5.89436962890625,-0.3484039306640625,-0.112548828125,-0.117340087890625
1783003197762421500,5.90442138671875,-0.339263916015625,-0.136627197265625,-0.1436004638671875
1783003197772472600,5.91447265625,-0.3331298828125,-0.1729888916015625,-0.1317138671875
1783003197782524700,5.924524658203125,-0.4284210205078125,-0.1920166015625,-0.0758819580078125
1783003197792576500,5.934576416015625,-0.606231689453125,-0.18145751953125,-0.009765625
1783003197802627600,5.944627685546875,-0.577362060546875,-0.186431884765625,-0.0025787353515625
1783003197812679700,5.9546796875,-0.5345306396484375,-0.15777587890625,0.0025482177734375
1783003197822730800,5.964730712890625,-0.6613311767578125,-0.0942840576171875,0.02728271484375
1783003197832782800,5.974782958984375,-0.711944580078125,-0.0413665771484375,-0.0679168701171875
1783003197842833700,5.984833740234375,-0.4528350830078125,-0.000823974609375,-0.1088409423828125
1783003197852885800,5.9948857421875,-0.0713958740234375,-0.0635223388671875,0.1472625732421875
1783003197862937600,6.0049375,-0.3920745849609375,-0.301971435546875,0.1631317138671875
1783003197872988700,6.01498876953125,-0.85638427734375,-0.52679443359375,0.0486907958984375
1783003197883040800,6.025040771484375,-1.1277618408203125,-0.703125,0.048095703125
1783003197893091600,6.035091552734375,-1.06671142578125,-0.862030029296875,0.090606689453125
1783003197903143700,6.045143798828125,-1.0520172119140625,-0.922515869140625,0.149627685546875
1783003197913194800,6.05519482421875,-1.43060302734375,-0.86773681640625,0.1435394287109375
1783003197923246600,6.06524658203125,-1.85736083984375,-0.7353363037109375,0.0994720458984375
1783003197933297700,6.075297607421875,-1.8355560302734375,-0.6135406494140625,0.1022491455078125
1783003197943349500,6.085349609375,-1.50634765625,-0.601776123046875,0.2547607421875
1783003197953401600,6.095401611328125,-1.2585601806640625,-0.708648681640625,0.344390869140625
1783003197963452700,6.10545263671875,-1.189849853515625,-0.6389617919921875,0.2632904052734375
