time,seconds_elapsed,z,y,x
1783003191951354600,0.093354736328125,1.5896353360533713,-0.5562912359803914,0.01996164172850549
1783003191961406700,0.10340673828125,2.036241623955965,-0.483161410100758,-0.30541411213334646
1783003191971458600,0.11345849609375,2.2551900798290965,-0.8008566559299826,-0.8935768790729344
1783003191981509600,0.123509521484375,1.7439485304087399,-1.0839353464081882,-0.9222414672169834
1783003191991561700,0.133561767578125,1.386525669825077,-0.8008774064570665,-0.6079136154616251
1783003192001612500,0.143612548828125,0.9074655575633048,-0.42042759829014537,-0.5237381159652024
1783003192011664600,0.15366455078125,0.3972486750155687,-0.22004969511330127,-0.6558669510412961
1783003192021715700,0.1637158203125,0.9881155498147011,-0.19514555548131465,-1.2927460007570684
1783003192031767600,0.173767578125,2.6035323928564784,-0.501727578882873,-2.157791197350621
1783003192041819600,0.183819580078125,4.237286856621504,-1.1437386577248572,-2.306351673398167
1783003192051870500,0.193870361328125,5.372831686496735,-1.297139413410425,-1.9814283760115503
1783003192061922600,0.203922607421875,5.179804438343644,-1.0426369752056897,-1.6991608557857572
1783003192071973600,0.2139736328125,4.64017149169743,-0.05902984272614121,-1.5703385149091482
1783003192082025700,0.224025634765625,4.64878909791708,1.214394786967337,-2.1411521972388026
1783003192092076800,0.234076904296875,5.234407550668716,1.9056150101363658,-1.5539356616407631
1783003192102128600,0.244128662109375,4.3291684369832275,2.9920716917157173,-2.4361916668847203
1783003192112180700,0.2541806640625,3.3868928473234177,3.207463916411996,-2.977057077935338
1783003192122231800,0.264231689453125,2.8209043931931257,2.2861562959790227,-2.609614927640557
1783003192132283600,0.27428369140625,-0.3119903121858835,1.3664873826637862,1.1035911370579152
1783003192142334700,0.284334716796875,-2.191862978300452,-0.15695874042809008,5.346248215475678
1783003192152386600,0.294386474609375,-1.9527970325499773,-2.701375219710171,4.179043926489353
1783003192162437600,0.304437744140625,-3.3294226551294326,-3.2025948490709064,0.7267651454113423
1783003192172489700,0.31448974609375,-7.419512286880612,-0.894572465981543,0.834568809787184
1783003192182541600,0.32454150390625,-9.39836379814148,1.9190677814275026,1.6325858583770692
1783003192192592600,0.334592529296875,-13.86350313258171,2.152640682719648,2.3462634125478563
1783003192202644500,0.34464453125,-15.92086470145583,1.6912272863075135,1.9238306119151412
1783003192212695600,0.354695556640625,-15.412832177209854,2.449688277317583,0.9946605144787579
1783003192222747600,0.36474755859375,-15.047583153045176,3.2101606081500647,0.05381254646927118
1783003192232798500,0.374798583984375,-14.117244084894656,2.5070930030599237,-0.31328773158527906
1783003192242850800,0.384850830078125,-13.34059218815565,0.6476221967220306,-0.1258985258517787
1783003192252902700,0.394902587890625,-12.46400575298071,-1.3449302153721452,0.43426889397483315
1783003192262953700,0.40495361328125,-11.230033282101154,-3.3213471929624676,1.0991215173631905
1783003192273005800,0.415005859375,-9.98544823179245,-3.5051579922199245,1.376452896361053
1783003192283056600,0.425056640625,-8.663801569113135,-3.690320790608227,1.685115233168006
1783003192293108700,0.435108642578125,-6.949201882785558,-4.48945164565891,1.8382174442984163
1783003192303159800,0.445159912109375,-5.295419360992312,-4.7621311071977015,1.7539391785472631
1783003192313211600,0.455211669921875,-3.7604999499887226,-4.32026733764708,1.40626117464751
1783003192323263700,0.465263671875,-2.241110116550326,-3.479705278794467,1.0363361214958131
1783003192333314600,0.475314453125,-0.6258633693784474,-2.4002856562450527,0.4138572799891233
1783003192343366700,0.48536669921875,0.7426040811866521,-1.2623095075696706,-0.1117953643605113
1783003192353417700,0.495417724609375,2.136922012323141,-0.36034956168532367,-0.3858937527865171
1783003192363469600,0.505469482421875,3.5268460924148557,0.2859630137428641,-0.6888863733939826
1783003192373521700,0.515521728515625,4.4528626211911435,0.9613286651760339,-0.9609805823907256
1783003192383572500,0.525572509765625,5.05168600795269,1.4613666835367678,-0.8727106166549027
1783003192393624800,0.535624755859375,5.561755590984225,1.7695666635289786,-0.6432986344344913
1783003192403675600,0.545675537109375,5.941038401198387,1.9614140542477367,-0.6679974607527256
1783003192413727700,0.555727783203125,6.315559111577272,2.0723001948088404,-0.3093576255947351
1783003192423778800,0.56577880859375,6.543631954148411,2.0377663493052123,0.15893632411137223
1783003192433830700,0.57583056640625,6.542532468473911,1.8593726066604255,0.6410754054270684
1783003192443882800,0.5858828125,6.542271187189221,1.7721783073320985,1.1525808664806187
1783003192453933800,0.595933837890625,6.694875824061036,1.9738556026697158,1.4644164264962076
1783003192463985700,0.605985595703125,6.893965733253955,2.10383924241066,1.4778833724431693
1783003192474036700,0.61603662109375,6.997314464047551,2.0101301543608305,1.590482892793417
1783003192484088600,0.626088623046875,7.2423945555210105,2.2540283425733447,1.4528056298099457
1783003192494139600,0.6361396484375,7.1826008888155215,2.654858383207023,1.2248904620185495
1783003192504191700,0.646191650390625,7.165291442096233,2.8718375848338007,1.2575067834630609
1783003192514243600,0.65624365234375,7.180990531009435,2.8346070475921032,1.3288167004391551
1783003192524294700,0.666294677734375,7.150663197284937,2.5864310359299183,1.6016548596709965
1783003192534346500,0.676346435546875,7.1149781359195705,2.0926737052738664,1.7642054287567734
1783003192544397600,0.6863974609375,7.028396415531635,1.8125968269601462,1.667184731940925
1783003192554449700,0.69644970703125,7.00899204235971,1.7486068776085972,1.5394035706803202
1783003192564500500,0.70650048828125,6.93813980602324,1.842280894345045,1.5182669668883084
1783003192574552800,0.716552734375,6.723995535561442,1.8902298094779253,1.8102154847815632
1783003192584604700,0.726604736328125,6.702192869076132,1.7058827113866806,2.1822408712133763
1783003192594655700,0.73665576171875,6.674435678100585,1.4981781185835599,2.238862629884481
1783003192604707800,0.746707763671875,6.50286505947411,1.7455697018697858,2.0061361162886024
1783003192614758700,0.756758544921875,6.288427359023689,2.158139572396874,2.069544758620858
1783003192624810800,0.766810791015625,6.181521812531352,2.149070130756497,2.1796087691441177
1783003192634861800,0.77686181640625,5.935685349732637,1.8364666551083326,2.1545023849382994
1783003192644913700,0.78691357421875,5.337205077320337,1.5872925723195075,1.831784342510998
1783003192654965800,0.7969658203125,4.596256946647167,1.7279779310777783,1.5508943942487239
1783003192665016600,0.8070166015625,3.73905734898746,1.9114210660666227,1.4143912896111606
1783003192675068700,0.817068603515625,2.5090730709612368,1.7578583978176117,1.518012115344405
1783003192685119700,0.82711962890625,1.0457231046527624,1.7359651304394006,1.3739581569358705
1783003192695171800,0.837171875,-0.4109557133287191,2.107669614353776,0.9205654237635433
1783003192705223000,0.847222900390625,-1.6941045953094958,2.4904098715454337,0.3720857383169234
1783003192715274800,0.857274658203125,-2.37376092967391,2.733912046177685,-0.08417641281187534
1783003192725326800,0.867326904296875,-3.1809768915027377,2.365551611994207,-0.08076572758555411
1783003192735377700,0.877377685546875,-4.485054579743743,1.1074527078568934,0.6446744528323411
1783003192745429800,0.8874296875,-6.521409016424417,-0.37977059373110533,1.609586675583571
1783003192755480800,0.897480712890625,-8.141753963518143,-1.5394611460864542,2.5509005806043743
1783003192765532700,0.90753271484375,-9.873979907429218,-2.50307996802628,3.0068285313427445
1783003192775583700,0.917583740234375,-11.192504638695716,-2.888554618617892,2.6720193613663312
1783003192785635600,0.927635498046875,-12.089790163028239,-2.970530598776042,1.8227895735420285
1783003192795687700,0.937687744140625,-12.2375350849092,-2.4683617058664558,0.7093922780670225
1783003192805738800,0.94773876953125,-11.187416960167884,-1.5545666530206799,-0.3430339774861932
1783003192815790800,0.957790771484375,-9.472293542227149,-1.4211647292688487,-1.3363571789465845
1783003192825842000,0.967842041015625,-8.40468827611208,-2.4757252203717828,-1.4923133182033896
1783003192835893800,0.977893798828125,-8.00096719021201,-4.7541938844576475,-0.3268251854851842
1783003192845945900,0.98794580078125,-7.567723072707652,-6.786853266012669,1.5146218883842228
1783003192855997000,0.997996826171875,-6.826101572817564,-7.794460282760858,2.739459158910811
1783003192866048800,1.008048828125,-6.268308700102567,-8.515389707756041,2.9199238626107573
1783003192876099800,1.018099853515625,-5.623417389649153,-8.655639889967441,1.9055320080280302
1783003192886151700,1.028151611328125,-5.024949976718426,-7.6531351647943255,0.28217454471271486
1783003192896202800,1.03820263671875,-4.641563238316774,-5.833959836226701,-0.8485195937283336
1783003192906254800,1.0482548828125,-4.170091389226913,-3.763808928406238,-1.2825870103143155
1783003192916305700,1.0583056640625,-3.45441973862946,-1.8752558199688791,-1.7848438737682997
1783003192926357800,1.068357666015625,-3.134977941393852,-0.42396015633046624,-2.6774653518125415
1783003192936409600,1.07840966796875,-3.729890876713395,0.38654929408580063,-3.687484398138523
1783003192946460700,1.088460693359375,-3.968022171962261,0.7443914029948413,-4.462251796305179
1783003192956512800,1.0985126953125,-3.3088609286159274,0.5640289906255901,-4.778346621200442
1783003192966563600,1.1085634765625,-2.3154472723931074,0.08550736915469169,-5.116362186002731
1783003192976616000,1.118615966796875,-1.4000532599180937,-0.3097279202118516,-5.205663686743378
1783003192986666800,1.128666748046875,-0.1966419315189123,-0.5313916263930499,-4.766038636030257
1783003192996718800,1.13871875,1.085017588686943,-0.6243317758969962,-4.579389690737426
1783003193006771000,1.14877099609375,2.299725387126207,-0.7181890402458607,-4.654039565791189
1783003193016821800,1.15882177734375,3.0860581354022023,-1.0774572364352644,-4.602130807116628
1783003193026873900,1.168873779296875,3.5365292820394036,-1.3430474703654647,-3.968310925775766
1783003193036925000,1.178925048828125,4.1042637030541895,-1.4815985935740172,-3.0676892427578566
1783003193046976800,1.188976806640625,4.526282662189007,-1.2836236598856747,-2.2659829842612145
1783003193057028900,1.19902880859375,4.53923858987391,-0.8273999410711228,-1.5115361973285675
1783003193067079700,1.20907958984375,4.660032376465201,-0.5772746950373053,-0.7129289277605712
1783003193077131800,1.2191318359375,4.955298348343372,-0.45474853169545526,0.22918884098902342
1783003193087182800,1.229182861328125,5.226738623476028,-0.14439254271313548,0.887132963630557
1783003193097234700,1.239234619140625,5.401475012657046,0.2510163496546447,1.1398680999018251
1783003193107285800,1.24928564453125,5.624992091619968,0.4407401723481714,1.0964102856431155
1783003193117337600,1.259337646484375,5.89587999356687,0.49658948534205555,1.012401557548344
1783003193127388700,1.269388671875,5.956684298619628,0.4688498300231993,0.8579362413711845
1783003193137440800,1.279440673828125,5.747155412998795,0.40986031930744643,0.7682999557182192
1783003193147492900,1.289492919921875,5.678423237556219,0.2206143432587385,0.7633164682172239
1783003193157544000,1.2995439453125,5.5312499780833715,-0.08614186766594648,0.9118488872140645
1783003193167595800,1.309595703125,5.257155973571539,-0.2936776797734201,1.2029618310660124
1783003193177646800,1.319646728515625,4.851864277353883,-0.2623021521702409,1.5855222016461192
1783003193187699000,1.329698974609375,4.23997974896729,-0.05999883388876914,2.088871974903345
1783003193197749800,1.339749755859375,3.782140703910589,0.31000644489228724,2.4455779193893075
1783003193207801900,1.3498017578125,3.1334085001200433,0.8461205697625875,2.6472368022873995
1783003193217853700,1.359853759765625,1.8574194267660378,1.436987152300775,2.780196242968738
1783003193227904800,1.36990478515625,0.38985447311103344,1.9630670821517704,2.780302333691716
1783003193237956900,1.379956787109375,-0.5043219792902469,2.5698037262558935,2.4240141762264074
1783003193248007700,1.390007568359375,-0.9421411496251821,3.256112211985886,1.9235539869308471
1783003193258059800,1.400059814453125,-1.2078607090234756,3.824206406223774,1.7064553967081009
1783003193268110800,1.41011083984375,-1.6691472641855478,4.189676087401807,1.6113685905642807
1783003193278162700,1.42016259765625,-2.280412199369073,4.188706657847762,1.6814143328234552
1783003193288214800,1.43021484375,-2.9673072528153654,3.6792455621033904,2.0560455178394914
1783003193298265600,1.440265625,-3.8813580339878797,3.01909910711199,2.9965681263521313
1783003193308318000,1.45031787109375,-4.954112937951088,2.3706536113083363,4.263185852509737
1783003193318368800,1.46036865234375,-7.1765557634323836,1.4838444728046656,4.910334586501121
1783003193328420900,1.4704208984375,-9.090626467224954,0.9952256740808486,4.114769022716581
1783003193338472000,1.480471923828125,-8.553676476052402,1.4427338792592286,1.7616332401812076
1783003193348523800,1.490523681640625,-7.527170113044977,2.5007754904761907,-0.9995296548850834
1783003193358575900,1.500575927734375,-6.366715298318862,3.126792881372571,-2.4800211640000343
1783003193368627000,1.510626953125,-4.736148232418299,1.9738015343949198,-2.7269676338672637
1783003193378678800,1.5206787109375,-3.7338533506035803,-0.5580982854023575,-1.8847604381561278
1783003193388729900,1.530729736328125,-3.4095693740338087,-3.337683702996373,-0.09481120407283306
1783003193398781700,1.54078173828125,-3.497672604900598,-5.23725417227149,1.769193884693831
1783003193408832800,1.550832763671875,-3.269799084293842,-7.120178042650222,3.5376033410117027
1783003193418884900,1.560884765625,-2.9877795474797484,-9.497065579912066,4.060186953179538
1783003193428936700,1.570936767578125,-3.4497079076766965,-11.15294069007039,2.459112523745
1783003193438987800,1.58098779296875,-2.946875290161371,-9.852609787142276,1.3489523104950785
1783003193449039600,1.59103955078125,-1.5674901397407055,-6.8187208149164915,0.45423532147631046
1783003193459090700,1.601090576171875,-0.8559457982063293,-4.713538048942387,-0.18507322040870786
1783003193469142800,1.611142822265625,0.02262567330598831,-3.3184695916995404,-0.6746823453441262
1783003193479193600,1.621193603515625,1.2623977703750133,-1.5131713973149656,-0.8683642580136657
1783003193489246000,1.631245849609375,2.383387420675158,0.09979629900902509,-0.6758506584711372
1783003193499297800,1.6412978515625,3.0955116079241036,1.3787126579865812,-0.8554125681124627
1783003193509348900,1.651348876953125,3.3681302791863676,2.3333625760510563,-0.7133347320824861
1783003193519401000,1.66140087890625,3.255252088025212,2.559142339248955,-0.46686903146952385
1783003193529451800,1.67145166015625,2.4325351902037857,2.107965674690902,-0.2745464244544506
1783003193539503900,1.68150390625,1.6694056228607892,1.5556939034849404,-0.23436595136597752
1783003193549555000,1.691554931640625,1.6143132657140493,1.3087111932605504,-0.7804943975113332
1783003193559606800,1.701606689453125,1.5959405736774206,1.4125661200106143,-1.347144384290278
1783003193569659000,1.711658935546875,1.8410878851681947,1.7839146300941704,-1.2188910754732787
1783003193579709700,1.721709716796875,2.4892729764699935,1.9670669654428958,-0.6443215477414429
1783003193589761800,1.73176171875,3.2124808677911756,2.23751267658025,-0.6654506988793611
1783003193599812900,1.741812744140625,3.4760026248842477,3.0390558534696694,-0.8215428856059909
1783003193609864700,1.75186474609375,3.3887522114545106,3.3481112812474367,-0.36590909550860523
1783003193619915800,1.761915771484375,3.334337315177917,2.74191268954277,0.4009400768794119
1783003193629967600,1.771967529296875,2.9524112969785925,1.9514815660372375,0.8404976883795112
1783003193640020000,1.78202001953125,2.908786090263724,1.3202441024050116,1.173481250363961
1783003193650070800,1.79207080078125,3.425589365464449,1.039737015980482,1.464718039791286
1783003193660123000,1.802122802734375,3.6918238886475563,1.2528548660039902,1.3150740062907338
1783003193670174000,1.812174072265625,3.9153871448397632,1.9318182496681808,0.8878827590845525
1783003193680225800,1.822225830078125,4.519843569052219,2.6397677815809844,0.6495318297356367
1783003193690278000,1.83227783203125,5.051900527486205,3.0326091615483164,0.5001753444721923
1783003193700328700,1.84232861328125,5.456121964123845,3.2085365140795705,0.4421954126577824
1783003193710380800,1.852380859375,5.3914481241613625,3.480011860525608,0.44121268523074686
1783003193720431900,1.862431884765625,5.276515338557958,3.742688691227138,0.3469110746478662
1783003193730483700,1.872483642578125,5.063070740798115,3.613120938810706,0.08602915540593675
1783003193740534800,1.88253466796875,4.7474593155056235,3.452373619754612,-0.21579863180639222
1783003193750586600,1.892586669921875,4.319959294611215,3.3117668791905044,-0.5300273523025214
1783003193760637700,1.9026376953125,4.0563714865446086,2.9445863024413583,-0.8673719590406864
1783003193770689800,1.912689697265625,3.7185973292827605,2.520212304612994,-1.3104388938359914
1783003193780741600,1.92274169921875,3.2476328451931473,2.2314801184177395,-1.6176713439702988
1783003193790792700,1.932792724609375,2.8170500558525324,1.97860367397964,-2.0564671042524276
1783003193800844800,1.9428447265625,2.195384138163924,2.116509338891506,-2.437426761637628
1783003193810895600,1.9528955078125,1.7017559868454932,2.3028794672429562,-2.433039632594585
1783003193820948000,1.962947998046875,1.0879688397079705,2.237814874397218,-2.5822978816479445
1783003193830998800,1.972998779296875,0.7149269697099924,2.030131908904016,-2.757310457421839
1783003193841051000,1.98305078125,0.43475686015486714,1.0605644076928495,-2.5627745582714674
1783003193851102700,1.993102783203125,-0.22330548203885553,-1.4827344657361508,-1.7718772785589099
1783003193861153800,2.00315380859375,-1.3658476234555244,-4.744925997635722,-0.3419666405156255
1783003193871206000,2.013205810546875,-2.9310253946006295,-8.019239344483614,0.9766917270679026
1783003193881256700,2.023256591796875,-4.726145309320092,-10.006108742505312,2.0970099809125067
1783003193891308800,2.033308837890625,-7.085159336239099,-9.637707976311445,2.537994629541039
1783003193901359900,2.04335986328125,-8.311095800179242,-8.27700882166028,2.69267724173069
1783003193911411700,2.05341162109375,-9.33377529837489,-6.818382376742362,1.7105762760303913
1783003193921463800,2.0634638671875,-11.300949815845488,-4.45383029717952,1.4795968983627854
1783003193931514600,2.0735146484375,-9.976727165198325,-5.696664996689558,1.0803594606827944
1783003193941566700,2.083566650390625,-10.058841969305277,-5.506770201343298,0.844273845917359
1783003193951617800,2.09361767578125,-9.496432542705536,-5.123329686927795,0.7291114893417805
1783003193961669600,2.103669677734375,-8.544819800379871,-6.263542508614063,0.14761135862916708
1783003193971720700,2.113720703125,-7.944582455167174,-7.147085923320055,-0.9140335377767681
1783003193981772800,2.123772705078125,-7.148004207208753,-7.187338438731431,-1.635401354189217
1783003193991825000,2.133824951171875,-6.13376286701262,-6.313310455867648,-2.656447698225081
1783003194001876000,2.1438759765625,-5.057870834067463,-4.766294656617939,-4.133392474643886
1783003194011927800,2.153927734375,-3.773627142587304,-2.647817524784803,-4.550485083292425
1783003194021979000,2.163978759765625,-2.072529327389598,-0.864611042959988,-4.119262534743547
1783003194032030700,2.17403076171875,-0.09662439097464084,0.6050497139304876,-3.5444279263347385
1783003194042081800,2.184081787109375,1.643967230221629,1.840766398128867,-2.9704636710196732
1783003194052134000,2.1941337890625,2.4845009397625923,2.854035386161506,-2.1110610103577376
1783003194062185700,2.204185791015625,2.8500381332188844,3.1730387919798493,-1.018877913955599
1783003194072236800,2.21423681640625,3.3670909992665052,2.4875407458499073,-0.191047472512722
1783003194082288600,2.22428857421875,3.735239836525917,1.5210717951759696,0.2168162661500275
1783003194092339700,2.234339599609375,4.25676487955153,0.805968007594347,0.47064708870351313
1783003194102391800,2.244391845703125,4.936415953218937,0.4213438363522291,0.5573420602075755
1783003194112442600,2.254442626953125,5.386348755195737,0.30824323461204767,0.548235355296731
1783003194122494700,2.26449462890625,5.385765402349829,0.4138908899977803,0.6404942445382475
1783003194132546800,2.274546875,6.003505671027303,0.38696079749614,0.4663339016795158
1783003194142597600,2.28459765625,6.993321010497212,0.1306770288325846,0.3586190846309066
1783003194152650000,2.29464990234375,6.797286981743574,0.12059022684320807,0.8120565337277948
1783003194162700800,2.30470068359375,6.285072787898779,0.32995690763965246,1.2115613171070814
1783003194172753000,2.3147529296875,6.105002051952481,0.5129881008267403,1.3909072459101677
1783003194182804000,2.324803955078125,5.987445932108163,0.7238263154804706,1.4611862124033272
1783003194192855800,2.334855712890625,5.834257357868552,0.8289575457766651,1.629167574366182
1783003194202908000,2.344907958984375,5.566418322098255,0.6024762832459062,1.7428493369951843
1783003194212958700,2.354958740234375,5.505187900587916,0.404365959674865,1.78275479253456
1783003194223010800,2.3650107421875,5.720714565318823,0.35746684585586186,1.4982118747226894
1783003194233062000,2.375061767578125,5.9987102534443135,0.5345553511209785,1.1985307167507708
1783003194243113700,2.38511376953125,5.998004151001572,0.6495714310936629,1.3509531289234757
1783003194253164800,2.395164794921875,5.747617769813537,0.4143574845962226,1.4036658974573015
1783003194263216600,2.405216552734375,5.3206584316670895,0.2559520524911582,1.4023692817755042
1783003194273268700,2.415268798828125,4.7707922602981325,0.2509543903343379,1.2368144163072108
1783003194283319800,2.42531982421875,4.469616772115231,0.24458295560628174,1.0205797494374216
1783003194293371600,2.43537158203125,3.9833097574651237,0.28272826960533853,1.0981199391052126
1783003194303422700,2.445422607421875,3.4396535466521976,0.33774551568925376,0.8865466881752013
1783003194313474800,2.455474853515625,3.24076529751122,0.6728792414449155,0.41537046103104946
1783003194323527000,2.46552685546875,3.0076076990216967,1.0267410485461355,0.24971023549214005
1783003194333578000,2.475577880859375,2.147712870928645,1.1990654081493615,0.4000044034644961
1783003194343629800,2.4856298828125,0.7284037063986063,1.313995855665207,0.8463587624326347
1783003194353681000,2.495680908203125,-0.9481909511834382,1.7900110472731292,1.2242831437751651
1783003194363732700,2.505732666015625,-1.9440029007196424,2.4361602488331497,1.0262843908198178
1783003194373783800,2.51578369140625,-2.856311222139001,2.935859390628338,0.7725071981497108
1783003194383836000,2.5258359375,-3.486005547982454,3.1285733350485563,0.7928602503485978
1783003194393887700,2.5358876953125,-4.037843896207213,2.8544816686242815,0.3657910220868885
1783003194403938800,2.545938720703125,-4.6615386893749235,1.9496482131302355,0.15263342457488177
1783003194413990700,2.55599072265625,-6.1043994098842145,0.5630658446818589,1.072265220750123
1783003194424041700,2.566041748046875,-8.645560394501686,-0.4473693812295794,2.1275082872897384
1783003194434093800,2.57609375,-10.702600476336478,-1.230517946511507,2.4700188254237174
1783003194444144600,2.58614453125,-12.218726339542865,-0.7721051932200789,1.738735033544153
1783003194454196700,2.59619677734375,-13.195163142001627,-0.04852116206288337,0.8025542536281048
1783003194464248800,2.606248779296875,-13.153269289124012,0.3106403588816523,0.003917173443734646
1783003194474300000,2.6162998046875,-12.399253587085008,0.560963903966546,-0.2139005248337984
1783003194484352000,2.62635205078125,-11.591839472335577,-0.0292705181479454,0.4158013997942209
1783003194494402800,2.63640283203125,-10.57413659350872,-1.828869624108076,1.0180980156242847
1783003194504455000,2.646454833984375,-9.14520561415255,-4.157722906041145,1.0934506321199238
1783003194514506000,2.656506103515625,-8.414273850581049,-6.118091250628233,1.1027848621763288
1783003194524557800,2.666557861328125,-7.718579404607414,-7.279016020953655,0.8584316236726939
1783003194534610000,2.67660986328125,-5.613782130819558,-7.842465896517038,-0.17340630962103604
1783003194544660700,2.68666064453125,-3.222694803291559,-7.907693863230943,-1.0608696742497383
1783003194554712800,2.696712890625,-1.0915881992489098,-7.886082335403561,-1.1795312711179256
1783003194564764000,2.706763916015625,0.5713590412527323,-7.521037309378385,-0.9333066127192229
1783003194574815700,2.716815673828125,1.9121955575704574,-6.823454857701063,-0.5530457512531429
1783003194584866800,2.72686669921875,3.2123107719212767,-5.766444635358453,-0.3783637226078659
1783003194594918700,2.736918701171875,4.472501972162723,-4.43400448372513,-0.3273514743816107
1783003194604969700,2.7469697265625,5.0972144179403776,-3.030997926959395,-0.3827383574955165
1783003194615021800,2.757021728515625,4.743499764224887,-1.862969462108612,-0.6747934045031666
1783003194625074000,2.767073974609375,4.440279618471861,-0.6935428208976984,-0.7352290954392403
1783003194635124700,2.777124755859375,4.331943746915459,0.32472499833554025,-0.733525944783166
1783003194645176800,2.7871767578125,3.8608804786264894,1.2503493129238485,-0.8594304985169321
1783003194655228000,2.797227783203125,3.936863648110628,1.8560674276351927,-0.9693644529197365
1783003194665279700,2.80727978515625,4.354810827761888,1.944643244449794,-1.2454036732152103
1783003194675331800,2.817331787109375,4.998437817367911,1.930082658047229,-1.2836729058548808
1783003194685383000,2.8273828125,5.48128913860619,1.9948326319858432,-1.1485284492846577
1783003194695434800,2.837434814453125,5.638152017444372,2.202081297715008,-1.114145921885222
1783003194705485300,2.8474853515625,6.080898707309365,2.057483733949065,-1.0830367170680313
1783003194715537400,2.857537353515625,6.487867981350422,1.6093239329941569,-1.214250263930112
1783003194725588200,2.867588134765625,6.502818882244825,1.397898419971764,-1.3964685332991182
1783003194735640300,2.877640380859375,7.0401873910903925,1.2492853369541466,-1.3496543212845922
1783003194745692200,2.887692138671875,7.3111875212401145,0.9379770156830549,-1.3169177344612777
1783003194755743200,2.8977431640625,7.198405776190757,0.7396333948127924,-1.1045718186583369
1783003194765795300,2.90779541015625,7.233356093540787,0.5836385309807955,-0.9671003804452717
1783003194775846100,2.91784619140625,7.261711250409483,0.5578201991133391,-0.8418730683859437
1783003194785898200,2.927898193359375,7.2187483069956295,0.5989566577523946,-0.7185063625667244
1783003194795949300,2.93794921875,6.863322757709026,0.617910072286427,-0.4326764736842364
1783003194806001200,2.948001220703125,6.525443386507034,0.565715044016391,-0.28750812429301437
1783003194816053500,2.958053466796875,6.194794551080465,0.693197514591366,-0.17274092278117312
1783003194826104300,2.968104248046875,5.864770569553971,1.0424578192465006,-0.20201573351174593
1783003194836156400,2.978156494140625,5.658370629608631,1.2499364943392575,-0.550380331436172
1783003194846207500,2.98820751953125,5.166230086499453,1.333067343620956,-1.0032030096355824
1783003194856259300,2.99825927734375,5.227756276085972,1.2924356196336448,-1.1018822873134166
1783003194866310400,3.008310302734375,5.318693853595852,0.905492942316085,-1.2868611805021761
1783003194876362200,3.0183623046875,5.002165313458442,0.6961774071849882,-1.1554607327658681
1783003194886414300,3.028414306640625,4.691269810771942,0.5087167071178555,-0.8823165763247758
1783003194896465400,3.03846533203125,4.13104298890829,0.2876936369277537,-0.8272166934587061
1783003194906517200,3.048517333984375,3.658386313948035,0.12629574500843882,-0.8520429455488919
1783003194916568300,3.058568359375,2.7623078273177146,0.02377338203638792,-0.6473132769033313
1783003194926620200,3.0686201171875,1.1137614526122808,0.22577830189317463,-0.5089809110119938
1783003194936671200,3.078671142578125,-0.6984872915625572,0.8038654823571443,-0.3721070003006607
1783003194946723300,3.088723388671875,-2.261802775967121,1.5205262901224195,-0.7565075919199734
1783003194956775200,3.098775146484375,-3.3242420376211403,2.6846824435845016,-1.2831656869851051
1783003194966826200,3.108826171875,-3.4299294404953717,3.443234035487473,-1.4195702996842563
1783003194976878300,3.11887841796875,-3.6060154907196758,2.5646575955390927,-0.9662003628656267
1783003194986929200,3.12892919921875,-5.03493653320372,0.6642027446448803,0.01853233957774937
1783003194996981500,3.1389814453125,-7.316271108114719,-1.4000304635643959,1.0031925613068045
1783003195007032300,3.1490322265625,-9.873332257175445,-3.1733474195376035,1.9173400808520613
1783003195017084400,3.15908447265625,-12.033382631629705,-3.4524054761976,2.01829095672369
1783003195027136300,3.16913623046875,-12.862142316746711,-2.1612103581443427,1.4177100587703286
1783003195037187300,3.179187255859375,-12.506848869407177,-0.8460030808627605,0.8140138052754103
1783003195047239400,3.189239501953125,-12.775990804469584,0.011744506068527697,1.0660114210523663
1783003195057290200,3.199290283203125,-12.93599782655239,0.5497185795918107,1.4976687077566981
1783003195067342300,3.20934228515625,-12.533536969846486,0.0864066560819745,1.8996070018932223
1783003195077393400,3.219393310546875,-11.571543703281879,-1.3951152189940212,2.2312780199743805
1783003195087445200,3.2294453125,-10.086106408327817,-2.658951497739553,2.698827873314917
1783003195097497300,3.239497314453125,-7.8404662471324205,-3.522052720658481,2.774250486306846
1783003195107548200,3.249548095703125,-5.662424873435497,-4.185334843327105,2.3690390157185495
1783003195117600300,3.259600341796875,-3.7997581936657427,-4.572826094438136,1.8128180684953927
1783003195127651300,3.2696513671875,-1.9822259561300277,-4.586710242883861,0.9448542079761624
1783003195137703200,3.279703125,-0.09385317269563674,-4.317648679581284,-0.10402874894700943
1783003195147755300,3.28975537109375,1.4097124841451645,-3.7079911795943974,-1.1101247766103595
1783003195157806300,3.299806396484375,2.3407459643006323,-2.741618090510368,-1.9006483276396988
1783003195167858400,3.3098583984375,2.309612574890256,-1.6832260584205387,-2.5668624121069907
1783003195177909200,3.3199091796875,0.8674123641163111,-0.8358665945127606,-2.7048618927821515
1783003195187961300,3.32996142578125,-1.7141127795934676,-0.06937924117445946,-2.2093581568501888
1783003195198012400,3.340012451171875,-3.869686300894618,0.9007701515778899,-1.3085989650577305
1783003195208064300,3.350064208984375,-4.6305181126892565,1.7394360214203595,-0.7708706829890608
1783003195218116400,3.360116455078125,-4.406668440771103,2.1903623644791543,-0.22971162275411186
1783003195228167200,3.370167236328125,-3.5701059729486704,2.0484198452666402,0.2235717317596078
1783003195238219300,3.38021923828125,-2.29513221411705,1.25350777695477,0.5206329895567149
1783003195248270300,3.390270263671875,-0.7521808878272771,0.24751404062211513,0.6043121203709393
1783003195258322200,3.400322265625,1.0050713607907296,-0.8932609449915587,0.314448372862488
1783003195268373200,3.410373291015625,2.511217097252607,-1.8142573075182735,-0.04227671471536159
1783003195278425300,3.42042529296875,3.8399195236623287,-2.430297494279593,-0.11022358499914407
1783003195288477200,3.430477294921875,4.86540940310359,-2.857843546272814,-0.2191197207868099
1783003195298528300,3.4405283203125,5.3008250194281334,-2.805367509104311,-0.2379134147144854
1783003195308580400,3.450580322265625,5.385443330788612,-2.3398265113681553,-0.03191518743783235
1783003195318631200,3.460631103515625,5.7773851315677165,-1.9564719216704367,0.10575096962973475
1783003195328683300,3.470683349609375,5.845817447280884,-1.6925842538744211,0.40436259867399926
1783003195338734300,3.480734375,5.749093687584996,-1.309093324445933,0.8981232903309165
1783003195348786400,3.490786376953125,5.763760510841012,-1.0693535710871218,1.365496471930295
1783003195358838300,3.50083837890625,5.731507762011885,-0.9745433899275958,1.1959478606507181
1783003195368889300,3.510889404296875,5.865339309352636,-0.8363570083782076,1.0719919567666947
1783003195378941200,3.520941162109375,5.993260755866766,-0.9628897770129143,1.183091447817534
1783003195388992300,3.5309921875,6.070360362160206,-1.1839881043963134,1.1148512936756014
1783003195399044400,3.54104443359375,6.181054195019603,-1.257061523913592,1.0598375547230243
1783003195409095200,3.55109521484375,6.184277248719334,-1.2493170472666622,0.9863874108478426
1783003195419147300,3.561147216796875,6.254967572492361,-1.2189717394940554,1.0788513211421669
1783003195429199000,3.57119921875,6.02436199657321,-0.9866479614801704,1.383668819089234
1783003195439250200,3.581250244140625,5.942901272460818,-0.633334216715768,1.4803357340313494
1783003195449302300,3.59130224609375,5.783648868137598,-0.18712255415394902,1.3476505802467464
1783003195459353000,3.60135302734375,5.304070284959674,0.2854590097434819,1.5039352208055554
1783003195469405200,3.6114052734375,4.543416167819499,0.5198961266495287,1.6590499408021568
1783003195479456300,3.621456298828125,3.5466204679429527,0.806144094813615,1.6802232233427463
1783003195489508400,3.63150830078125,2.644530173677206,0.9710207687593996,1.4527049459144472
1783003195499560400,3.641560546875,1.5900655441641807,1.038485846875608,1.1330803394578397
1783003195509611300,3.651611328125,0.4536386707574129,1.1159371892161667,0.8575792446270585
1783003195519663400,3.661663330078125,-0.8320154720425605,1.4060926862128078,0.7055804646939039
1783003195529714400,3.67171435546875,-2.029167740046978,2.038006441671401,0.5396745938308537
1783003195539766300,3.681766357421875,-2.5797780077815053,2.905839515417814,0.5779954105272889
1783003195549817300,3.6918173828125,-2.7859564139306543,3.6896816159218546,0.6583040419951081
1783003195559869200,3.701869140625,-3.0450650307565925,4.038969977627694,0.7993886292040348
1783003195569921300,3.71192138671875,-3.6942403021395203,3.596195522972941,1.4423914955623447
1783003195579972400,3.721972412109375,-4.980596455729008,2.716961495898664,2.311532583167404
1783003195590024200,3.732024169921875,-7.127853399583697,1.5787728735163806,2.181038363555819
1783003195600075300,3.7420751953125,-10.180783756887912,0.0022366730108857153,1.4347047404520212
1783003195610127000,3.752127197265625,-14.13145147394538,-1.6377762666270135,0.7638824315369128
1783003195620178200,3.76217822265625,-17.289045736294984,-2.639130068199336,-0.7240281947281211
1783003195630230300,3.772230224609375,-18.771309077388047,-2.111009572431445,-2.6801097288414835
1783003195640282400,3.782282470703125,-17.78012244956493,0.1931131728708744,-4.026215125472843
1783003195650333400,3.79233349609375,-14.825665910494326,2.2502418097719548,-3.8079365316852924
1783003195660385300,3.80238525390625,-11.44477727202177,1.9597180639848113,-1.5446039158023892
1783003195670436400,3.812436279296875,-9.454519400605559,0.030853403425216672,1.519673911076784
1783003195680488400,3.822488525390625,-8.256446510624885,-1.8943083109632133,3.592764671741426
1783003195690539300,3.832539306640625,-6.9054895823091265,-4.009874816046655,3.9379286469936368
1783003195700591600,3.842591552734375,-5.273557657796144,-5.9990387547463175,3.4183220048099754
1783003195710643500,3.8526435546875,-3.2498078511446713,-7.120217790138721,2.1874853477381166
1783003195720694500,3.862694580078125,-1.0748492458939551,-7.504695246386528,-0.1015245841063559
1783003195730746600,3.87274658203125,0.7811264118045568,-6.974648458731174,-1.9844601449228823
1783003195740797400,3.88279736328125,1.9191426002293823,-5.873157289627194,-2.94864025400728
1783003195750849500,3.892849609375,2.3695786755532025,-4.297900607538223,-2.998944500094652
1783003195760900600,3.902900634765625,2.1923493005126713,-2.701561682192981,-2.5992706437587736
1783003195770952400,3.912952392578125,2.3299042522907256,-1.9658546670436858,-1.9101026769444345
1783003195781004500,3.923004638671875,2.4094378077328202,-1.269280515626073,-1.3728716768734157
1783003195791055400,3.933055419921875,2.444819502237439,-0.22311258981525897,-1.2406702149525284
1783003195801107700,3.943107666015625,3.110976888081431,-0.17963614392131566,-1.5140432117134333
1783003195811158800,3.95315869140625,3.785764155104756,-0.429171461237967,-1.9332504744283854
1783003195821210600,3.963210693359375,4.335703976231813,-0.5158898136176169,-2.131910613901913
1783003195831262500,3.973262451171875,4.832348260501027,-0.6539461390465497,-2.4707851336210966
1783003195841313500,3.9833134765625,5.434442631757259,-0.8684070742420852,-2.51160346622169
1783003195851365600,3.99336572265625,5.837503792443871,-0.9863896028049289,-2.52016378929615
1783003195861416700,4.003416748046875,6.074930738815665,-0.8183136944264173,-2.593820269398391
1783003195871468500,4.013468505859375,6.255070448344946,-0.6513257274150848,-2.2641173365198073
1783003195881519600,4.02351953125,6.418396970239281,-0.5069583191432059,-1.9500833896771073
1783003195891571500,4.033571533203125,6.510944905555248,-0.17359145692959427,-1.8443313971340656
1783003195901622500,4.04362255859375,6.396939756190776,0.22002982136905191,-1.4887076949268578
1783003195911674600,4.053674560546875,6.382587990233302,0.37652912759184837,-1.0368376412771643
1783003195921726500,4.0637265625,6.661284520104527,0.2686051978372037,-0.8562683081589638
1783003195931777500,4.073777587890625,6.818016466039419,0.2969964489325881,-0.7500794585686177
1783003195941829400,4.083829345703125,7.019426927134394,0.5037558698400855,-0.6210657598383724
1783003195951880400,4.09388037109375,7.123173132812976,0.5306608279004693,-0.6019789281830191
1783003195961932500,4.1039326171875,7.217929391828179,0.44171953877434134,-0.6733598645687103
1783003195971983400,4.1139833984375,7.199782325240969,0.5291475007280707,-0.738851012263447
1783003195982035700,4.12403564453125,7.051781382772326,0.8875663866117596,-0.8979410656318068
1783003195992087600,4.134087646484375,7.128326862314343,1.088649953839928,-0.77547423126176
1783003196002138600,4.144138671875,6.8709759028106925,1.3063494325652718,-0.3799601980190724
1783003196012190500,4.1541904296875,6.669699297228455,1.7116012351639567,0.09462200164366513
1783003196022241500,4.164241455078125,6.551248274371027,1.895156890616566,0.4243684814030304
1783003196032293600,4.174293701171875,6.460742074015736,2.0102964508384464,0.5931566662367433
1783003196042345500,4.184345458984375,6.397337815597653,2.140468014366925,0.5824926488813013
1783003196052396500,4.194396484375,6.207059573891758,2.0980992374539373,0.4911831693191081
1783003196062448400,4.204448486328125,6.08182225189507,2.019663706381619,0.31801176443248985
1783003196072499500,4.21449951171875,5.902133793264627,2.0417928283423183,-0.037096352935396135
1783003196082551600,4.224551513671875,5.520611679691076,2.04939015160352,-0.25255636390456926
1783003196092602400,4.234602294921875,4.895664840635657,2.055525585618615,-0.41201537844948466
1783003196102654500,4.244654541015625,4.122389142331481,1.9864374363452195,-0.2921711842006072
1783003196112706300,4.254706298828125,3.1777415628433228,1.72045864148885,0.08202858712822199
1783003196122757400,4.26475732421875,2.251996252223849,1.602386681076884,0.3150984708016738
1783003196132809700,4.274809814453125,1.1494196259707212,1.6661065813153981,0.7155754236813634
1783003196142860500,4.284860595703125,-0.6623199996381998,1.6950602885991335,1.064920264814794
1783003196152912600,4.29491259765625,-2.088987710237503,1.4721110726520419,1.2800044464752078
1783003196162963700,4.304963623046875,-3.0573838295817373,0.5404837182566523,1.5584247897535561
1783003196173015600,4.315015625,-4.973189394342899,-1.2098603584080934,2.2492140741594135
1783003196183067600,4.325067626953125,-8.515406074368952,-3.6618250562250614,3.7212288468301296
1783003196193118500,4.335118408203125,-13.012124788421392,-5.754874024552106,4.446964795324206
1783003196203170600,4.345170654296875,-16.86369967856407,-5.809635542309284,3.275078778262436
1783003196213221600,4.3552216796875,-17.05108102978468,-3.4028663692638275,0.6914655031669884
1783003196223273500,4.3652734375,-15.566246961420774,-1.0096931753724814,-1.1692432474680243
1783003196233324500,4.375324462890625,-14.736944839990137,-0.21448738481104374,-0.5824118387300521
1783003196243376400,4.38537646484375,-13.49171447751522,-1.8260373232915996,1.8547882014796138
1783003196253428500,4.395428466796875,-11.635689135456085,-3.7602979976758357,3.561829142990708
1783003196263479600,4.4054794921875,-9.95747067606449,-4.662212935374677,4.297285982771218
1783003196273531400,4.415531494140625,-8.047810189929605,-5.649292420139909,4.641545702660084
1783003196283582500,4.42558251953125,-5.763572879314422,-6.919689957097172,4.172340629458427
1783003196293634600,4.435634521484375,-4.325625649809837,-7.515539296483993,2.9424872843354937
1783003196303685400,4.445685302734375,-3.7156244509518146,-7.4017942593604324,1.4752584307670593
1783003196313737700,4.45573779296875,-3.1873516872316596,-6.319340968203544,0.16689082677979022
1783003196323789600,4.46578955078125,-2.8306384362220762,-4.4344685941055415,-0.44821134847905486
1783003196333840600,4.475840576171875,-2.6943413755506276,-2.6062515886873006,-0.23795889782402663
1783003196343892500,4.485892578125,-2.3764602517604825,-1.0439506881527603,-0.15785793602382764
1783003196353943600,4.495943603515625,-1.8947066626310347,0.14495193016156555,-0.5749587827777489
1783003196363995600,4.50599560546875,-1.6862205640614032,1.0270113899201154,-1.3040090069189667
1783003196374046500,4.51604638671875,-1.4394745852023363,1.7249001310676335,-2.2145295681387185
1783003196384098600,4.5260986328125,-0.9489707033842801,1.9996197201319037,-2.79891731005162
1783003196394150400,4.536150390625,-0.3263087603956461,2.0272513850316405,-2.7037577309325336
1783003196404201500,4.546201416015625,0.4261322396725416,1.9147256605699656,-2.350424185489118
1783003196414253600,4.556253662109375,1.2651795100480316,1.531529476304352,-1.7651691592223941
1783003196424304400,4.566304443359375,2.1484780100822447,1.230713469083607,-0.5718297275044024
1783003196434356500,4.5763564453125,2.9883196457058188,0.8720886853642761,0.5283464134782553
1783003196444407600,4.586407470703125,3.7285599203705786,0.5020318225264548,1.3481591142907738
1783003196454459400,4.59645947265625,4.320646107831597,0.3868962078273296,1.837756402657926
1783003196464511700,4.60651171875,4.311400140580535,0.913923647661507,1.7468705553352832
1783003196474562600,4.6165625,4.911044196075201,1.3073881279632449,1.1382108342140913
1783003196484614700,4.62661474609375,5.661535815641284,1.2267854819849133,1.294921298969537
1783003196494665700,4.636665771484375,5.885888176384568,0.7841172641836106,1.2854372851788998
1783003196504717600,4.646717529296875,5.970314764565229,0.6095638303540647,0.9290073811553418
1783003196514768600,4.6567685546875,6.311209099674224,0.8526328742660582,0.6630024289444089
1783003196524820500,4.666820556640625,6.727517864468694,0.8410799452468752,0.6285029241017996
1783003196534872600,4.67687255859375,6.958439666730165,0.736548726670444,0.8922674039095639
1783003196544923600,4.686923583984375,7.156717090496421,0.5237478336416185,1.0612387998230755
1783003196554975500,4.6969755859375,7.2196677599281065,0.47763534015566106,1.4527940855026245
1783003196565026600,4.707026611328125,7.26738754248023,0.6153276545777917,1.7805056984335184
1783003196575078400,4.717078369140625,7.033744206300377,0.6920783013030887,1.8383793568618594
1783003196585130500,4.727130615234375,6.732551182460784,0.48984132625609633,1.8561404928714036
1783003196595181600,4.737181640625,6.403892059546709,0.37331294202432036,1.877528294945508
1783003196605233400,4.7472333984375,5.988525544038414,0.6962845208212732,1.7258796436242758
1783003196615284500,4.757284423828125,5.535719816973805,0.923591931977868,1.497701294852048
1783003196625336600,4.767336669921875,5.097431275561451,0.8875729624830185,1.3840760847158728
1783003196635387600,4.7773876953125,4.699508062285185,1.0659192127242685,1.1898815463490784
1783003196645439700,4.787439697265625,4.379011787560582,1.407579856030643,1.1873051199898124
1783003196655491600,4.79749169921875,3.9747757378757,1.2655153178736567,1.2713640439018605
1783003196665542700,4.807542724609375,3.2972511548429724,0.7591630017995834,1.5126653474889695
1783003196675594500,4.817594482421875,2.293935113286972,0.47264556904435157,1.4533340375982224
1783003196685645600,4.8276455078125,0.9545271684676409,0.38910336248278615,1.0939851773880422
1783003196695697700,4.83769775390625,-0.4688882623374462,0.280213364174962,0.22178864773511886
1783003196705748500,4.84774853515625,-1.8473972144454716,0.4537739875748753,-0.838160696799308
1783003196715800600,4.857800537109375,-3.030935383117199,1.1091384689867496,-1.2929260334990917
1783003196725852400,4.867852294921875,-3.769491650217771,2.078818198400736,-1.3124812133185564
1783003196735903500,4.877903564453125,-3.848324363914132,2.662189164486527,-0.46902051041498777
1783003196745955600,4.88795556640625,-4.581342870631814,2.3301988513231278,0.9565675151888281
1783003196756006400,4.89800634765625,-5.2867573311090466,1.31382225266397,2.2743321488030253
1783003196766058800,4.908058837890625,-5.858098836705088,-0.2979404517844319,2.9039602775424718
1783003196776109600,4.918109619140625,-7.410269826760888,-1.9057517882585524,2.661709856536984
1783003196786161700,4.92816162109375,-9.365152433413266,-2.4305169822491703,2.0392562956020233
1783003196796213500,4.938213623046875,-10.385812993001938,-1.7401831865258515,0.8311004030242561
1783003196806264600,4.9482646484375,-10.430594384014606,-0.8468209731169044,-0.04646722520776093
1783003196816316700,4.958316650390625,-9.87910499535799,-0.2941295151941478,-0.33015783703923224
1783003196826367700,4.96836767578125,-9.319726899278164,-0.1940199124522507,0.5263999555855989
1783003196836419600,4.978419677734375,-8.710732247114182,-1.216313333939761,2.0312106440514324
1783003196846470700,4.988470703125,-9.062900255909561,-2.485986209884286,3.5086622009485957
1783003196856522500,4.9985224609375,-8.803399424895643,-2.949497455358505,4.602201534265279
1783003196866573600,5.008573486328125,-7.53240509108901,-3.3814263986110684,4.104638381585478
1783003196876625700,5.018625732421875,-6.810615249872208,-3.6068221309274433,3.177550424185395
1783003196886677500,5.028677490234375,-6.489034687042236,-3.6926889810442924,1.9834411771386862
1783003196896728600,5.038728515625,-5.56239856506288,-3.6604262953430413,0.03381882910206914
1783003196906780400,5.048780517578125,-3.5970173607498404,-3.4647868188649413,-2.1300778455168006
1783003196916831500,5.05883154296875,-1.5406033018589018,-3.0878192998558283,-3.305291837957501
1783003196926883600,5.068883544921875,0.25543781935870646,-2.942848811124265,-3.201235835677385
1783003196936934400,5.078934326171875,1.577140596139431,-3.1628307016983626,-2.5667145280689
1783003196946986800,5.08898681640625,2.022928553396463,-3.119192343240976,-1.4806678885951636
1783003196957038600,5.09903857421875,1.933447604435682,-2.4534835779473183,-0.5301746518187225
1783003196967089700,5.109089599609375,1.9429022460013627,-1.4546737617693841,-0.23819548305887728
1783003196977141500,5.1191416015625,1.6489280674993991,-0.489298816877231,0.05460800769589841
1783003196987192600,5.129192626953125,1.5793956815898418,-0.2537376643773168,0.6383991719551384
1783003196997244700,5.13924462890625,1.6718588612318037,-0.16966416395064443,1.0044536672838031
1783003197007295500,5.14929541015625,1.8559592910856006,0.35658779799900947,0.5751394000416621
1783003197017347600,5.15934765625,2.353212647163868,0.7439790228016674,0.5954672447340562
1783003197027399400,5.1693994140625,2.793248909026384,0.5759996336001902,0.7343337540347129
1783003197037450500,5.179450439453125,3.476491869705915,0.3603433146076277,0.5836814568070694
1783003197047502600,5.189502685546875,4.085357927054167,0.4205093582894653,0.3782146695259958
1783003197057553400,5.199553466796875,4.585874668842554,0.27787111189775165,-0.012248418736364692
1783003197067605500,5.20960546875,5.203097051125765,0.017473551239818332,-0.016212810589000582
1783003197077656600,5.219656494140625,5.496532884967327,-0.11051292333453892,0.3791575033340603
1783003197087708400,5.22970849609375,5.605625712370872,-0.30674788148775695,0.5455613137818872
1783003197097760800,5.2397607421875,5.639742501506209,-0.5766992332369089,0.2087388312216848
1783003197107811600,5.2498115234375,5.786033717447519,-0.7942018742159008,-0.19278905548304318
1783003197117863700,5.25986376953125,5.727629459273815,-0.8307587499797344,-0.6700063894223421
1783003197127914800,5.269914794921875,5.4046320153832434,-0.3856033915378153,-0.8977494155172258
1783003197137966600,5.279966552734375,4.594538452291489,0.01236789866387844,-0.6284381883025169
1783003197148017700,5.290017578125,4.20144865052104,-0.02744257206842303,-0.07384893393442034
1783003197158069500,5.300069580078125,4.675068617555499,-0.18299626800417898,0.6731994133099913
1783003197168121600,5.31012158203125,4.7212750729352235,-0.22125410246700047,1.201654109468311
1783003197178172700,5.320172607421875,4.251695321202278,-0.4687093986392021,1.21016971661821
1783003197188224500,5.330224609375,2.667298470324278,-0.8942968639105557,0.7926696962125599
1783003197198275600,5.340275634765625,4.245283700594306,-1.3293145669586957,0.3441262297023088
1783003197208327400,5.350327392578125,5.8297091930449,-1.4978689065039157,0.3653264002498239
1783003197218378500,5.36037841796875,4.586182711878418,-1.2760061706192791,0.24792298674918709
1783003197228430600,5.3704306640625,3.2089994554162025,-1.080239122238755,-0.8006361450470983
1783003197238482400,5.380482421875,1.0413789379686116,-0.18633578769043088,-0.988795494902879
1783003197248533500,5.390533447265625,-1.4855068530589342,0.9320156230606138,-0.6411462056409567
1783003197258585600,5.400585693359375,-3.097002723264694,1.5236682414099574,-0.5197640247024595
1783003197268636400,5.410636474609375,-2.63309049577415,1.7824201537527142,-0.7838347209151834
1783003197278688800,5.420688720703125,-2.0684616395592688,2.296331945295632,-0.8436068333759903
1783003197288739600,5.430739501953125,-2.5151456688731906,2.7280951765924693,-0.9653861238732934
1783003197298791700,5.440791748046875,-2.15609608387053,2.521978145241737,-1.6752466039739549
1783003197308843500,5.450843505859375,-0.8259341063022613,2.039905261030048,-2.837204955130815
1783003197318894600,5.46089453125,-0.39999592789709565,1.5130007169231772,-3.667122285850346
1783003197328946700,5.47094677734375,-1.501801569777727,0.4842053661957383,-3.9645784612491726
1783003197338997500,5.48099755859375,-4.012011535814405,-0.696042528758943,-3.856617560485005
1783003197349049600,5.491049560546875,-6.308161402541399,-1.4123945628359913,-3.0240093832463026
1783003197359100700,5.5011005859375,-6.954809201273322,-1.2149363464981318,-0.9793251443114132
1783003197369152500,5.511152587890625,-9.389331181380152,-0.16147592559158802,1.7957105740889905
1783003197379203600,5.52120361328125,-10.876372988921403,-0.5359282469093799,3.46575946328938
1783003197389255400,5.53125537109375,-8.0675676143229,-1.5877721725299954,3.5515523713871833
1783003197399307500,5.5413076171875,-6.661303809326887,-0.23321371259093282,2.432166503021866
1783003197409358600,5.551358642578125,-6.691746878385543,0.9368944811433553,1.2432336356997489
1783003197419410400,5.561410400390625,-6.231491419836878,0.25069267065823075,0.4563848276603967
1783003197429461500,5.57146142578125,-5.39887564381361,-0.7309457920968532,0.11344232784993946
1783003197439513600,5.581513671875,-4.30739967276752,-1.5959811979487537,0.1743868450909853
1783003197449564700,5.591564697265625,-4.076643874722719,-2.026584737816453,0.6012192689221352
1783003197459616800,5.60161669921875,-4.629539038524031,-2.2922870538190008,1.0443569308660925
1783003197469668600,5.611668701171875,-4.783053191456198,-2.573219672179222,1.0220436114449054
1783003197479719700,5.6217197265625,-4.498441884583235,-2.834232369060814,0.674258420843631
1783003197489771500,5.631771484375,-3.731047061011195,-2.5914783824473617,0.0724491501390934
1783003197499822600,5.641822509765625,-2.2169594256341454,-1.9240169282674788,-0.7593096437286585
1783003197509874700,5.651874755859375,-0.14890578235387802,-1.1781987073399125,-1.615142117753625
1783003197519925500,5.661925537109375,1.6452426569849252,-0.4156462092325091,-1.817478169260919
1783003197529977600,5.6719775390625,2.6983225541412827,0.5618966547720133,-1.3776640257164836
1783003197540029400,5.682029541015625,2.308178742694855,1.5681757839173078,-0.5608369165860116
1783003197550080500,5.69208056640625,1.526792803171277,2.12630212637037,0.4579689550466835
1783003197560132600,5.702132568359375,1.129324347925186,2.207020215421915,1.1686270883310585
1783003197570183400,5.712183349609375,0.6266022050470114,2.055557149800658,1.4733511358410118
1783003197580235500,5.722235595703125,1.0116168369114398,1.641562361036986,1.3214490942806005
1783003197590286600,5.73228662109375,1.6726047111630438,1.5468622161231933,1.0408780757743865
1783003197600338700,5.742338623046875,2.7742472714364528,1.7195622771710157,0.5901076539296657
1783003197610390800,5.752390869140625,3.7538960216790436,1.7796378295578061,0.20741211266256868
1783003197620441600,5.762441650390625,3.99487978374958,1.6476204920321702,0.42282559934258457
1783003197630493700,5.77249365234375,4.162049537068605,1.393859081453085,0.8595533211790025
1783003197640544800,5.782544677734375,4.427371037060022,1.2387865931630133,0.9988305667050182
1783003197650596600,5.7925966796875,4.612069432806968,1.220700609113276,0.9542273087382316
1783003197660647700,5.802647705078125,4.8240036260038615,1.1178238797456026,1.0530523515623063
1783003197670699500,5.812699462890625,5.116334713473916,1.0883940793827176,1.1984426731411366
1783003197680751600,5.822751708984375,5.390384294322133,1.3420049755752086,1.1981214783627538
1783003197690802700,5.832802734375,5.5675400196045635,1.7037319630935788,1.2218960294429213
1783003197700854800,5.842854736328125,5.878482284042239,1.9609712789162992,1.3062769518509507
1783003197710905600,5.852905517578125,6.151480894532799,2.125493148075044,1.282324121594429
1783003197720957700,5.862957763671875,6.025318274384737,2.31647749222368,1.130304445003718
1783003197731008800,5.8730087890625,5.534093092554808,2.5651748974114654,0.9071100951891392
1783003197741060600,5.883060546875,5.14915152592659,2.677684255260229,0.5357759789571166
1783003197751111700,5.893111572265625,5.461115534627437,2.569739428848028,-0.13602061835024504
1783003197761163800,5.903163818359375,5.72573560835123,2.450759413680434,-0.7846072396576405
1783003197771215600,5.913215576171875,5.766676690548658,2.302928274820745,-1.0343743199035524
1783003197781266700,5.9232666015625,5.676080473822355,2.0515879539087414,-0.8884064906977116
1783003197791318500,5.933318603515625,4.286256346973777,2.0912369504690167,-0.2797430249831639
1783003197801369600,5.94336962890625,2.833310870301723,2.2790920566812156,0.20221154834479094
1783003197811421700,5.953421630859375,3.439661729958653,2.3854110354572535,0.13374766844958066
1783003197821472800,5.96347265625,3.3462393498957157,2.933665095454454,0.22882238229680804
1783003197831524600,5.973524658203125,1.9522183558791875,3.70580389868319,0.22185144730564205
1783003197841576700,5.98357666015625,1.7730547979056834,4.369833917109668,-1.006269265338406
1783003197851627500,5.99362744140625,5.706636355605721,4.999659468117356,-0.5971221723342314
1783003197861679600,6.0036796875,7.057653489676118,4.137314324262738,1.6553985786877572
1783003197871730700,6.013730712890625,3.168426622009277,1.9853402887582778,1.093190739074722
1783003197881782800,6.02378271484375,-1.4403835167407988,0.10446925925612449,0.27058369483593847
1783003197891833900,6.033833740234375,-3.2533617442339655,-1.4849287609100341,0.46307690917756406
1783003197901885700,6.0438857421875,-2.2898083887457847,-2.891379612910747,0.9633720075719058
1783003197911937800,6.053937744140625,-2.9122955596894022,-3.3025779028236864,1.4135147990375756
1783003197921988600,6.063988525390625,-7.130057631629705,-2.799851668292284,1.1303285565316676
1783003197932040700,6.074040771484375,-10.213336949968337,-1.810068477526307,0.6858576732225715
1783003197942091800,6.084091796875,-8.70709593643844,-1.2021838324308394,0.8505869015216827
1783003197952143600,6.0941435546875,-5.174758845391869,-1.8572218583673237,2.445377574511617
1783003197962194700,6.104194580078125,-3.0914439200937744,-3.049299891847372,2.566988668835163
1783003197972246500,6.11424658203125,-2.7463135548502207,-1.9289538001477717,1.6158678016796708
