time,seconds_elapsed,z,y,x
1783003191951354600,0.093354736328125,0.43416109681129456,0.10749956220388412,0.6913668513298035
1783003191961406700,0.10340673828125,0.6244266629219055,0.060541316866874695,0.6122799515724182
1783003191971458600,0.11345849609375,0.7955230474472046,-0.2079833447933197,0.500970721244812
1783003191981509600,0.123509521484375,0.9365351796150208,-0.6647368669509888,0.3569766581058502
1783003191991561700,0.133561767578125,1.0404309034347534,-1.327595829963684,0.12756049633026123
1783003192001612500,0.143612548828125,1.0816278457641602,-1.9711813926696777,-0.22644765675067902
1783003192011664600,0.15366455078125,1.0647010803222656,-2.387885093688965,-0.6661544442176819
1783003192021715700,0.1637158203125,0.9874788522720337,-2.480402946472168,-1.0564745664596558
1783003192031767600,0.173767578125,0.894940972328186,-2.238351345062256,-1.197157382965088
1783003192041819600,0.183819580078125,0.7782288789749146,-1.7571980953216553,-1.0949068069458008
1783003192051870500,0.193870361328125,0.6723535656929016,-1.3495956659317017,-0.7690784335136414
1783003192061922600,0.203922607421875,0.7246747016906738,-0.46967461705207825,-0.3501046597957611
1783003192071973600,0.2139736328125,0.9434043765068054,0.45842984318733215,0.4038114845752716
1783003192082025700,0.224025634765625,1.2384700775146484,0.9669082164764404,1.2318090200424194
1783003192092076800,0.234076904296875,1.70563805103302,1.4129469394683838,1.6162046194076538
1783003192102128600,0.244128662109375,2.2063581943511963,1.8884329795837402,1.6392232179641724
1783003192112180700,0.2541806640625,2.6300511360168457,2.4460654258728027,1.4935418367385864
1783003192122231800,0.264231689453125,2.4400744438171387,2.344815969467163,0.9669644236564636
1783003192132283600,0.27428369140625,1.8115065097808838,1.740938425064087,0.3993281126022339
1783003192142334700,0.284334716796875,1.4720988273620605,1.2333550453186035,-0.08209467679262161
1783003192152386600,0.294386474609375,1.4990931749343872,1.5710591077804565,-0.39842015504837036
1783003192162437600,0.304437744140625,1.2539703845977783,0.7434637546539307,-0.6176312565803528
1783003192172489700,0.31448974609375,0.7050540447235107,-0.181937575340271,-0.6035711169242859
1783003192182541600,0.32454150390625,0.07170701026916504,-1.3231569528579712,-0.3175926208496094
1783003192192592600,0.334592529296875,-0.4652906656265259,-1.85073983669281,0.3681361973285675
1783003192202644500,0.34464453125,-0.7747905850410461,-1.5737779140472412,1.2191261053085327
1783003192212695600,0.354695556640625,-0.749476969242096,-0.8968502879142761,1.8201833963394165
1783003192222747600,0.36474755859375,-0.4266432225704193,-0.08413241058588028,2.1040399074554443
1783003192232798500,0.374798583984375,0.018990159034729004,0.5825545191764832,2.0644915103912354
1783003192242850800,0.384850830078125,0.40955695509910583,0.8980159759521484,1.8803067207336426
1783003192252902700,0.394902587890625,0.595426619052887,0.9193087816238403,1.6975030899047852
1783003192262953700,0.40495361328125,0.45712265372276306,0.5815985202789307,1.4587441682815552
1783003192273005800,0.415005859375,0.15172572433948517,0.008530211634933949,1.2062886953353882
1783003192283056600,0.425056640625,-0.16834840178489685,-0.667945384979248,0.9566513895988464
1783003192293108700,0.435108642578125,-0.40394946932792664,-1.3851035833358765,0.6761561036109924
1783003192303159800,0.445159912109375,-0.4657341241836548,-2.014139413833618,0.3537653088569641
1783003192313211600,0.455211669921875,-0.37943437695503235,-2.3674159049987793,0.051522351801395416
1783003192323263700,0.465263671875,-0.1810949593782425,-2.3873023986816406,-0.17183227837085724
1783003192333314600,0.475314453125,0.052612870931625366,-2.1044423580169678,-0.38565772771835327
1783003192343366700,0.48536669921875,0.2757641077041626,-1.5048805475234985,-0.6264538168907166
1783003192353417700,0.495417724609375,0.5056760907173157,-0.6401689648628235,-0.9166502356529236
1783003192363469600,0.505469482421875,0.7036352753639221,0.21481174230575562,-1.2105391025543213
1783003192373521700,0.515521728515625,0.782928466796875,0.7870922684669495,-1.4388463497161865
1783003192383572500,0.525572509765625,0.6396850347518921,1.0692681074142456,-1.6043806076049805
1783003192393624800,0.535624755859375,0.3482203781604767,0.9660360217094421,-1.6378251314163208
1783003192403675600,0.545675537109375,0.011246578767895699,0.5924385190010071,-1.5559914112091064
1783003192413727700,0.555727783203125,-0.27988699078559875,0.03855372592806816,-1.3970296382904053
1783003192423778800,0.56577880859375,-0.5019533634185791,-0.6466358304023743,-1.191159963607788
1783003192433830700,0.57583056640625,-0.6466673612594604,-1.3613100051879883,-0.9518834948539734
1783003192443882800,0.5858828125,-0.6992828249931335,-2.000964641571045,-0.6699270606040955
1783003192453933800,0.595933837890625,-0.6232244968414307,-2.465325355529785,-0.3390870988368988
1783003192463985700,0.605985595703125,-0.42685219645500183,-2.647505760192871,0.044713739305734634
1783003192474036700,0.61603662109375,-0.21821962296962738,-2.566086769104004,0.29353633522987366
1783003192484088600,0.626088623046875,-0.023810725659132004,-2.3048794269561768,0.41109564900398254
1783003192494139600,0.6361396484375,0.1283915936946869,-1.8842064142227173,0.44495242834091187
1783003192504191700,0.646191650390625,0.21016305685043335,-1.4549421072006226,0.3830314576625824
1783003192514243600,0.65624365234375,0.2062697857618332,-1.0871493816375732,0.2522262930870056
1783003192524294700,0.666294677734375,0.17264357209205627,-0.7686651349067688,0.09738057106733322
1783003192534346500,0.676346435546875,0.1337161511182785,-0.4989396631717682,-0.052192140370607376
1783003192544397600,0.6863974609375,0.12079018354415894,-0.25623857975006104,-0.19448994100093842
1783003192554449700,0.69644970703125,0.10408816486597061,0.01380622386932373,-0.3418351709842682
1783003192564500500,0.70650048828125,0.05987429991364479,0.2532956004142761,-0.48753052949905396
1783003192574552800,0.716552734375,0.008316302672028542,0.4481273889541626,-0.5454148650169373
1783003192584604700,0.726604736328125,-0.02188154123723507,0.5895987153053284,-0.5391232371330261
1783003192594655700,0.73665576171875,-0.07920873910188675,0.6730270385742188,-0.5039154887199402
1783003192604707800,0.746707763671875,-0.17943057417869568,0.6790949106216431,-0.37541890144348145
1783003192614758700,0.756758544921875,-0.2621201276779175,0.6083251237869263,-0.15589481592178345
1783003192624810800,0.766810791015625,-0.2904588282108307,0.46032509207725525,0.09117407351732254
1783003192634861800,0.77686181640625,-0.2665548026561737,0.30974942445755005,0.23146647214889526
1783003192644913700,0.78691357421875,-0.2598584294319153,0.3239644765853882,0.17446888983249664
1783003192654965800,0.7969658203125,-0.30104365944862366,0.4139809012413025,-0.02528950199484825
1783003192665016600,0.8070166015625,-0.4067062735557556,0.5449475049972534,-0.27138108015060425
1783003192675068700,0.817068603515625,-0.5530456900596619,0.6495386362075806,-0.4143845736980438
1783003192685119700,0.82711962890625,-0.6754248142242432,0.6946879625320435,-0.3629859983921051
1783003192695171800,0.837171875,-0.7004219889640808,0.8171225190162659,-0.1365365982055664
1783003192705223000,0.847222900390625,-0.6529687643051147,1.0786499977111816,0.28501349687576294
1783003192715274800,0.857274658203125,-0.5290159583091736,1.3742626905441284,0.8093363642692566
1783003192725326800,0.867326904296875,-0.3311087191104889,1.6121387481689453,1.234424114227295
1783003192735377700,0.877377685546875,-0.1001998707652092,1.6417282819747925,1.4198282957077026
1783003192745429800,0.8874296875,0.052289750427007675,1.5179569721221924,1.3627578020095825
1783003192755480800,0.897480712890625,0.05618435516953468,1.1203382015228271,1.1079039573669434
1783003192765532700,0.90753271484375,-0.0936490148305893,0.5545274615287781,0.7755590081214905
1783003192775583700,0.917583740234375,-0.3523540794849396,0.07533235847949982,0.5556804537773132
1783003192785635600,0.927635498046875,-0.6337862610816956,-0.08343183249235153,0.5706730484962463
1783003192795687700,0.937687744140625,-0.7996537685394287,0.27809736132621765,0.8184921741485596
1783003192805738800,0.94773876953125,-0.6858486533164978,0.9675551652908325,1.1187324523925781
1783003192815790800,0.957790771484375,-0.3367028832435608,1.7167223691940308,1.224939227104187
1783003192825842000,0.967842041015625,0.04363393783569336,2.3682851791381836,1.0175093412399292
1783003192835893800,0.977893798828125,0.25926849246025085,2.7920122146606445,0.5898074507713318
1783003192845945900,0.98794580078125,0.35103848576545715,2.823751926422119,0.04302794486284256
1783003192855997000,0.997996826171875,0.45206815004348755,2.299248456954956,-0.6429522633552551
1783003192866048800,1.008048828125,0.48256877064704895,1.5199556350708008,-1.4331623315811157
1783003192876099800,1.018099853515625,0.2144947201013565,0.8050442934036255,-2.1175432205200195
1783003192886151700,1.028151611328125,-0.4819962978363037,0.1697520911693573,-2.587296485900879
1783003192896202800,1.03820263671875,-1.389563798904419,-0.24566589295864105,-2.8177194595336914
1783003192906254800,1.0482548828125,-2.128962516784668,-0.41445013880729675,-2.8114569187164307
1783003192916305700,1.0583056640625,-2.5090813636779785,-0.5793522596359253,-2.625448226928711
1783003192926357800,1.068357666015625,-2.41276216506958,-0.8685155510902405,-2.3399953842163086
1783003192936409600,1.07840966796875,-1.8982627391815186,-1.1423143148422241,-1.9477427005767822
1783003192946460700,1.088460693359375,-1.1253050565719604,-1.215407133102417,-1.4285084009170532
1783003192956512800,1.0985126953125,-0.29753392934799194,-1.051499843597412,-0.8937869668006897
1783003192966563600,1.1085634765625,0.3765847086906433,-0.7266191244125366,-0.5412923097610474
1783003192976616000,1.118615966796875,0.7907462120056152,-0.31182193756103516,-0.3780684471130371
1783003192986666800,1.128666748046875,0.9531298875808716,-0.06841551512479782,-0.31273454427719116
1783003192996718800,1.13871875,0.9301241636276245,-0.02636580541729927,-0.24395549297332764
1783003193006771000,1.14877099609375,0.7727625370025635,-0.029416479170322418,-0.23727566003799438
1783003193016821800,1.15882177734375,0.48355385661125183,-0.026128806173801422,-0.3438313901424408
1783003193026873900,1.168873779296875,0.13553094863891602,-0.025182683020830154,-0.5263028740882874
1783003193036925000,1.178925048828125,-0.16418838500976562,-0.0858556255698204,-0.6890379786491394
1783003193046976800,1.188976806640625,-0.3176124095916748,-0.25415900349617004,-0.7538011074066162
1783003193057028900,1.19902880859375,-0.2909768223762512,-0.5746736526489258,-0.6430498361587524
1783003193067079700,1.20907958984375,-0.14355488121509552,-1.0064101219177246,-0.3464919328689575
1783003193077131800,1.2191318359375,0.05982062220573425,-1.5509332418441772,0.08949042111635208
1783003193087182800,1.229182861328125,0.25982844829559326,-2.0064098834991455,0.5380539298057556
1783003193097234700,1.239234619140625,0.42660996317863464,-2.1736233234405518,0.9026438593864441
1783003193107285800,1.24928564453125,0.5486196279525757,-2.0531005859375,1.142849326133728
1783003193117337600,1.259337646484375,0.5959367752075195,-1.7064605951309204,1.2280609607696533
1783003193127388700,1.269388671875,0.5546489953994751,-1.2266582250595093,1.1834174394607544
1783003193137440800,1.279440673828125,0.418085515499115,-0.7502956986427307,1.1164666414260864
1783003193147492900,1.289492919921875,0.2146083116531372,-0.322991281747818,1.0104718208312988
1783003193157544000,1.2995439453125,-0.024828242138028145,-0.026855211704969406,0.8567025661468506
1783003193167595800,1.309595703125,-0.2546013593673706,0.1181950494647026,0.6708471179008484
1783003193177646800,1.319646728515625,-0.4506731331348419,0.11301999539136887,0.5040080547332764
1783003193187699000,1.329698974609375,-0.6125315427780151,0.025349749252200127,0.38997524976730347
1783003193197749800,1.339749755859375,-0.7373709082603455,-0.1550985872745514,0.3326651155948639
1783003193207801900,1.3498017578125,-0.8262109756469727,-0.4981050193309784,0.28820085525512695
1783003193217853700,1.359853759765625,-0.8786656260490417,-0.8491589426994324,0.27477240562438965
1783003193227904800,1.36990478515625,-0.9115799069404602,-1.0340474843978882,0.41605344414711
1783003193237956900,1.379956787109375,-0.9306496977806091,-0.9433565139770508,0.7142441868782043
1783003193248007700,1.390007568359375,-0.9911237955093384,-0.5195937752723694,1.1330633163452148
1783003193258059800,1.400059814453125,-1.0824217796325684,-0.016081927344202995,1.6477292776107788
1783003193268110800,1.41011083984375,-1.143538236618042,0.36481231451034546,2.0263540744781494
1783003193278162700,1.42016259765625,-1.1621243953704834,0.5543867945671082,2.141223907470703
1783003193288214800,1.43021484375,-1.228225588798523,0.3349694013595581,1.9435418844223022
1783003193298265600,1.440265625,-1.3781248331069946,-0.47983619570732117,1.491584300994873
1783003193308318000,1.45031787109375,-1.5940182209014893,-1.7432345151901245,0.8625771403312683
1783003193318368800,1.46036865234375,-1.7965087890625,-2.754652500152588,0.4823165535926819
1783003193328420900,1.4704208984375,-1.8997172117233276,-2.9348437786102295,0.6114605665206909
1783003193338472000,1.480471923828125,-1.7912192344665527,-2.5288636684417725,1.0029109716415405
1783003193348523800,1.490523681640625,-1.432879090309143,-1.6690900325775146,1.4046941995620728
1783003193358575900,1.500575927734375,-0.786894679069519,-0.5106071829795837,1.721779465675354
1783003193368627000,1.510626953125,-0.033837221562862396,0.6255838871002197,1.8522114753723145
1783003193378678800,1.5206787109375,0.5336962938308716,1.4669086933135986,1.6362367868423462
1783003193388729900,1.530729736328125,0.7339879274368286,1.8423770666122437,0.8981757164001465
1783003193398781700,1.54078173828125,0.6012069582939148,1.6695178747177124,-0.16090963780879974
1783003193408832800,1.550832763671875,0.4502270817756653,0.8954445123672485,-1.2273732423782349
1783003193418884900,1.560884765625,0.5099378228187561,-0.1760823279619217,-2.1395161151885986
1783003193428936700,1.570936767578125,0.5321910381317139,-0.8562529683113098,-2.695338487625122
1783003193438987800,1.58098779296875,0.37289029359817505,-1.0207144021987915,-2.988396167755127
1783003193449039600,1.59103955078125,0.014737171120941639,-0.6987141370773315,-3.0724000930786133
1783003193459090700,1.601090576171875,-0.31803813576698303,-0.1998308300971985,-2.7965826988220215
1783003193469142800,1.611142822265625,-0.5200461149215698,0.3042115867137909,-2.14109468460083
1783003193479193600,1.621193603515625,-0.607977569103241,0.6599342823028564,-1.2900123596191406
1783003193489246000,1.631245849609375,-0.5505814552307129,0.8331404328346252,-0.62787264585495
1783003193499297800,1.6412978515625,-0.3988233804702759,0.9512149095535278,-0.3426169753074646
1783003193509348900,1.651348876953125,-0.2176540642976761,0.9472283720970154,-0.39328160881996155
1783003193519401000,1.66140087890625,-0.11772454530000687,0.6551128625869751,-0.758492112159729
1783003193529451800,1.67145166015625,-0.1507158726453781,0.21602217853069305,-1.2484980821609497
1783003193539503900,1.68150390625,-0.19686259329319,-0.10529007762670517,-1.6864358186721802
1783003193549555000,1.691554931640625,-0.21161659061908722,-0.26503071188926697,-1.915431022644043
1783003193559606800,1.701606689453125,-0.2254762202501297,-0.2169952690601349,-1.7622127532958984
1783003193569659000,1.711658935546875,-0.26212045550346375,0.08059109002351761,-1.115456461906433
1783003193579709700,1.721709716796875,-0.2504938840866089,0.49242204427719116,-0.17278346419334412
1783003193589761800,1.73176171875,-0.1917223334312439,0.7969937920570374,0.7052705883979797
1783003193599812900,1.741812744140625,-0.1769721508026123,1.0266534090042114,1.2584646940231323
1783003193609864700,1.75186474609375,-0.2215263694524765,1.1890066862106323,1.4327818155288696
1783003193619915800,1.761915771484375,-0.31721535325050354,1.1648039817810059,1.2490540742874146
1783003193629967600,1.771967529296875,-0.4427332282066345,1.0743335485458374,0.8386849164962769
1783003193640020000,1.78202001953125,-0.5558813810348511,1.0783069133758545,0.3456730842590332
1783003193650070800,1.79207080078125,-0.592374861240387,1.1138137578964233,-0.11864359676837921
1783003193660123000,1.802122802734375,-0.5221686363220215,1.2331719398498535,-0.39416995644569397
1783003193670174000,1.812174072265625,-0.33298805356025696,1.4007984399795532,-0.395722359418869
1783003193680225800,1.822225830078125,-0.017028503119945526,1.516382098197937,-0.11669711023569107
1783003193690278000,1.83227783203125,0.4036352038383484,1.586287260055542,0.386120080947876
1783003193700328700,1.84232861328125,0.862225353717804,1.533008337020874,0.9535236358642578
1783003193710380800,1.852380859375,1.281615138053894,1.4083278179168701,1.433884620666504
1783003193720431900,1.862431884765625,1.603135585784912,1.226029872894287,1.7350831031799316
1783003193730483700,1.872483642578125,1.757715106010437,0.9859221577644348,1.8950433731079102
1783003193740534800,1.88253466796875,1.710042119026184,0.7140398025512695,1.9738422632217407
1783003193750586600,1.892586669921875,1.5380403995513916,0.5184379816055298,1.9503384828567505
1783003193760637700,1.9026376953125,1.3599567413330078,0.4572364091873169,1.7746803760528564
1783003193770689800,1.912689697265625,1.2597404718399048,0.651984691619873,1.459320306777954
1783003193780741600,1.92274169921875,1.3028908967971802,1.055302619934082,1.0431945323944092
1783003193790792700,1.932792724609375,1.4490255117416382,1.5112740993499756,0.6034321188926697
1783003193800844800,1.9428447265625,1.6576279401779175,1.9401708841323853,0.25166428089141846
1783003193810895600,1.9528955078125,1.9506312608718872,2.17350435256958,0.09217878431081772
1783003193820948000,1.962947998046875,2.278184175491333,2.271122455596924,0.19843676686286926
1783003193830998800,1.972998779296875,2.6024954319000244,2.389402389526367,0.5464350581169128
1783003193841051000,1.98305078125,2.9106225967407227,2.567500352859497,1.0804979801177979
1783003193851102700,1.993102783203125,3.155221939086914,2.700082540512085,1.5422613620758057
1783003193861153800,2.00315380859375,3.322868585586548,2.6649982929229736,1.6397000551223755
1783003193871206000,2.013205810546875,3.3958868980407715,2.1730926036834717,1.2249854803085327
1783003193881256700,2.023256591796875,3.3196702003479004,1.249984622001648,0.36673620343208313
1783003193891308800,2.033308837890625,3.1310207843780518,0.34927332401275635,-0.6158357262611389
1783003193901359900,2.04335986328125,2.9294936656951904,-0.4357464015483856,-1.5099302530288696
1783003193911411700,2.05341162109375,2.654917001724243,-0.794744074344635,-1.7745174169540405
1783003193921463800,2.0634638671875,2.7174651622772217,-0.5665562152862549,-1.3434323072433472
1783003193931514600,2.0735146484375,2.8286948204040527,-0.5427235960960388,-0.7175722122192383
1783003193941566700,2.083566650390625,2.896648406982422,-0.6028465628623962,-0.20589405298233032
1783003193951617800,2.09361767578125,2.8887925148010254,-0.7736356258392334,-0.036127883940935135
1783003193961669600,2.103669677734375,2.6921420097351074,-0.9898467659950256,-0.35205787420272827
1783003193971720700,2.113720703125,2.238123893737793,-1.0338529348373413,-1.1062757968902588
1783003193981772800,2.123772705078125,1.657061219215393,-0.9555457234382629,-2.1028757095336914
1783003193991825000,2.133824951171875,1.0076700448989868,-0.9076405763626099,-3.024029493331909
1783003194001876000,2.1438759765625,0.23936936259269714,-0.8686697483062744,-3.576364040374756
1783003194011927800,2.153927734375,-0.4827435314655304,-0.851291298866272,-3.570263624191284
1783003194021979000,2.163978759765625,-0.9776549935340881,-0.9309118390083313,-3.003363847732544
1783003194032030700,2.17403076171875,-1.2190454006195068,-1.3635514974594116,-2.034545421600342
1783003194042081800,2.184081787109375,-1.2722949981689453,-1.9444801807403564,-1.0909855365753174
1783003194052134000,2.1941337890625,-1.1584168672561646,-2.343926429748535,-0.4809167981147766
1783003194062185700,2.204185791015625,-0.9339544773101807,-2.427405595779419,-0.24165280163288116
1783003194072236800,2.21423681640625,-0.7069318890571594,-2.09372615814209,-0.4027276635169983
1783003194082288600,2.22428857421875,-0.5318833589553833,-1.4237126111984253,-0.8477253317832947
1783003194092339700,2.234339599609375,-0.41687583923339844,-0.6713837385177612,-1.4226958751678467
1783003194102391800,2.244391845703125,-0.39278674125671387,-0.08070684969425201,-1.9649850130081177
1783003194112442600,2.254442626953125,-0.5069141387939453,0.29581600427627563,-2.3030149936676025
1783003194122494700,2.26449462890625,-0.6602070331573486,0.6550048589706421,-2.321577787399292
1783003194132546800,2.274546875,-0.801796019077301,0.8414022922515869,-2.0520081520080566
1783003194142597600,2.28459765625,-0.9731248617172241,0.7388120293617249,-1.7254505157470703
1783003194152650000,2.29464990234375,-1.1643832921981812,0.5003424882888794,-1.4560575485229492
1783003194162700800,2.30470068359375,-1.332494854927063,0.2632199227809906,-1.2324007749557495
1783003194172753000,2.3147529296875,-1.4179840087890625,-0.029691901057958603,-0.998527467250824
1783003194182804000,2.324803955078125,-1.4009864330291748,-0.334042489528656,-0.7573164105415344
1783003194192855800,2.334855712890625,-1.3020658493041992,-0.6162757873535156,-0.5272588729858398
1783003194202908000,2.344907958984375,-1.1393989324569702,-0.7950111627578735,-0.2674550414085388
1783003194212958700,2.354958740234375,-0.9077345728874207,-0.8420997262001038,-0.01095379889011383
1783003194223010800,2.3650107421875,-0.637017011642456,-0.7953149080276489,0.24334345757961273
1783003194233062000,2.375061767578125,-0.39910343289375305,-0.6850516200065613,0.4278357923030853
1783003194243113700,2.38511376953125,-0.20132696628570557,-0.538769543170929,0.502829372882843
1783003194253164800,2.395164794921875,-0.10088648647069931,-0.35833191871643066,0.47025027871131897
1783003194263216600,2.405216552734375,-0.11073858290910721,-0.20360758900642395,0.3847247362136841
1783003194273268700,2.415268798828125,-0.22838205099105835,-0.11753249168395996,0.3494800925254822
1783003194283319800,2.42531982421875,-0.4364556074142456,-0.14502723515033722,0.37343358993530273
1783003194293371600,2.43537158203125,-0.6273696422576904,-0.15097253024578094,0.4766349494457245
1783003194303422700,2.445422607421875,-0.7266498804092407,0.016797564923763275,0.6716662645339966
1783003194313474800,2.455474853515625,-0.7341134548187256,0.31611132621765137,0.8450471758842468
1783003194323527000,2.46552685546875,-0.6921569108963013,0.5183582305908203,0.906217634677887
1783003194333578000,2.475577880859375,-0.6544879078865051,0.4916670620441437,0.849561333656311
1783003194343629800,2.4856298828125,-0.6455119848251343,0.2398422807455063,0.8286139369010925
1783003194353681000,2.495680908203125,-0.6519713401794434,-0.06971655040979385,1.0038681030273438
1783003194363732700,2.505732666015625,-0.6952751874923706,-0.30802473425865173,1.3235774040222168
1783003194373783800,2.51578369140625,-0.8315127491950989,-0.30314964056015015,1.7535864114761353
1783003194383836000,2.5258359375,-0.9694586396217346,-0.12681160867214203,2.294612169265747
1783003194393887700,2.5358876953125,-0.96756511926651,0.19746200740337372,2.649890661239624
1783003194403938800,2.545938720703125,-1.0003411769866943,0.4458606243133545,2.450875997543335
1783003194413990700,2.55599072265625,-1.1576882600784302,0.3575572967529297,1.7037529945373535
1783003194424041700,2.566041748046875,-1.36091148853302,0.24973388016223907,0.680077314376831
1783003194434093800,2.57609375,-1.5385841131210327,0.2663286328315735,-0.13881486654281616
1783003194444144600,2.58614453125,-1.6125211715698242,0.3459497094154358,-0.3694632649421692
1783003194454196700,2.59619677734375,-1.4956333637237549,0.5326759815216064,-0.0013798042200505733
1783003194464248800,2.606248779296875,-1.2347770929336548,0.7104843258857727,0.6183833479881287
1783003194474300000,2.6162998046875,-0.9284135103225708,0.7101210951805115,1.0812875032424927
1783003194484352000,2.62635205078125,-0.5803452730178833,0.6301591992378235,1.2789742946624756
1783003194494402800,2.63640283203125,-0.22576327621936798,0.4515002965927124,1.2299294471740723
1783003194504455000,2.646454833984375,0.04580537974834442,0.14728206396102905,0.9414045810699463
1783003194514506000,2.656506103515625,0.14891856908798218,-0.0668703019618988,0.6498045325279236
1783003194524557800,2.666557861328125,0.14403699338436127,0.000439230352640152,0.5959072113037109
1783003194534610000,2.67660986328125,-0.0032374681904911995,0.21503067016601562,0.6435587406158447
1783003194544660700,2.68666064453125,-0.29346662759780884,0.40891918540000916,0.6276357173919678
1783003194554712800,2.696712890625,-0.6990095973014832,0.4717136025428772,0.40911978483200073
1783003194564764000,2.706763916015625,-1.165097713470459,0.44379860162734985,-0.03321342170238495
1783003194574815700,2.716815673828125,-1.6139819622039795,0.44536498188972473,-0.6263703107833862
1783003194584866800,2.72686669921875,-2.00573992729187,0.5764721632003784,-1.252069115638733
1783003194594918700,2.736918701171875,-2.2629528045654297,0.7199276685714722,-1.8705575466156006
1783003194604969700,2.7469697265625,-2.3473520278930664,0.825661301612854,-2.518890142440796
1783003194615021800,2.757021728515625,-2.308520555496216,0.9325993657112122,-3.0596320629119873
1783003194625074000,2.767073974609375,-2.1131527423858643,1.010947823524475,-3.382819175720215
1783003194635124700,2.777124755859375,-1.7507717609405518,1.0522743463516235,-3.4606542587280273
1783003194645176800,2.7871767578125,-1.23678719997406,1.1608787775039673,-3.2370831966400146
1783003194655228000,2.797227783203125,-0.6066765785217285,1.2685575485229492,-2.7550253868103027
1783003194665279700,2.80727978515625,-0.023628290742635727,1.2133129835128784,-2.055121898651123
1783003194675331800,2.817331787109375,0.31760871410369873,0.8893750905990601,-1.3254269361495972
1783003194685383000,2.8273828125,0.4087553918361664,0.291492223739624,-0.7186805009841919
1783003194695434800,2.837434814453125,0.33714568614959717,-0.3605774939060211,-0.23540253937244415
1783003194705485300,2.8474853515625,0.21900814771652222,-0.9221886396408081,0.10134965181350708
1783003194715537400,2.857537353515625,0.08745666593313217,-1.2943707704544067,0.29395589232444763
1783003194725588200,2.867588134765625,0.011619161814451218,-1.3562583923339844,0.35325491428375244
1783003194735640300,2.877640380859375,0.03452402725815773,-1.1882834434509277,0.21780186891555786
1783003194745692200,2.887692138671875,0.12311035394668579,-0.8900317549705505,-0.10449469089508057
1783003194755743200,2.8977431640625,0.2569757103919983,-0.4598585069179535,-0.5195562243461609
1783003194765795300,2.90779541015625,0.42530375719070435,-0.03922048583626747,-0.9260161519050598
1783003194775846100,2.91784619140625,0.6011462211608887,0.2134723961353302,-1.2090179920196533
1783003194785898200,2.927898193359375,0.7273268103599548,0.22122032940387726,-1.2939075231552124
1783003194795949300,2.93794921875,0.8031608462333679,0.023531818762421608,-1.1366593837738037
1783003194806001200,2.948001220703125,0.810932457447052,-0.24445942044258118,-0.8000882863998413
1783003194816053500,2.958053466796875,0.7206528782844543,-0.4614463448524475,-0.3010990619659424
1783003194826104300,2.968104248046875,0.6058152318000793,-0.6817278265953064,0.3294677138328552
1783003194836156400,2.978156494140625,0.5277822613716125,-0.8109723925590515,0.8779361844062805
1783003194846207500,2.98820751953125,0.47131842374801636,-0.6611533164978027,1.2570419311523438
1783003194856259300,2.99825927734375,0.46282991766929626,-0.37218421697616577,1.40322744846344
1783003194866310400,3.008310302734375,0.4654938876628876,-0.071393221616745,1.2743477821350098
1783003194876362200,3.0183623046875,0.47328269481658936,0.1479494422674179,0.9598006010055542
1783003194886414300,3.028414306640625,0.4764755666255951,0.2510468065738678,0.5832732915878296
1783003194896465400,3.03846533203125,0.4742542803287506,0.3197983503341675,0.27545246481895447
1783003194906517200,3.048517333984375,0.4473731219768524,0.37759265303611755,0.06874749064445496
1783003194916568300,3.058568359375,0.41908708214759827,0.32781481742858887,-0.04109853506088257
1783003194926620200,3.0686201171875,0.3644651174545288,0.2537277936935425,0.055250100791454315
1783003194936671200,3.078671142578125,0.37514790892601013,0.16571588814258575,0.45428529381752014
1783003194946723300,3.088723388671875,0.48221710324287415,0.2470128834247589,1.0797063112258911
1783003194956775200,3.098775146484375,0.6819145083427429,0.5764472484588623,1.854552149772644
1783003194966826200,3.108826171875,0.9176865816116333,0.8397044539451599,2.436765670776367
1783003194976878300,3.11887841796875,1.120816707611084,0.7908931374549866,2.4544155597686768
1783003194986929200,3.12892919921875,1.1804085969924927,0.5100617408752441,1.8138171434402466
1783003194996981500,3.1389814453125,1.0410410165786743,0.2066451758146286,0.7025489807128906
1783003195007032300,3.1490322265625,0.7606924772262573,0.08464257419109344,-0.2833609879016876
1783003195017084400,3.15908447265625,0.3638700842857361,0.275851309299469,-0.5637543797492981
1783003195027136300,3.16913623046875,0.006199563853442669,0.6160911917686462,-0.13275155425071716
1783003195037187300,3.179187255859375,-0.21338914334774017,0.8364503383636475,0.46613502502441406
1783003195047239400,3.189239501953125,-0.24498941004276276,0.8678146004676819,0.7885453104972839
1783003195057290200,3.199290283203125,-0.07911539077758789,0.8301310539245605,0.8232011795043945
1783003195067342300,3.20934228515625,0.21531598269939423,0.7676472067832947,0.6789247393608093
1783003195077393400,3.219393310546875,0.46345388889312744,0.5898151993751526,0.48382115364074707
1783003195087445200,3.2294453125,0.5508130192756653,0.20788566768169403,0.3263860046863556
1783003195097497300,3.239497314453125,0.4243660867214203,-0.42677757143974304,0.14318488538265228
1783003195107548200,3.249548095703125,0.1311062127351761,-1.1693230867385864,-0.09209980815649033
1783003195117600300,3.259600341796875,-0.1811487227678299,-1.7267037630081177,-0.391354501247406
1783003195127651300,3.2696513671875,-0.4213200509548187,-1.9359030723571777,-0.7748816609382629
1783003195137703200,3.279703125,-0.6158052682876587,-1.8005231618881226,-1.257765531539917
1783003195147755300,3.28975537109375,-0.817443311214447,-1.392739176750183,-1.8111296892166138
1783003195157806300,3.299806396484375,-1.0238696336746216,-0.8346366882324219,-2.4377341270446777
1783003195167858400,3.3098583984375,-1.2163373231887817,-0.2995341420173645,-3.0978705883026123
1783003195177909200,3.3199091796875,-1.396347165107727,-0.05936224013566971,-3.5806684494018555
1783003195187961300,3.32996142578125,-1.4506804943084717,-0.038519009947776794,-3.608795166015625
1783003195198012400,3.340012451171875,-1.2747488021850586,-0.1559058427810669,-3.06933331489563
1783003195208064300,3.350064208984375,-0.9222145080566406,-0.41796037554740906,-2.1442949771881104
1783003195218116400,3.360116455078125,-0.5264063477516174,-0.8261867761611938,-1.1484075784683228
1783003195228167200,3.370167236328125,-0.17113053798675537,-1.3050068616867065,-0.3493509292602539
1783003195238219300,3.38021923828125,0.10485173761844635,-1.6881861686706543,0.11281322687864304
1783003195248270300,3.390270263671875,0.30128782987594604,-1.7886196374893188,0.24634920060634613
1783003195258322200,3.400322265625,0.3905230164527893,-1.6279736757278442,0.09263443946838379
1783003195268373200,3.410373291015625,0.3739195168018341,-1.2411974668502808,-0.2596392035484314
1783003195278425300,3.42042529296875,0.29220572113990784,-0.8270829916000366,-0.6713337898254395
1783003195288477200,3.430477294921875,0.14959903061389923,-0.5205371379852295,-1.0681043863296509
1783003195298528300,3.4405283203125,-0.02691173180937767,-0.336554616689682,-1.3046108484268188
1783003195308580400,3.450580322265625,-0.13988488912582397,-0.2215886116027832,-1.2568295001983643
1783003195318631200,3.460631103515625,-0.12707063555717468,-0.3308580815792084,-0.9737902879714966
1783003195328683300,3.470683349609375,-0.000685268547385931,-0.6752628684043884,-0.5304821133613586
1783003195338734300,3.480734375,0.1743040382862091,-1.0495057106018066,-0.042519815266132355
1783003195348786400,3.490786376953125,0.33625513315200806,-1.2084673643112183,0.34629932045936584
1783003195358838300,3.50083837890625,0.39754170179367065,-1.184004306793213,0.6105703115463257
1783003195368889300,3.510889404296875,0.36706581711769104,-1.0702470541000366,0.7480030059814453
1783003195378941200,3.520941162109375,0.287095844745636,-0.9291176199913025,0.8109924793243408
1783003195388992300,3.5309921875,0.16473501920700073,-0.7435147166252136,0.8015971183776855
1783003195399044400,3.54104443359375,0.006274623796343803,-0.4723072946071625,0.7159127593040466
1783003195409095200,3.55109521484375,-0.1767529845237732,-0.1623787134885788,0.5864810347557068
1783003195419147300,3.561147216796875,-0.33339351415634155,0.0641913115978241,0.44552743434906006
1783003195429199000,3.57119921875,-0.3836047351360321,0.256786048412323,0.3816523551940918
1783003195439250200,3.581250244140625,-0.3443226218223572,0.3549315929412842,0.43372297286987305
1783003195449302300,3.59130224609375,-0.2667013108730316,0.3266378939151764,0.5868690609931946
1783003195459353000,3.60135302734375,-0.1805003583431244,0.1707497090101242,0.7773852944374084
1783003195469405200,3.6114052734375,-0.11062194406986237,-0.0036681615747511387,0.9446669816970825
1783003195479456300,3.621456298828125,-0.09676171839237213,-0.018795741721987724,1.0798089504241943
1783003195489508400,3.63150830078125,-0.1627867966890335,0.1469266414642334,1.1403944492340088
1783003195499560400,3.641560546875,-0.3070177435874939,0.5108672976493835,1.105700135231018
1783003195509611300,3.651611328125,-0.4865315556526184,0.9248982667922974,0.9994258284568787
1783003195519663400,3.661663330078125,-0.6325637698173523,1.3543198108673096,0.9191156029701233
1783003195529714400,3.67171435546875,-0.6634897589683533,1.7569018602371216,1.0189974308013916
1783003195539766300,3.681766357421875,-0.5338030457496643,1.9831690788269043,1.4551355838775635
1783003195549817300,3.6918173828125,-0.32292065024375916,1.948472023010254,2.213085174560547
1783003195559869200,3.701869140625,-0.14593270421028137,1.5604366064071655,3.0059561729431152
1783003195569921300,3.71192138671875,-0.093804270029068,0.7402831315994263,3.477288246154785
1783003195579972400,3.721972412109375,-0.23436519503593445,-0.2228470742702484,3.465909242630005
1783003195590024200,3.732024169921875,-0.7348200082778931,-0.9433900713920593,2.991624116897583
1783003195600075300,3.7420751953125,-1.602799415588379,-1.1657955646514893,2.112178325653076
1783003195610127000,3.752127197265625,-2.38045334815979,-0.4907582700252533,0.9020491242408752
1783003195620178200,3.76217822265625,-2.696669101715088,1.010006070137024,-0.36767974495887756
1783003195630230300,3.772230224609375,-2.431710958480835,2.8738462924957275,-1.1372398138046265
1783003195640282400,3.782282470703125,-1.6762120723724365,4.202661991119385,-1.0275415182113647
1783003195650333400,3.79233349609375,-0.7374288439750671,4.455484390258789,-0.1848994493484497
1783003195660385300,3.80238525390625,-0.06049460545182228,3.493759870529175,0.8579365015029907
1783003195670436400,3.812436279296875,0.13404184579849243,1.7373158931732178,1.5740448236465454
1783003195680488400,3.822488525390625,0.028397785499691963,-0.01732679456472397,1.7435944080352783
1783003195690539300,3.832539306640625,-0.10224944353103638,-1.254509687423706,1.3960007429122925
1783003195700591600,3.842591552734375,-0.025954822078347206,-1.7920610904693604,0.7157582640647888
1783003195710643500,3.8526435546875,0.20130470395088196,-1.4081687927246094,-0.26885688304901123
1783003195720694500,3.862694580078125,0.3742145597934723,-0.37822872400283813,-1.3408808708190918
1783003195730746600,3.87274658203125,0.3376203179359436,0.7680538892745972,-2.3202850818634033
1783003195740797400,3.88279736328125,0.08223757892847061,1.5989747047424316,-3.0326497554779053
1783003195750849500,3.892849609375,-0.20617690682411194,1.8256222009658813,-3.2763311862945557
1783003195760900600,3.902900634765625,-0.3636096119880676,1.5432666540145874,-3.0260391235351562
1783003195770952400,3.912952392578125,-0.3795022964477539,0.8510429263114929,-2.491116523742676
1783003195781004500,3.923004638671875,-0.33113428950309753,-0.0019657034426927567,-1.8661646842956543
1783003195791055400,3.933055419921875,-0.18032532930374146,-0.6338260173797607,-1.2613632678985596
1783003195801107700,3.943107666015625,0.059579990804195404,-0.9176108241081238,-0.825542688369751
1783003195811158800,3.95315869140625,0.3059804439544678,-0.9201557040214539,-0.6506693959236145
1783003195821210600,3.963210693359375,0.4586161971092224,-0.6346226930618286,-0.7119619846343994
1783003195831262500,3.973262451171875,0.5192438960075378,-0.2116890251636505,-0.8902880549430847
1783003195841313500,3.9833134765625,0.5221816301345825,0.11698076128959656,-1.0891945362091064
1783003195851365600,3.99336572265625,0.4257461428642273,0.24305853247642517,-1.1825319528579712
1783003195861416700,4.003416748046875,0.18643899261951447,0.18312382698059082,-1.0872817039489746
1783003195871468500,4.013468505859375,-0.03139053285121918,0.10037781298160553,-0.9040985107421875
1783003195881519600,4.02351953125,-0.10576531291007996,0.05648799240589142,-0.700180172920227
1783003195891571500,4.033571533203125,-0.09198132157325745,0.0027472656220197678,-0.47772178053855896
1783003195901622500,4.04362255859375,-0.06809078902006149,-0.09078412503004074,-0.20243483781814575
1783003195911674600,4.053674560546875,-0.047576457262039185,-0.18820682168006897,0.08309996128082275
1783003195921726500,4.0637265625,-0.06295045465230942,-0.29701754450798035,0.2854793667793274
1783003195931777500,4.073777587890625,-0.12344042956829071,-0.4460397958755493,0.42136847972869873
1783003195941829400,4.083829345703125,-0.19036531448364258,-0.6232817769050598,0.5017732381820679
1783003195951880400,4.09388037109375,-0.25044193863868713,-0.6394908428192139,0.5252586007118225
1783003195961932500,4.1039326171875,-0.2746009826660156,-0.4275848865509033,0.43896856904029846
1783003195971983400,4.1139833984375,-0.29645541310310364,-0.05982977896928787,0.345676451921463
1783003195982035700,4.12403564453125,-0.31784865260124207,0.27424925565719604,0.37128570675849915
1783003195992087600,4.134087646484375,-0.33818376064300537,0.35448578000068665,0.4609341025352478
1783003196002138600,4.144138671875,-0.3491867482662201,0.20974336564540863,0.6223909258842468
1783003196012190500,4.1541904296875,-0.32997044920921326,-0.036142561584711075,0.8256585597991943
1783003196022241500,4.164241455078125,-0.26962822675704956,-0.27555570006370544,1.0156941413879395
1783003196032293600,4.174293701171875,-0.16488529741764069,-0.4928334355354309,1.143715739250183
1783003196042345500,4.184345458984375,-0.024662956595420837,-0.56642746925354,1.1585800647735596
1783003196052396500,4.194396484375,0.10719254612922668,-0.43870946764945984,1.0763880014419556
1783003196062448400,4.204448486328125,0.18647363781929016,-0.2391621172428131,0.9539076685905457
1783003196072499500,4.21449951171875,0.17620502412319183,0.009029043838381767,0.8159152269363403
1783003196082551600,4.224551513671875,0.10208383202552795,0.23767828941345215,0.6943865418434143
1783003196092602400,4.234602294921875,0.002890667412430048,0.43990010023117065,0.5868585109710693
1783003196102654500,4.244654541015625,-0.10418399423360825,0.6806685924530029,0.4172425866127014
1783003196112706300,4.254706298828125,-0.13198472559452057,0.8302948474884033,0.22521640360355377
1783003196122757400,4.26475732421875,-0.1210431233048439,0.7752622365951538,0.036583833396434784
1783003196132809700,4.274809814453125,-0.0808030217885971,0.6880354285240173,-0.10587290674448013
1783003196142860500,4.284860595703125,0.027627717703580856,0.8614243268966675,-0.00731677608564496
1783003196152912600,4.29491259765625,0.16947752237319946,1.0253592729568481,0.3915398120880127
1783003196162963700,4.304963623046875,0.09399101883172989,0.7144458293914795,0.9147171974182129
1783003196173015600,4.315015625,-0.41210490465164185,-0.26091504096984863,1.0417590141296387
1783003196183067600,4.325067626953125,-1.2382436990737915,-1.3678069114685059,0.5396510362625122
1783003196193118500,4.335118408203125,-1.9582465887069702,-1.6628787517547607,-0.2871113121509552
1783003196203170600,4.345170654296875,-2.24326229095459,-0.5471190810203552,-0.7336867451667786
1783003196213221600,4.3552216796875,-2.000422239303589,1.1307752132415771,-0.7524082064628601
1783003196223273500,4.3652734375,-1.4103366136550903,2.075388193130493,-0.4288526773452759
1783003196233324500,4.375324462890625,-0.7142848968505859,1.7955067157745361,0.19649136066436768
1783003196243376400,4.38537646484375,-0.2105628401041031,0.7949641942977905,0.7953961491584778
1783003196253428500,4.395428466796875,-0.1164294108748436,-0.27673014998435974,1.0407835245132446
1783003196263479600,4.4054794921875,-0.27027207612991333,-1.2064629793167114,1.103167176246643
1783003196273531400,4.415531494140625,-0.3848823010921478,-1.9100016355514526,1.0317622423171997
1783003196283582500,4.42558251953125,-0.3940831422805786,-2.0597333908081055,0.5043398141860962
1783003196293634600,4.435634521484375,-0.3863133490085602,-1.671621322631836,-0.5200973153114319
1783003196303685400,4.445685302734375,-0.4008015990257263,-1.1334713697433472,-1.6452445983886719
1783003196313737700,4.45573779296875,-0.4282497465610504,-0.8840391039848328,-2.464550733566284
1783003196323789600,4.46578955078125,-0.4078894555568695,-1.0872472524642944,-2.713602066040039
1783003196333840600,4.475840576171875,-0.25763338804244995,-1.5766355991363525,-2.445422649383545
1783003196343892500,4.485892578125,0.006285438779741526,-2.131470203399658,-2.0058200359344482
1783003196353943600,4.495943603515625,0.27634942531585693,-2.4656012058258057,-1.6826856136322021
1783003196363995600,4.50599560546875,0.42474520206451416,-2.444723606109619,-1.4730497598648071
1783003196374046500,4.51604638671875,0.35075217485427856,-2.14945650100708,-1.2162328958511353
1783003196384098600,4.5260986328125,0.14367608726024628,-1.7173742055892944,-0.9099873304367065
1783003196394150400,4.536150390625,0.04270579665899277,-1.1949810981750488,-0.6023343801498413
1783003196404201500,4.546201416015625,0.14348001778125763,-0.7166303992271423,-0.3695552349090576
1783003196414253600,4.556253662109375,0.3643586039543152,-0.4071106016635895,-0.20513461530208588
1783003196424304400,4.566304443359375,0.7024791240692139,-0.286582887172699,-0.08408352732658386
1783003196434356500,4.5763564453125,1.1350833177566528,-0.29428476095199585,-0.0044411648996174335
1783003196444407600,4.586407470703125,1.5517923831939697,-0.42784583568573,0.04667773097753525
1783003196454459400,4.59645947265625,1.7440446615219116,-0.7597697377204895,0.01001292746514082
1783003196464511700,4.60651171875,1.6395690441131592,-1.1760799884796143,0.17027604579925537
1783003196474562600,4.6165625,1.3089120388031006,-1.611177921295166,0.5904903411865234
1783003196484614700,4.62661474609375,0.9642430543899536,-1.8730266094207764,1.0445191860198975
1783003196494665700,4.636665771484375,0.7480809092521667,-1.7075105905532837,1.2957501411437988
1783003196504717600,4.646717529296875,0.6593172550201416,-1.1301265954971313,1.2919163703918457
1783003196514768600,4.6567685546875,0.6295974850654602,-0.4034130573272705,1.1584938764572144
1783003196524820500,4.666820556640625,0.6398734450340271,0.220083087682724,0.9392064809799194
1783003196534872600,4.67687255859375,0.6851237416267395,0.6458895206451416,0.6987121105194092
1783003196544923600,4.686923583984375,0.6897934079170227,0.8502532243728638,0.45857492089271545
1783003196554975500,4.6969755859375,0.6589966416358948,0.7472802400588989,0.26912030577659607
1783003196565026600,4.707026611328125,0.6008245944976807,0.33984410762786865,0.18221670389175415
1783003196575078400,4.717078369140625,0.49968627095222473,-0.13034020364284515,0.193902388215065
1783003196585130500,4.727130615234375,0.3695235252380371,-0.40864992141723633,0.23910152912139893
1783003196595181600,4.737181640625,0.22446247935295105,-0.49720561504364014,0.29921653866767883
1783003196605233400,4.7472333984375,0.09253108501434326,-0.36013805866241455,0.43524307012557983
1783003196615284500,4.757284423828125,0.046695951372385025,-0.10667728632688522,0.6191726922988892
1783003196625336600,4.767336669921875,0.05779898911714554,0.21263037621974945,0.7690679430961609
1783003196635387600,4.7773876953125,0.05961286649107933,0.5106160044670105,0.8212546706199646
1783003196645439700,4.787439697265625,0.025860829278826714,0.645024299621582,0.7615216374397278
1783003196655491600,4.79749169921875,-0.03832241892814636,0.5393122434616089,0.6216154098510742
1783003196665542700,4.807542724609375,-0.0785001665353775,0.2751663327217102,0.44485923647880554
1783003196675594500,4.817594482421875,-0.0524778887629509,0.105585016310215,0.22660039365291595
1783003196685645600,4.8276455078125,0.03765520453453064,0.28500136733055115,-0.06206619739532471
1783003196695697700,4.83769775390625,0.12018922716379166,0.9295552968978882,-0.36321139335632324
1783003196705748500,4.84774853515625,0.20659643411636353,1.9016891717910767,-0.6452192664146423
1783003196715800600,4.857800537109375,0.3268357515335083,2.9776673316955566,-0.725867509841919
1783003196725852400,4.867852294921875,0.4779221713542938,3.8118932247161865,-0.4207243025302887
1783003196735903500,4.877903564453125,0.6649181246757507,3.797240734100342,0.04341058060526848
1783003196745955600,4.88795556640625,0.8595783710479736,3.0922842025756836,0.503479540348053
1783003196756006400,4.89800634765625,1.0792784690856934,2.243769884109497,0.6815459728240967
1783003196766058800,4.908058837890625,1.2755271196365356,1.8808212280273438,0.18033148348331451
1783003196776109600,4.918109619140625,1.3845020532608032,2.1042215824127197,-0.7991211414337158
1783003196786161700,4.92816162109375,1.3737486600875854,2.70588755607605,-1.5976629257202148
1783003196796213500,4.938213623046875,1.3645472526550293,3.344742774963379,-1.8347760438919067
1783003196806264600,4.9482646484375,1.4619202613830566,3.679595708847046,-1.5511878728866577
1783003196816316700,4.958316650390625,1.5413482189178467,3.5964272022247314,-1.0456475019454956
1783003196826367700,4.96836767578125,1.4460185766220093,3.0863561630249023,-0.5205268859863281
1783003196836419600,4.978419677734375,1.0428963899612427,1.968119502067566,-0.14575564861297607
1783003196846470700,4.988470703125,0.49027833342552185,0.49341320991516113,0.18192169070243835
1783003196856522500,4.9985224609375,0.11229373514652252,-1.0876681804656982,0.5878415107727051
1783003196866573600,5.008573486328125,-0.11535822600126266,-2.516982316970825,0.8573731780052185
1783003196876625700,5.018625732421875,-0.28134825825691223,-3.3333687782287598,0.749963104724884
1783003196886677500,5.028677490234375,-0.38064199686050415,-3.1617915630340576,0.3761194348335266
1783003196896728600,5.038728515625,-0.4124175012111664,-2.1942498683929443,-0.09422198683023453
1783003196906780400,5.048780517578125,-0.4078982472419739,-1.111335039138794,-0.5246937274932861
1783003196916831500,5.05883154296875,-0.3860534131526947,-0.3549584150314331,-0.7817971706390381
1783003196926883600,5.068883544921875,-0.32486432790756226,0.03420183062553406,-1.005421757698059
1783003196936934400,5.078934326171875,-0.3575327694416046,0.17464444041252136,-1.451127290725708
1783003196946986800,5.08898681640625,-0.566927969455719,0.16584712266921997,-2.035541296005249
1783003196957038600,5.09903857421875,-0.9259687066078186,0.15249429643154144,-2.5726258754730225
1783003196967089700,5.109089599609375,-1.2982392311096191,0.03438100591301918,-2.854431629180908
1783003196977141500,5.1191416015625,-1.5097568035125732,-0.05676781013607979,-2.748317241668701
1783003196987192600,5.129192626953125,-1.5379035472869873,-0.1686975657939911,-2.228062391281128
1783003196997244700,5.13924462890625,-1.4365108013153076,-0.3469349443912506,-1.46867036819458
1783003197007295500,5.14929541015625,-1.3239015340805054,-0.5298372507095337,-0.65863436460495
1783003197017347600,5.15934765625,-1.2002547979354858,-0.779303252696991,0.1974094808101654
1783003197027399400,5.1693994140625,-1.039993405342102,-1.0564148426055908,1.01677405834198
1783003197037450500,5.179450439453125,-0.821832001209259,-1.3618413209915161,1.698283314704895
1783003197047502600,5.189502685546875,-0.5553727149963379,-1.7446147203445435,2.221346855163574
1783003197057553400,5.199553466796875,-0.29819735884666443,-2.207139015197754,2.590067148208618
1783003197067605500,5.20960546875,-0.13159306347370148,-2.5253076553344727,2.686225652694702
1783003197077656600,5.219656494140625,-0.0031693154014647007,-2.4790163040161133,2.424625873565674
1783003197087708400,5.22970849609375,0.11185957491397858,-1.982365608215332,1.7985508441925049
1783003197097760800,5.2397607421875,0.19460266828536987,-1.1689730882644653,0.9665364027023315
1783003197107811600,5.2498115234375,0.23434443771839142,-0.17180198431015015,0.10899618268013
1783003197117863700,5.25986376953125,0.24656488001346588,0.6776608824729919,-0.5525383353233337
1783003197127914800,5.269914794921875,0.21690362691879272,1.0490612983703613,-0.8831279873847961
1783003197137966600,5.279966552734375,0.16294851899147034,1.0654685497283936,-0.8900354504585266
1783003197148017700,5.290017578125,0.10991359502077103,1.073548436164856,-0.669172465801239
1783003197158069500,5.300069580078125,0.08777101337909698,0.9267207384109497,-0.30063673853874207
1783003197168121600,5.31012158203125,0.12900565564632416,0.3827550709247589,0.12194608151912689
1783003197178172700,5.320172607421875,0.2319410890340805,-0.7003951072692871,0.5666292905807495
1783003197188224500,5.330224609375,0.3738108277320862,-1.289401888847351,1.1773484945297241
1783003197198275600,5.340275634765625,0.4013862609863281,-1.2117105722427368,1.6902974843978882
1783003197208327400,5.350327392578125,0.227738618850708,-0.6664009690284729,1.8695975542068481
1783003197218378500,5.36037841796875,-0.03058028593659401,-0.10589183866977692,1.7624889612197876
1783003197228430600,5.3704306640625,-0.38737010955810547,-0.035007789731025696,1.3556071519851685
1783003197238482400,5.380482421875,-0.8035532236099243,-0.26406121253967285,0.6611884236335754
1783003197248533500,5.390533447265625,-1.170613169670105,-0.7048953771591187,-0.020703446120023727
1783003197258585600,5.400585693359375,-1.3963913917541504,-1.0309879779815674,-0.4487623870372772
1783003197268636400,5.410636474609375,-1.4989922046661377,-1.3201195001602173,-0.585186243057251
1783003197278688800,5.420688720703125,-1.5240352153778076,-1.4659444093704224,-0.4591801166534424
1783003197288739600,5.430739501953125,-1.41965913772583,-1.1107430458068848,-0.09811358898878098
1783003197298791700,5.440791748046875,-1.1551082134246826,-0.351504385471344,0.4132239818572998
1783003197308843500,5.450843505859375,-0.7949303388595581,0.3688061833381653,0.9227461814880371
1783003197318894600,5.46089453125,-0.3453642725944519,0.7711429595947266,1.2758595943450928
1783003197328946700,5.47094677734375,0.10672429949045181,0.6440256237983704,1.302926778793335
1783003197338997500,5.48099755859375,0.47563549876213074,0.2557273805141449,1.0096133947372437
1783003197349049600,5.491049560546875,0.5234505534172058,-0.09154363721609116,0.4950264096260071
1783003197359100700,5.5011005859375,-0.04358305037021637,-0.41682079434394836,-0.20531542599201202
1783003197369152500,5.511152587890625,-0.9500350952148438,-0.07346218079328537,-0.76036137342453
1783003197379203600,5.52120361328125,-1.6414700746536255,1.073618769645691,-1.0031145811080933
1783003197389255400,5.53125537109375,-2.0073208808898926,1.7078136205673218,-1.0561569929122925
1783003197399307500,5.5413076171875,-1.9210872650146484,1.4084309339523315,-0.9053418636322021
1783003197409358600,5.551358642578125,-1.398835301399231,0.5025692582130432,-0.5464498400688171
1783003197419410400,5.561410400390625,-0.6472042202949524,-0.44189685583114624,-0.011525705456733704
1783003197429461500,5.57146142578125,0.07929506152868271,-1.0405417680740356,0.5167697072029114
1783003197439513600,5.581513671875,0.490153431892395,-1.2479116916656494,0.7730334401130676
1783003197449564700,5.591564697265625,0.5544136166572571,-1.0842502117156982,0.6553126573562622
1783003197459616800,5.60161669921875,0.3966306746006012,-0.6200773119926453,0.1706746220588684
1783003197469668600,5.611668701171875,0.1813904047012329,-0.03527481481432915,-0.5300419330596924
1783003197479719700,5.6217197265625,0.0402950756251812,0.36280038952827454,-1.1818500757217407
1783003197489771500,5.631771484375,-0.011570887640118599,0.5655480623245239,-1.5217459201812744
1783003197499822600,5.641822509765625,-0.006118597462773323,0.6209074854850769,-1.4442954063415527
1783003197509874700,5.651874755859375,0.00357354199513793,0.5387682914733887,-1.0455269813537598
1783003197519925500,5.661925537109375,-0.03481272608041763,0.3369041085243225,-0.5073535442352295
1783003197529977600,5.6719775390625,-0.16469192504882812,-0.028290914371609688,-0.032301295548677444
1783003197540029400,5.682029541015625,-0.3653768301010132,-0.3802500367164612,0.27067455649375916
1783003197550080500,5.69208056640625,-0.5625590085983276,-0.6487114429473877,0.3688018321990967
1783003197560132600,5.702132568359375,-0.6754554510116577,-0.7906667590141296,0.3073512613773346
1783003197570183400,5.712183349609375,-0.6223277449607849,-0.7269410490989685,0.19996687769889832
1783003197580235500,5.722235595703125,-0.3990831971168518,-0.6622923016548157,0.16555458307266235
1783003197590286600,5.73228662109375,0.013505121693015099,-0.6340706944465637,0.3198011815547943
1783003197600338700,5.742338623046875,0.5169097185134888,-0.6249715089797974,0.5658841729164124
1783003197610390800,5.752390869140625,0.9710699915885925,-0.5773102045059204,0.7522814869880676
1783003197620441600,5.762441650390625,1.2684606313705444,-0.391517698764801,0.8574340343475342
1783003197630493700,5.77249365234375,1.3974212408065796,-0.0215904600918293,0.8893496990203857
1783003197640544800,5.782544677734375,1.4137437343597412,0.4572778344154358,0.8540777564048767
1783003197650596600,5.7925966796875,1.3417248725891113,0.9034509062767029,0.7889176607131958
1783003197660647700,5.802647705078125,1.214821696281433,1.201263427734375,0.73614501953125
1783003197670699500,5.812699462890625,1.0695418119430542,1.2794549465179443,0.7430557012557983
1783003197680751600,5.822751708984375,0.9205977916717529,1.165255069732666,0.8199113607406616
1783003197690802700,5.832802734375,0.7904282212257385,1.0101970434188843,0.9647210240364075
1783003197700854800,5.842854736328125,0.6965134739875793,0.8885136842727661,1.1267520189285278
1783003197710905600,5.852905517578125,0.6291994452476501,0.8055937886238098,1.2470810413360596
1783003197720957700,5.862957763671875,0.5773695111274719,0.7380744218826294,1.3030561208724976
1783003197731008800,5.8730087890625,0.5446158647537231,0.823905885219574,1.3087363243103027
1783003197741060600,5.883060546875,0.58049476146698,1.062391996383667,1.2972429990768433
1783003197751111700,5.893111572265625,0.6571542620658875,1.2867141962051392,1.2708396911621094
1783003197761163800,5.903163818359375,0.7678858637809753,1.3556431531906128,1.2714591026306152
1783003197771215600,5.913215576171875,0.8978829383850098,1.2714025974273682,1.294076681137085
1783003197781266700,5.9232666015625,0.919089674949646,0.9742345809936523,1.2672573328018188
1783003197791318500,5.933318603515625,0.8205750584602356,0.7573058009147644,1.27043616771698
1783003197801369600,5.94336962890625,0.7284795045852661,0.8323273062705994,1.398885726928711
1783003197811421700,5.953421630859375,0.6350650787353516,0.930181086063385,1.542593002319336
1783003197821472800,5.96347265625,0.6841815114021301,1.0674657821655273,1.5993430614471436
1783003197831524600,5.973524658203125,1.062732219696045,1.21518075466156,1.8037687540054321
1783003197841576700,5.98357666015625,1.4508626461029053,1.5863980054855347,2.8186450004577637
1783003197851627500,5.99362744140625,1.5417218208312988,1.7803564071655273,3.6670162677764893
1783003197861679600,6.0036796875,1.4798089265823364,1.609369158744812,3.6323275566101074
1783003197871730700,6.013730712890625,1.4317337274551392,0.7794220447540283,2.8410186767578125
1783003197881782800,6.02378271484375,1.1903671026229858,0.15119250118732452,1.7864290475845337
1783003197891833900,6.033833740234375,0.7113199830055237,0.18987615406513214,0.6586551666259766
1783003197901885700,6.0438857421875,0.10231760144233704,0.3749048709869385,-0.746519148349762
1783003197911937800,6.053937744140625,-0.5031605958938599,0.18996857106685638,-2.4963901042938232
1783003197921988600,6.063988525390625,-1.0217596292495728,-0.048010699450969696,-4.044623374938965
1783003197932040700,6.074040771484375,-1.3145389556884766,0.23961330950260162,-4.829034805297852
1783003197942091800,6.084091796875,-1.4343814849853516,0.8873803615570068,-4.610039234161377
1783003197952143600,6.0941435546875,-1.200690507888794,1.3152004480361938,-3.61102032661438
1783003197962194700,6.104194580078125,-0.789375364780426,0.9994508624076843,-2.24530291557312
1783003197972246500,6.11424658203125,-0.2480754405260086,-0.18381790816783905,-0.6914706230163574
