time,seconds_elapsed,z,y,x
1783003191932509700,0.074509765625,0.08797832578420639,-0.0948929563164711,0.6616613268852234
1783003191942561500,0.0845615234375,0.2711140513420105,0.005831790156662464,0.7443056106567383
1783003191952612600,0.094612548828125,0.4517959654331207,0.11928164958953857,0.6894024014472961
1783003191962664700,0.104664794921875,0.6442245244979858,0.04061400517821312,0.6092686653137207
1783003191972715500,0.114715576171875,0.8114997744560242,-0.25486665964126587,0.4955335855484009
1783003191982767600,0.124767578125,0.9482187628746033,-0.7312137484550476,0.3398481011390686
1783003191992818700,0.134818603515625,1.044551968574524,-1.4114854335784912,0.103035569190979
1783003192002870500,0.14487060546875,1.0792028903961182,-2.0326857566833496,-0.2721010148525238
1783003192012923000,0.1549228515625,1.0525424480438232,-2.4132707118988037,-0.7137322425842285
1783003192022973700,0.1649736328125,0.9694731831550598,-2.472473382949829,-1.0805648565292358
1783003192033025800,0.17502587890625,0.8759679794311523,-2.1719069480895996,-1.191219449043274
1783003192043076900,0.185076904296875,0.760539174079895,-1.6954759359359741,-1.0553313493728638
1783003192053128700,0.195128662109375,0.6565568447113037,-1.2988777160644531,-0.7036582827568054
1783003192063180800,0.205180908203125,0.7536407709121704,-0.2732991874217987,-0.2805403172969818
1783003192073231600,0.215231689453125,0.9611249566078186,0.5090022683143616,0.5348823070526123
1783003192083283700,0.22528369140625,1.2822785377502441,1.0469386577606201,1.3111016750335693
1783003192093334800,0.235334716796875,1.7650365829467773,1.4657998085021973,1.643499493598938
1783003192103386600,0.24538671875,2.2605507373809814,1.9676557779312134,1.6343889236450195
1783003192113437700,0.255437744140625,2.6442244052886963,2.481445550918579,1.453230857849121
1783003192123489500,0.265489501953125,2.365663528442383,2.2933309078216553,0.902664065361023
1783003192133541600,0.275541748046875,1.7400425672531128,1.6510720252990723,0.34302952885627747
1783003192143592700,0.2855927734375,1.4622339010238647,1.2819730043411255,-0.1269313097000122
1783003192153644500,0.29564453125,1.4880084991455078,1.4789129495620728,-0.42006757855415344
1783003192163695600,0.305695556640625,1.1932437419891357,0.6554883718490601,-0.6274404525756836
1783003192173747700,0.315747802734375,0.6176512241363525,-0.32747000455856323,-0.5759115219116211
1783003192183798500,0.325798583984375,-0.010204700753092766,-1.4315185546875,-0.24749448895454407
1783003192193851000,0.335850830078125,-0.5241042375564575,-1.8507821559906006,0.4850548505783081
1783003192203902700,0.34590283203125,-0.7951551675796509,-1.4990885257720947,1.3216586112976074
1783003192213953800,0.355953857421875,-0.7285548448562622,-0.7982186079025269,1.8786795139312744
1783003192224005600,0.366005615234375,-0.37636616826057434,0.019524965435266495,2.1226911544799805
1783003192234056700,0.376056640625,0.06861528009176254,0.6465023159980774,2.050093412399292
1783003192244108800,0.38610888671875,0.44562435150146484,0.9148754477500916,1.8692243099212646
1783003192254159600,0.39615966796875,0.5873261094093323,0.9052765965461731,1.6800780296325684
1783003192264211700,0.406211669921875,0.4224740266799927,0.5202005505561829,1.4327234029769897
1783003192274263600,0.416263671875,0.10766813904047012,-0.06795667856931686,1.1818195581436157
1783003192284314600,0.426314697265625,-0.2090245932340622,-0.7532830834388733,0.9307318925857544
1783003192294366700,0.43636669921875,-0.4258517026901245,-1.4696017503738403,0.6440505981445312
1783003192304417500,0.44641748046875,-0.4661780893802643,-2.0715508460998535,0.3202587068080902
1783003192314469600,0.4564697265625,-0.36393988132476807,-2.383920907974243,0.028853485360741615
1783003192324520700,0.466520751953125,-0.1576351672410965,-2.364112615585327,-0.18886339664459229
1783003192334572500,0.476572509765625,0.07638052105903625,-2.0428354740142822,-0.4036523997783661
1783003192344624600,0.486624755859375,0.30147674679756165,-1.4019638299942017,-0.6516299843788147
1783003192354675700,0.49667578125,0.5297451019287109,-0.5210599899291992,-0.9483319520950317
1783003192364727800,0.506727783203125,0.7192772030830383,0.3051612377166748,-1.235147476196289
1783003192374778600,0.516778564453125,0.7730189561843872,0.8430444002151489,-1.4540947675704956
1783003192384830700,0.526830810546875,0.6043477058410645,1.082065463066101,-1.6093472242355347
1783003192394881800,0.5368818359375,0.30218514800071716,0.9312746524810791,-1.6221060752868652
1783003192404933600,0.54693359375,-0.03297818824648857,0.5377182960510254,-1.5314654111862183
1783003192414985700,0.55698583984375,-0.3156048357486725,-0.03690555319190025,-1.3663941621780396
1783003192425036500,0.56703662109375,-0.5298976898193359,-0.7307884693145752,-1.1556105613708496
1783003192435088600,0.577088623046875,-0.6645822525024414,-1.4437968730926514,-0.9085350036621094
1783003192445139700,0.5871396484375,-0.7021565437316895,-2.065906524658203,-0.6261541843414307
1783003192455191600,0.597191650390625,-0.6053248047828674,-2.504232168197632,-0.28055310249328613
1783003192465242600,0.60724267578125,-0.40278181433677673,-2.645198345184326,0.09351050853729248
1783003192475294500,0.61729443359375,-0.1954382061958313,-2.5399653911590576,0.32209068536758423
1783003192485346600,0.6273466796875,-0.007556719705462456,-2.254666328430176,0.4295034408569336
1783003192495397600,0.637397705078125,0.13738475739955902,-1.8219937086105347,0.45073601603507996
1783003192505449700,0.64744970703125,0.2095383107662201,-1.39937424659729,0.3762497901916504
1783003192515500800,0.657500732421875,0.19821375608444214,-1.040069580078125,0.2419455200433731
1783003192525552600,0.667552734375,0.16331329941749573,-0.7275857329368591,0.08855276554822922
1783003192535604700,0.677604736328125,0.12673769891262054,-0.46345075964927673,-0.06421094387769699
1783003192545655800,0.68765576171875,0.11436519026756287,-0.21833713352680206,-0.20367270708084106
1783003192555707600,0.697707763671875,0.09622161090373993,0.04860695078969002,-0.3547098934650421
1783003192565758700,0.7077587890625,0.04880136251449585,0.2853550314903259,-0.4940941333770752
1783003192575810600,0.717810546875,0.0029619678389281034,0.47243306040763855,-0.538269579410553
1783003192585861600,0.727861572265625,-0.027771709486842155,0.6094015836715698,-0.5299448370933533
1783003192595913700,0.737913818359375,-0.09468229860067368,0.68172287940979,-0.4874469041824341
1783003192605964500,0.747964599609375,-0.19561050832271576,0.683060884475708,-0.34186306595802307
1783003192616016600,0.7580166015625,-0.2724863886833191,0.6010637283325195,-0.11543631553649902
1783003192626068500,0.768068359375,-0.2948231101036072,0.44137874245643616,0.12390250712633133
1783003192636119600,0.77811962890625,-0.2682913839817047,0.3064994812011719,0.2451639473438263
1783003192646171600,0.788171630859375,-0.2645466923713684,0.3386709988117218,0.16242378950119019
1783003192656222500,0.798222412109375,-0.3168831467628479,0.43550992012023926,-0.0484575480222702
1783003192666274600,0.808274658203125,-0.4271034002304077,0.5685617327690125,-0.29282307624816895
1783003192676326700,0.81832666015625,-0.5780108571052551,0.6627891659736633,-0.4119206964969635
1783003192686377700,0.828377685546875,-0.6846156120300293,0.7071124315261841,-0.33758044242858887
1783003192696429800,0.838429931640625,-0.7004129886627197,0.8462633490562439,-0.08758071810007095
1783003192706480600,0.848480712890625,-0.6469420194625854,1.1193130016326904,0.3602053225040436
1783003192716532700,0.85853271484375,-0.5125914216041565,1.416278600692749,0.8764484524726868
1783003192726583800,0.868583740234375,-0.3068254590034485,1.6315959692001343,1.2801549434661865
1783003192736635600,0.8786357421875,-0.07757681608200073,1.6401466131210327,1.4325660467147827
1783003192746688000,0.88868798828125,0.060979198664426804,1.4866052865982056,1.3500032424926758
1783003192756738800,0.89873876953125,0.040293361991643906,1.0579055547714233,1.0720634460449219
1783003192766791000,0.908791015625,-0.12448866665363312,0.4881451725959778,0.7466568946838379
1783003192776842000,0.918842041015625,-0.392823189496994,0.0359066016972065,0.5522948503494263
1783003192786893800,0.928893798828125,-0.6686291694641113,-0.06373050808906555,0.6012248396873474
1783003192796945000,0.93894482421875,-0.804041862487793,0.3575277626514435,0.8691918849945068
1783003192806996700,0.948996826171875,-0.6575400829315186,1.066448450088501,1.154398798942566
1783003192817048800,0.959048828125,-0.28931915760040283,1.8110531568527222,1.224394679069519
1783003192827100000,0.969099853515625,0.07650276273488998,2.4410669803619385,0.9810225367546082
1783003192837151700,0.97915185546875,0.26960352063179016,2.8246965408325195,0.5390275120735168
1783003192847202800,0.989202880859375,0.358901709318161,2.7921831607818604,-0.025138642638921738
1783003192857254700,0.999254638671875,0.4581763446331024,2.2110543251037598,-0.7302132248878479
1783003192867305700,1.0093056640625,0.4660204350948334,1.4293241500854492,-1.5207637548446655
1783003192877357800,1.01935791015625,0.14475825428962708,0.7261191010475159,-2.1811513900756836
1783003192887409700,1.02940966796875,-0.5976285338401794,0.10483640432357788,-2.619951009750366
1783003192897460700,1.039460693359375,-1.5024553537368774,-0.2680000364780426,-2.820775032043457
1783003192907512800,1.049512939453125,-2.2027931213378906,-0.43010130524635315,-2.7875921726226807
1783003192917563600,1.059563720703125,-2.529449701309204,-0.6006214022636414,-2.5899486541748047
1783003192927616000,1.069615966796875,-2.3733744621276855,-0.9037045836448669,-2.290494918823242
1783003192937666800,1.079666748046875,-1.815621018409729,-1.1606303453445435,-1.8821419477462769
1783003192947719000,1.089718994140625,-1.0256062746047974,-1.2004035711288452,-1.350053310394287
1783003192957770800,1.099770751953125,-0.2056088149547577,-1.0162209272384644,-0.8304993510246277
1783003192967821800,1.10982177734375,0.4392223656177521,-0.6704571843147278,-0.5032298564910889
1783003192977874000,1.1198740234375,0.8198410868644714,-0.2638193964958191,-0.36053502559661865
1783003192987924700,1.1299248046875,0.9543453454971313,-0.05218730494379997,-0.29641595482826233
1783003192997976800,1.139976806640625,0.9116647243499756,-0.021326061338186264,-0.22925449907779694
1783003193008028000,1.15002783203125,0.7391095161437988,-0.02562653459608555,-0.23594622313976288
1783003193018079700,1.160079833984375,0.4374132752418518,-0.02075827494263649,-0.3555743396282196
1783003193028131800,1.1701318359375,0.09034480899572372,-0.02423902601003647,-0.5395620465278625
1783003193038182700,1.1801826171875,-0.19686219096183777,-0.09475207328796387,-0.6970003843307495
1783003193048234800,1.19023486328125,-0.3292631208896637,-0.2810726761817932,-0.7390460968017578
1783003193058285800,1.200285888671875,-0.28365063667297363,-0.6166679859161377,-0.6078782081604004
1783003193068337700,1.210337646484375,-0.12361008673906326,-1.066064715385437,-0.2898523211479187
1783003193078388700,1.220388671875,0.0798085480928421,-1.6122486591339111,0.1564905345439911
1783003193088440800,1.23044091796875,0.28186044096946716,-2.0403034687042236,0.5965880155563354
1783003193098493000,1.240492919921875,0.4368297755718231,-2.1667909622192383,0.950104296207428
1783003193108544000,1.2505439453125,0.5543678402900696,-2.0165793895721436,1.1694997549057007
1783003193118595800,1.260595947265625,0.5898014903068542,-1.6472088098526,1.238665223121643
1783003193128647000,1.27064697265625,0.5366693139076233,-1.1623870134353638,1.181584358215332
1783003193138698800,1.28069873046875,0.3908231556415558,-0.6877443194389343,1.1115845441818237
1783003193148749800,1.290749755859375,0.18207712471485138,-0.27342328429222107,1.002251148223877
1783003193158802000,1.300802001953125,-0.05956106632947922,0.0008221178431995213,0.8423740863800049
1783003193168853800,1.310853759765625,-0.28598886728286743,0.12873773276805878,0.6544886231422424
1783003193178904800,1.32090478515625,-0.47532472014427185,0.11090308427810669,0.49436286091804504
1783003193188956700,1.330956787109375,-0.6372377276420593,0.013734454289078712,0.38939011096954346
1783003193199007700,1.3410078125,-0.754721462726593,-0.18726922571659088,0.3353827893733978
1783003193209059800,1.351059814453125,-0.8387375473976135,-0.5393005013465881,0.29049360752105713
1783003193219110700,1.361110595703125,-0.888383150100708,-0.8796826004981995,0.28724801540374756
1783003193229162800,1.371162841796875,-0.9178842902183533,-1.0349446535110474,0.45516830682754517
1783003193239214800,1.38121484375,-0.9380987286567688,-0.9025405049324036,0.765040397644043
1783003193249266000,1.391265869140625,-1.0081998109817505,-0.4517940878868103,1.2059283256530762
1783003193259317800,1.40131787109375,-1.0958184003829956,0.04550410062074661,1.715359091758728
1783003193269368800,1.411368896484375,-1.1509103775024414,0.40087205171585083,2.065208911895752
1783003193279421000,1.4214208984375,-1.173266053199768,0.5624058246612549,2.1396565437316895
1783003193289471700,1.4314716796875,-1.2460377216339111,0.26818937063217163,1.908572793006897
1783003193299523800,1.44152392578125,-1.4067453145980835,-0.615229070186615,1.4249032735824585
1783003193309575700,1.45157568359375,-1.627882719039917,-1.8985755443572998,0.7971000671386719
1783003193319626800,1.461626708984375,-1.8171552419662476,-2.821685552597046,0.4820859432220459
1783003193329678800,1.471678955078125,-1.905959129333496,-2.9025814533233643,0.6630812883377075
1783003193339729700,1.481729736328125,-1.7640092372894287,-2.4381165504455566,1.0651392936706543
1783003193349781800,1.49178173828125,-1.3729498386383057,-1.533881664276123,1.456686019897461
1783003193359832800,1.501832763671875,-0.6937023401260376,-0.35885295271873474,1.7612706422805786
1783003193369884700,1.511884765625,0.04405694082379341,0.7572783827781677,1.8565924167633057
1783003193379936800,1.521936767578125,0.5773709416389465,1.5463231801986694,1.5787842273712158
1783003193389987600,1.531987548828125,0.7277910709381104,1.8557103872299194,0.7844338417053223
1783003193400039700,1.542039794921875,0.570388913154602,1.6085878610610962,-0.288592129945755
1783003193410090800,1.5520908203125,0.44334495067596436,0.7709167003631592,-1.3465770483016968
1783003193420142800,1.562142822265625,0.5147533416748047,-0.2896576523780823,-2.2183825969696045
1783003193430194000,1.57219384765625,0.5211191177368164,-0.902069628238678,-2.7345705032348633
1783003193440245800,1.582245849609375,0.33086979389190674,-0.9991123080253601,-3.0041744709014893
1783003193450297900,1.5922978515625,-0.03960386663675308,-0.6371506452560425,-3.0498170852661133
1783003193460349000,1.602348876953125,-0.35342809557914734,-0.1306038200855255,-2.7221789360046387
1783003193470400800,1.61240087890625,-0.5447511672973633,0.3649958074092865,-2.0272998809814453
1783003193480451800,1.622451904296875,-0.6103366017341614,0.6946067214012146,-1.1823610067367554
1783003193490503700,1.632503662109375,-0.5395239591598511,0.8549095988273621,-0.5655465126037598
1783003193500554800,1.6425546875,-0.3786727488040924,0.963924765586853,-0.32295435667037964
1783003193510606800,1.65260693359375,-0.2018257975578308,0.9349138736724854,-0.4160856306552887
1783003193520658700,1.66265869140625,-0.12067954242229462,0.6055026650428772,-0.8081639409065247
1783003193530709800,1.672709716796875,-0.16279104351997375,0.1730218529701233,-1.299688696861267
1783003193540761600,1.68276171875,-0.20653346180915833,-0.13178466260433197,-1.7202668190002441
1783003193550812700,1.692812744140625,-0.21856056153774261,-0.2680301070213318,-1.9103362560272217
1783003193560864800,1.70286474609375,-0.2362612634897232,-0.18920373916625977,-1.7013436555862427
1783003193570915600,1.71291552734375,-0.27005118131637573,0.13435886800289154,-0.999569296836853
1783003193580968000,1.722968017578125,-0.24857039749622345,0.5429232120513916,-0.044871602207422256
1783003193591019800,1.733019775390625,-0.18912917375564575,0.8288875818252563,0.80335533618927
1783003193601070800,1.74307080078125,-0.18676722049713135,1.0563476085662842,1.3105725049972534
1783003193611123000,1.753123046875,-0.2360897660255432,1.2012665271759033,1.435987949371338
1783003193621173800,1.763173828125,-0.3362933397293091,1.1570630073547363,1.2134006023406982
1783003193631225900,1.773225830078125,-0.4632861614227295,1.0732126235961914,0.788410484790802
1783003193641277000,1.78327685546875,-0.5694376230239868,1.0848820209503174,0.29041239619255066
1783003193651328800,1.793328857421875,-0.5956735014915466,1.1266460418701172,-0.160866379737854
1783003193661380900,1.803380859375,-0.5088355541229248,1.258546233177185,-0.4039035439491272
1783003193671431700,1.813431640625,-0.306378573179245,1.4203732013702393,-0.3673902451992035
1783003193681483800,1.82348388671875,0.02496287412941456,1.5331841707229614,-0.055808935314416885
1783003193691534800,1.833534912109375,0.45729032158851624,1.590659737586975,0.46743670105934143
1783003193701586700,1.843586669921875,0.9146994352340698,1.52335524559021,1.0298001766204834
1783003193711637800,1.8536376953125,1.323390007019043,1.3903371095657349,1.4905835390090942
1783003193721689600,1.863689697265625,1.6273759603500366,1.2047975063323975,1.7715874910354614
1783003193731742000,1.873741943359375,1.7585054636001587,0.9559025168418884,1.917180061340332
1783003193741792800,1.883792724609375,1.6889413595199585,0.6884609460830688,1.9851069450378418
1783003193751844900,1.893844970703125,1.5098307132720947,0.5062927603721619,1.9452357292175293
1783003193761896000,1.90389599609375,1.3362655639648438,0.46752697229385376,1.7512627840042114
1783003193771947800,1.91394775390625,1.252959966659546,0.7009450793266296,1.419703483581543
1783003193781998800,1.923998779296875,1.3087202310562134,1.112690806388855,0.9961101412773132
1783003193792051000,1.934051025390625,1.4651678800582886,1.572368860244751,0.5581652522087097
1783003193802102800,1.944102783203125,1.685977816581726,1.9834222793579102,0.22544963657855988
1783003193812153900,1.95415380859375,1.985455870628357,2.1948907375335693,0.096647709608078
1783003193822205700,1.964205810546875,2.3138809204101562,2.2871880531311035,0.23739364743232727
1783003193832256800,1.9742568359375,2.6409225463867188,2.4097394943237305,0.6112282276153564
1783003193842308900,1.984308837890625,2.9412992000579834,2.5976991653442383,1.1549807786941528
1783003193852359700,1.994359619140625,3.1750898361206055,2.712679147720337,1.5853989124298096
1783003193862411800,2.004411865234375,3.3342676162719727,2.6377785205841064,1.625852108001709
1783003193872463600,2.014463623046875,3.394256114959717,2.0769951343536377,1.1445802450180054
1783003193882514700,2.0245146484375,3.292133092880249,1.129494309425354,0.25371748208999634
1783003193892566800,2.03456689453125,3.1037867069244385,0.25037044286727905,-0.7253092527389526
1783003193902617600,2.04461767578125,2.8876614570617676,-0.5145927667617798,-1.5750576257705688
1783003193912670000,2.054669921875,2.636549711227417,-0.7688745856285095,-1.7375158071517944
1783003193922721000,2.064720947265625,2.732330799102783,-0.5482470989227295,-1.2600799798965454
1783003193932772900,2.07477294921875,2.833930730819702,-0.5418654084205627,-0.6344965100288391
1783003193942825000,2.084824951171875,2.8952760696411133,-0.6113275289535522,-0.1537187248468399
1783003193952875800,2.094875732421875,2.8731064796447754,-0.7992892265319824,-0.03930958732962608
1783003193962927900,2.104927978515625,2.6432125568389893,-1.003143310546875,-0.4173053503036499
1783003193972979000,2.11497900390625,2.167092800140381,-1.0227949619293213,-1.2148118019104004
1783003193983030800,2.12503076171875,1.578263521194458,-0.9421166777610779,-2.2180674076080322
1783003193993081900,2.135081787109375,0.9116501212120056,-0.9005470871925354,-3.110473155975342
1783003194003133700,2.1451337890625,0.1388782560825348,-0.859840989112854,-3.601008176803589
1783003194013185800,2.155185791015625,-0.5626066327095032,-0.8500000238418579,-3.5230600833892822
1783003194023236900,2.16523681640625,-1.0242253541946411,-0.9569339752197266,-2.893282890319824
1783003194033288700,2.175288818359375,-1.237937092781067,-1.4358798265457153,-1.893359661102295
1783003194043339800,2.18533984375,-1.274430751800537,-2.0003910064697266,-0.9878199696540833
1783003194053391600,2.1953916015625,-1.1419328451156616,-2.373178243637085,-0.4237326383590698
1783003194063442700,2.205442626953125,-0.9085932970046997,-2.40738844871521,-0.23265615105628967
1783003194073494800,2.215494873046875,-0.6877877116203308,-2.019418478012085,-0.43820610642433167
1783003194083547000,2.225546875,-0.5187733769416809,-1.3235663175582886,-0.9078153967857361
1783003194093598000,2.235597900390625,-0.41071510314941406,-0.5787072777748108,-1.4879637956619263
1783003194103649800,2.24564990234375,-0.4010328948497772,-0.021441908553242683,-2.0134034156799316
1783003194113700900,2.255700927734375,-0.5276811122894287,0.3464580774307251,-2.3179361820220947
1783003194123753000,2.2657529296875,-0.6822648644447327,0.6976483464241028,-2.291262626647949
1783003194133803800,2.2758037109375,-0.8259565234184265,0.8465560674667358,-2.001216411590576
1783003194143855900,2.28585595703125,-0.999049961566925,0.7142496705055237,-1.6796826124191284
1783003194153907700,2.29590771484375,-1.1928279399871826,0.47421976923942566,-1.417087197303772
1783003194163958800,2.305958740234375,-1.3511604070663452,0.23342260718345642,-1.1963441371917725
1783003194174011000,2.316010986328125,-1.4252705574035645,-0.06276857852935791,-0.9602759480476379
1783003194184061700,2.326061767578125,-1.3970202207565308,-0.3674171566963196,-0.7249960899353027
1783003194194113800,2.33611376953125,-1.2915409803390503,-0.6433102488517761,-0.487825870513916
1783003194204164900,2.346164794921875,-1.1186282634735107,-0.8010948300361633,-0.22794660925865173
1783003194214216700,2.356216796875,-0.8774567246437073,-0.8355779647827148,0.03134727105498314
1783003194224268800,2.366268798828125,-0.6090779900550842,-0.7786140441894531,0.27940288186073303
1783003194234319600,2.376319580078125,-0.37596243619918823,-0.6649755835533142,0.4520641267299652
1783003194244372000,2.3863720703125,-0.18717628717422485,-0.511807918548584,0.5127255916595459
1783003194254422800,2.3964228515625,-0.10031302273273468,-0.3350656032562256,0.4683986306190491
1783003194264475000,2.406474853515625,-0.124778151512146,-0.1832105666399002,0.38924309611320496
1783003194274526000,2.41652587890625,-0.25225675106048584,-0.11267701536417007,0.3564172387123108
1783003194284577800,2.426577880859375,-0.4685371220111847,-0.1444445252418518,0.3891749083995819
1783003194294630000,2.4366298828125,-0.6499724388122559,-0.13770060241222382,0.5049324035644531
1783003194304680700,2.4466806640625,-0.7372993230819702,0.055743422359228134,0.7052252888679504
1783003194314732800,2.45673291015625,-0.7374671101570129,0.35479724407196045,0.8673558831214905
1783003194324783900,2.466783935546875,-0.6919432878494263,0.5351057648658752,0.9128069877624512
1783003194334835700,2.476835693359375,-0.6563413739204407,0.47357556223869324,0.8489747643470764
1783003194344886800,2.48688671875,-0.6505178213119507,0.20425726473331451,0.8492692708969116
1783003194354938600,2.496938720703125,-0.6587896347045898,-0.10211438685655594,1.0435372591018677
1783003194364990700,2.50699072265625,-0.7107130289077759,-0.32394424080848694,1.376740574836731
1783003194375041800,2.517041748046875,-0.8596159219741821,-0.2761317193508148,1.8238635063171387
1783003194385093600,2.52709375,-0.9782323241233826,-0.09703440219163895,2.368826150894165
1783003194395144700,2.537144775390625,-0.9697935581207275,0.25388288497924805,2.6644625663757324
1783003194405196800,2.54719677734375,-1.0178884267807007,0.44814741611480713,2.3954145908355713
1783003194415247600,2.55724755859375,-1.1865437030792236,0.3442130386829376,1.587063193321228
1783003194425300000,2.567300048828125,-1.3924700021743774,0.24639539420604706,0.5609416365623474
1783003194435351800,2.577351806640625,-1.5597341060638428,0.27724146842956543,-0.19252631068229675
1783003194445403000,2.58740283203125,-1.6106054782867432,0.365932434797287,-0.34255096316337585
1783003194455454700,2.597454833984375,-1.4733909368515015,0.5649787187576294,0.08248795568943024
1783003194465505800,2.607505859375,-1.202939748764038,0.7236242890357971,0.6945071220397949
1783003194475558000,2.617557861328125,-0.8924899697303772,0.7062122821807861,1.1245688199996948
1783003194485608700,2.627608642578125,-0.5415857434272766,0.6203173398971558,1.2943189144134521
1783003194495660800,2.637660888671875,-0.18773235380649567,0.42031338810920715,1.2124863862991333
1783003194505712600,2.647712646484375,0.06388737261295319,0.11450687050819397,0.9029479622840881
1783003194515763700,2.657763671875,0.14990293979644775,-0.07039640098810196,0.6394478678703308
1783003194525815800,2.66781591796875,0.1302109956741333,0.027823908254504204,0.6096247434616089
1783003194535866600,2.67786669921875,-0.03689676523208618,0.2486867755651474,0.6599643230438232
1783003194545918700,2.687918701171875,-0.3426755964756012,0.43026962876319885,0.6201977729797363
1783003194555969800,2.6979697265625,-0.7605271339416504,0.47604483366012573,0.37103745341300964
1783003194566021600,2.708021728515625,-1.2276389598846436,0.4422016441822052,-0.09289319068193436
1783003194576074000,2.718073974609375,-1.6724272966384888,0.46059396862983704,-0.6973055601119995
1783003194586124800,2.728124755859375,-2.0540623664855957,0.5989782214164734,-1.3225351572036743
1783003194596177000,2.738177001953125,-2.287266254425049,0.7399079203605652,-1.9444708824157715
1783003194606228000,2.74822802734375,-2.353814125061035,0.8422617316246033,-2.5882818698883057
1783003194616279800,2.75827978515625,-2.2976608276367188,0.9492294192314148,-3.1042346954345703
1783003194626331000,2.768330810546875,-2.0831997394561768,1.021605372428894,-3.39955997467041
1783003194636382700,2.7783828125,-1.6996570825576782,1.065832257270813,-3.4393625259399414
1783003194646434800,2.788434814453125,-1.165973424911499,1.1812198162078857,-3.1794421672821045
1783003194656486000,2.79848583984375,-0.5307314991950989,1.27692711353302,-2.666918992996216
1783003194666537700,2.808537841796875,0.029202094301581383,1.1965864896774292,-1.9534212350845337
1783003194676588800,2.8185888671875,0.33760520815849304,0.8330000042915344,-1.2330914735794067
1783003194686640600,2.828640625,0.40380099415779114,0.20929090678691864,-0.6438860297203064
1783003194696691200,2.838691162109375,0.31836599111557007,-0.4284578859806061,-0.17609700560569763
1783003194706743300,2.848743408203125,0.1938035637140274,-0.980219841003418,0.14363253116607666
1783003194716795100,2.858795166015625,0.0669340267777443,-1.3150832653045654,0.31978651881217957
1783003194726846200,2.86884619140625,0.004805940669029951,-1.3404831886291504,0.3569730520248413
1783003194736898300,2.878898193359375,0.0384344756603241,-1.1540191173553467,0.1936805248260498
1783003194746949000,2.88894921875,0.1360824704170227,-0.8360791802406311,-0.14765150845050812
1783003194757001500,2.89900146484375,0.2695465087890625,-0.39677929878234863,-0.5683872699737549
1783003194767052300,2.90905224609375,0.44440966844558716,0.007408914156258106,-0.9619276523590088
1783003194777104400,2.9191044921875,0.6166322827339172,0.23323485255241394,-1.2262983322143555
1783003194787156200,2.92915625,0.7352327108383179,0.20876359939575195,-1.278696060180664
1783003194797207300,2.939207275390625,0.8034288287162781,-0.0047058057971298695,-1.0959107875823975
1783003194807259400,2.94925927734375,0.8023371696472168,-0.27204668521881104,-0.7392695546150208
1783003194817310200,2.959310302734375,0.7027080655097961,-0.4828324317932129,-0.2210836410522461
1783003194827362300,2.9693623046875,0.5879750847816467,-0.7033842206001282,0.41324561834335327
1783003194837413400,2.979413330078125,0.5137882232666016,-0.8029491901397705,0.9458341598510742
1783003194847465200,2.98946533203125,0.4653487801551819,-0.6262860298156738,1.2981634140014648
1783003194857517300,2.999517333984375,0.45802268385887146,-0.3312908411026001,1.4096550941467285
1783003194867568000,3.009568115234375,0.4630019962787628,-0.03634655475616455,1.2501192092895508
1783003194877620200,3.0196201171875,0.47079387307167053,0.17142342031002045,0.9241898655891418
1783003194887671300,3.02967138671875,0.4723733961582184,0.26469558477401733,0.5479640364646912
1783003194897723100,3.03972314453125,0.4683842658996582,0.333353191614151,0.250973641872406
1783003194907774200,3.049774169921875,0.44155263900756836,0.38398653268814087,0.05895599350333214
1783003194917826000,3.059825927734375,0.40997394919395447,0.3212786912918091,-0.034752655774354935
1783003194927878400,3.06987841796875,0.35354846715927124,0.24482598900794983,0.09883683174848557
1783003194937929500,3.079929443359375,0.3787819445133209,0.16780976951122284,0.5304995775222778
1783003194947981300,3.089981201171875,0.49820446968078613,0.28059783577919006,1.1788663864135742
1783003194958032400,3.100032470703125,0.7064042687416077,0.6277413964271545,1.9543263912200928
1783003194968084200,3.110084228515625,0.9415832161903381,0.8561311960220337,2.4814794063568115
1783003194978135300,3.12013525390625,1.1331042051315308,0.7691951990127563,2.421299695968628
1783003194988187400,3.1301875,1.168878197669983,0.47382667660713196,1.6953704357147217
1783003194998239200,3.1402392578125,1.0105165243148804,0.181825190782547,0.5646202564239502
1783003195008290300,3.150290283203125,0.7066724300384521,0.0954575464129448,-0.356478214263916
1783003195018342100,3.160342041015625,0.3103080689907074,0.3197207450866699,-0.5339560508728027
1783003195028393200,3.170393310546875,-0.03659636154770851,0.656611442565918,-0.046071089804172516
1783003195038445300,3.1804453125,-0.23578456044197083,0.8516048789024353,0.5331683158874512
1783003195048497200,3.1904970703125,-0.24130502343177795,0.8692666888237,0.8145810961723328
1783003195058548200,3.20054833984375,-0.05055398866534233,0.8294998407363892,0.8200395107269287
1783003195068600000,3.21060009765625,0.24877865612506866,0.7592757344245911,0.6610327959060669
1783003195078651100,3.220651123046875,0.47907817363739014,0.5575977563858032,0.4698444604873657
1783003195088703500,3.230703369140625,0.5444864630699158,0.14688265323638916,0.31178557872772217
1783003195098754300,3.24075439453125,0.38671043515205383,-0.5179421901702881,0.12821842730045319
1783003195108806400,3.250806396484375,0.08690959960222244,-1.2495602369308472,-0.12034771591424942
1783003195118858200,3.260858154296875,-0.22032597661018372,-1.7679862976074219,-0.42903658747673035
1783003195128909300,3.270909423828125,-0.45417627692222595,-1.9353647232055664,-0.8216578960418701
1783003195138961400,3.28096142578125,-0.6435083746910095,-1.7574067115783691,-1.3165709972381592
1783003195149012200,3.29101220703125,-0.8473813533782959,-1.323561191558838,-1.8755146265029907
1783003195159064300,3.301064208984375,-1.052086353302002,-0.7535062432289124,-2.516127586364746
1783003195169115400,3.311115478515625,-1.2463628053665161,-0.24903085827827454,-3.166231155395508
1783003195179167200,3.321167236328125,-1.4192419052124023,-0.042507778853178024,-3.6074488162994385
1783003195189219300,3.33121923828125,-1.4471428394317627,-0.04315359517931938,-3.5629029273986816
1783003195199270100,3.341270263671875,-1.2423654794692993,-0.17353583872318268,-2.958482503890991
1783003195209322200,3.351322265625,-0.8774010539054871,-0.4585936665534973,-2.00966739654541
1783003195219373300,3.361373291015625,-0.48483192920684814,-0.8809062838554382,-1.023240327835083
1783003195229425200,3.371425048828125,-0.13662149012088776,-1.3624801635742188,-0.2651278078556061
1783003195239476200,3.381476318359375,0.1312246024608612,-1.7134003639221191,0.1550726741552353
1783003195249528300,3.3915283203125,0.31431132555007935,-1.7778149843215942,0.247277170419693
1783003195259580400,3.401580322265625,0.3913845419883728,-1.584913969039917,0.06278162449598312
1783003195269631500,3.411631591796875,0.36296939849853516,-1.1792224645614624,-0.30197662115097046
1783003195279683300,3.421683349609375,0.2760310471057892,-0.7781801819801331,-0.715872585773468
1783003195289734400,3.431734375,0.12244708836078644,-0.4882871210575104,-1.1017265319824219
1783003195299786200,3.4417861328125,-0.051791559904813766,-0.3132591247558594,-1.3065268993377686
1783003195309837300,3.45183740234375,-0.1501716524362564,-0.21391254663467407,-1.226942539215088
1783003195319889400,3.461889404296875,-0.12207823991775513,-0.3599099814891815,-0.9164930582046509
1783003195329941200,3.471941162109375,0.015003982931375504,-0.721180260181427,-0.461343914270401
1783003195339992300,3.481992431640625,0.19713543355464935,-1.0820237398147583,0.02225683629512787
1783003195350044200,3.492044189453125,0.3459970951080322,-1.2089672088623047,0.3950759470462799
1783003195360095200,3.50209521484375,0.39322876930236816,-1.167099952697754,0.6420830488204956
1783003195370147300,3.512147216796875,0.3560377359390259,-1.0499563217163086,0.7704501152038574
1783003195380198100,3.5221982421875,0.2696290910243988,-0.9056260585784912,0.8236446380615234
1783003195390250200,3.532250244140625,0.14232465624809265,-0.7093585133552551,0.8022083044052124
1783003195400302000,3.542302001953125,-0.021522868424654007,-0.4279004633426666,0.7107689380645752
1783003195410353200,3.552353271484375,-0.20443277060985565,-0.12562210857868195,0.5747807621955872
1783003195420405500,3.562405517578125,-0.3499731719493866,0.09245163947343826,0.43893128633499146
1783003195430456300,3.572456298828125,-0.3867644965648651,0.27550747990608215,0.39039891958236694
1783003195440508400,3.58250830078125,-0.34271153807640076,0.36532843112945557,0.457793653011322
1783003195450559500,3.5925595703125,-0.26072773337364197,0.3145124018192291,0.620821475982666
1783003195460611300,3.602611328125,-0.173289492726326,0.14773939549922943,0.8056222200393677
1783003195470663400,3.612663330078125,-0.11084875464439392,-0.01218635868281126,0.972078263759613
1783003195480714200,3.62271435546875,-0.10646092891693115,-0.004886634182184935,1.1016086339950562
1783003195490766300,3.632766357421875,-0.18166247010231018,0.18851424753665924,1.1496765613555908
1783003195500817400,3.6428173828125,-0.33417850732803345,0.5649776458740234,1.1024059057235718
1783003195510869200,3.652869140625,-0.5127977728843689,0.980370819568634,0.9933484196662903
1783003195520920300,3.66292041015625,-0.6487510800361633,1.411699891090393,0.9249358177185059
1783003195530972200,3.67297216796875,-0.6587251424789429,1.8029634952545166,1.0588046312332153
1783003195541024300,3.683024169921875,-0.5141744017601013,1.9987963438034058,1.543445110321045
1783003195551075300,3.693075439453125,-0.2994823157787323,1.9228928089141846,2.3282241821289062
1783003195561127200,3.703127197265625,-0.1349618136882782,1.485622525215149,3.0969479084014893
1783003195571178200,3.71317822265625,-0.10399936884641647,0.619846761226654,3.5112056732177734
1783003195581230300,3.723230224609375,-0.27568644285202026,-0.32362493872642517,3.4360508918762207
1783003195591281200,3.73328125,-0.8312112092971802,-1.0005451440811157,2.910142183303833
1783003195601333500,3.74333349609375,-1.7188150882720947,-1.1304501295089722,1.9855016469955444
1783003195611385300,3.75338525390625,-2.4540939331054688,-0.34292274713516235,0.7428126335144043
1783003195621436400,3.7634365234375,-2.702331304550171,1.2451995611190796,-0.49367496371269226
1783003195631488300,3.77348828125,-2.365657329559326,3.090676784515381,-1.1662261486053467
1783003195641539300,3.783539306640625,-1.5660665035247803,4.297407150268555,-0.943385660648346
1783003195651591400,3.79359130859375,-0.635318398475647,4.40226411819458,-0.045996520668268204
1783003195661643300,3.803643310546875,-0.012435630895197392,3.307271957397461,0.9817895293235779
1783003195671694300,3.8136943359375,0.1234404444694519,1.5043318271636963,1.6362965106964111
1783003195681746200,3.82374609375,0.0041673146188259125,-0.20051072537899017,1.7333077192306519
1783003195691797200,3.83379736328125,-0.1113603487610817,-1.3590524196624756,1.3337992429733276
1783003195701849300,3.843849365234375,-0.007607053499668837,-1.7964537143707275,0.621118426322937
1783003195711900400,3.853900390625,0.22632528841495514,-1.2974207401275635,-0.3927065432071686
1783003195721952500,3.863952392578125,0.3795023262500763,-0.22897513210773468,-1.4649524688720703
1783003195732004600,3.874004638671875,0.31146812438964844,0.9011538028717041,-2.420790195465088
1783003195742055700,3.8840556640625,0.03990853205323219,1.6643084287643433,-3.082521915435791
1783003195752107500,3.894107421875,-0.24105896055698395,1.8190433979034424,-3.261610746383667
1783003195762158600,3.90415869140625,-0.3721868693828583,1.4812368154525757,-2.958599328994751
1783003195772210700,3.914210693359375,-0.3824256658554077,0.7480366826057434,-2.4094736576080322
1783003195782261500,3.924261474609375,-0.32467955350875854,-0.0940343514084816,-1.7773747444152832
1783003195792313600,3.934313720703125,-0.15654726326465607,-0.6833868622779846,-1.186196208000183
1783003195802365400,3.944365478515625,0.08961377292871475,-0.9264604449272156,-0.7781551480293274
1783003195812416500,3.95441650390625,0.3260795772075653,-0.8952109217643738,-0.6390787363052368
1783003195822468600,3.964468505859375,0.4664430618286133,-0.5785408616065979,-0.721100926399231
1783003195832519400,3.97451953125,0.5170167684555054,-0.15702983736991882,-0.9097903966903687
1783003195842571500,3.984571533203125,0.5145935416221619,0.14726614952087402,-1.102613925933838
1783003195852622600,3.99462255859375,0.40043023228645325,0.2483120709657669,-1.1725996732711792
1783003195862674400,4.00467431640625,0.15279993414878845,0.1749156266450882,-1.059200406074524
1783003195872726500,4.0147265625,-0.05236147344112396,0.09849222004413605,-0.8716515302658081
1783003195882777300,4.02477734375,-0.10931077599525452,0.05431810021400452,-0.6668278574943542
1783003195892829700,4.03482958984375,-0.09655103832483292,-0.005919940769672394,-0.43859973549842834
1783003195902880500,4.044880615234375,-0.06986909359693527,-0.09765705466270447,-0.15405641496181488
1783003195912932600,4.0549326171875,-0.05305176600813866,-0.1972680687904358,0.12231259793043137
1783003195922983700,4.064983642578125,-0.0723479688167572,-0.31006065011024475,0.31472545862197876
1783003195933035500,4.075035400390625,-0.1374896913766861,-0.4643687307834625,0.44119390845298767
1783003195943087600,4.085087646484375,-0.20341411232948303,-0.6353074312210083,0.5196232199668884
1783003195953138700,4.095138671875,-0.25851064920425415,-0.6200395822525024,0.5318393707275391
1783003195963190500,4.1051904296875,-0.28210732340812683,-0.38849902153015137,0.4339618384838104
1783003195973241600,4.11524169921875,-0.30385497212409973,-0.004011785611510277,0.3519918620586395
1783003195983293400,4.12529345703125,-0.3229823112487793,0.3032538890838623,0.3899299204349518
1783003195993344500,4.135344482421875,-0.3427208662033081,0.35051992535591125,0.4850143492221832
1783003196003396600,4.145396728515625,-0.3543567359447479,0.185787171125412,0.6568236947059631
1783003196013448400,4.155448486328125,-0.32870519161224365,-0.06380534172058105,0.8573176264762878
1783003196023499500,4.16549951171875,-0.26602262258529663,-0.2989760637283325,1.0416576862335205
1783003196033551400,4.17555126953125,-0.15355759859085083,-0.5091670751571655,1.162380576133728
1783003196043602400,4.1856025390625,-0.011689945124089718,-0.5554283261299133,1.1583800315856934
1783003196053654500,4.195654541015625,0.11711890250444412,-0.41324856877326965,1.0712056159973145
1783003196063705300,4.205705322265625,0.18447983264923096,-0.20540136098861694,0.9466107487678528
1783003196073757700,4.2157578125,0.16276973485946655,0.043365851044654846,0.8105474710464478
1783003196083809500,4.2258095703125,0.0867876261472702,0.26749294996261597,0.6915313005447388
1783003196093860600,4.235860595703125,-0.015809856355190277,0.47369247674942017,0.5787738561630249
1783003196103912700,4.24591259765625,-0.11792024224996567,0.7148414254188538,0.399135947227478
1783003196113963500,4.255963623046875,-0.13747850060462952,0.8368027806282043,0.2097223401069641
1783003196124015600,4.266015625,-0.1209045797586441,0.7652806639671326,0.019085543230175972
1783003196134066700,4.276066650390625,-0.07479594647884369,0.6978041529655457,-0.10298550128936768
1783003196144118500,4.286118408203125,0.04031253606081009,0.9039306640625,0.034749723970890045
1783003196154170600,4.296170654296875,0.17403624951839447,1.0176500082015991,0.4635500907897949
1783003196164221400,4.306221435546875,0.051466651260852814,0.6323721408843994,0.970057487487793
1783003196174273500,4.3162734375,-0.5119301080703735,-0.40291497111320496,1.0223214626312256
1783003196184324600,4.32632470703125,-1.3482729196548462,-1.465267539024353,0.4447827935218811
1783003196194376400,4.33637646484375,-2.0247344970703125,-1.595204472541809,-0.36345651745796204
1783003196204428500,4.346428466796875,-2.24609375,-0.33511459827423096,-0.7452595233917236
1783003196214479400,4.356479248046875,-1.9440487623214722,1.3151965141296387,-0.7178412079811096
1783003196224531700,4.36653173828125,-1.3291032314300537,2.10848331451416,-0.3555503785610199
1783003196234582500,4.37658251953125,-0.6376848816871643,1.6949422359466553,0.28752127289772034
1783003196244634600,4.386634521484375,-0.18242360651493073,0.6619271039962769,0.8550440669059753
1783003196254685700,4.396685791015625,-0.13387444615364075,-0.39899373054504395,1.0609493255615234
1783003196264737500,4.406737548828125,-0.29450327157974243,-1.3082174062728882,1.1144099235534668
1783003196274788600,4.41678857421875,-0.3955153822898865,-1.960302472114563,1.0027424097061157
1783003196284840700,4.4268408203125,-0.39868879318237305,-2.0355544090270996,0.40725937485694885
1783003196294892500,4.436892578125,-0.3910844027996063,-1.5986566543579102,-0.655800998210907
1783003196304943600,4.446943603515625,-0.4100343883037567,-1.07197105884552,-1.7639812231063843
1783003196314995500,4.456995361328125,-0.43480151891708374,-0.8810128569602966,-2.5209364891052246
1783003196325046500,4.467046630859375,-0.4033530652523041,-1.134428858757019,-2.6917965412139893
1783003196335098600,4.4770986328125,-0.23532037436962128,-1.6430457830429077,-2.3831779956817627
1783003196345150500,4.487150390625,0.03813806548714638,-2.1865358352661133,-1.948764443397522
1783003196355201500,4.497201416015625,0.2972268760204315,-2.479750871658325,-1.6469603776931763
1783003196365253400,4.50725341796875,0.4216955900192261,-2.41416072845459,-1.4362760782241821
1783003196375304400,4.517304443359375,0.3258984684944153,-2.0961639881134033,-1.1683335304260254
1783003196385356500,4.5273564453125,0.11520035564899445,-1.6503992080688477,-0.8608308434486389
1783003196395407400,4.537407470703125,0.041787926107645035,-1.1247093677520752,-0.560685932636261
1783003196405459700,4.547459716796875,0.15997208654880524,-0.6626224517822266,-0.3360744118690491
1783003196415511600,4.557511474609375,0.39329057931900024,-0.37602901458740234,-0.18073596060276031
1783003196425562600,4.567562744140625,0.7472087144851685,-0.27639269828796387,-0.06442532688379288
1783003196435614500,4.577614501953125,1.186964988708496,-0.30069565773010254,0.01401888020336628
1783003196445665500,4.58766552734375,1.5867244005203247,-0.45371291041374207,0.05276734009385109
1783003196455717600,4.597717529296875,1.7438181638717651,-0.8067197203636169,0.01998382806777954
1783003196465768400,4.6077685546875,1.6028239727020264,-1.229244589805603,0.22224345803260803
1783003196475820500,4.617820556640625,1.2563917636871338,-1.6566177606582642,0.6606663465499878
1783003196485872400,4.627872314453125,0.9253155589103699,-1.875339150428772,1.0952420234680176
1783003196495923500,4.63792333984375,0.726913571357727,-1.6503132581710815,1.3156663179397583
1783003196505975600,4.6479755859375,0.6483590602874756,-1.0369502305984497,1.2878082990646362
1783003196516026600,4.658026611328125,0.6220741868019104,-0.3095080554485321,1.1424309015274048
1783003196526078500,4.668078369140625,0.6410268545150757,0.28875961899757385,0.9194859266281128
1783003196536129500,4.678129638671875,0.6832595467567444,0.6874199509620667,0.6753296852111816
1783003196546181400,4.688181396484375,0.6834150552749634,0.8621534109115601,0.43955233693122864
1783003196556233700,4.698233642578125,0.6478293538093567,0.7093350887298584,0.2554338872432709
1783003196566284500,4.708284423828125,0.5857673287391663,0.2836998999118805,0.18644897639751434
1783003196576336600,4.718336669921875,0.48108166456222534,-0.1727328896522522,0.21009758114814758
1783003196586387700,4.7283876953125,0.3446652293205261,-0.4244817793369293,0.25038427114486694
1783003196596439600,4.738439453125,0.20214217901229858,-0.48894011974334717,0.32027360796928406
1783003196606490600,4.74849072265625,0.0765024945139885,-0.32765084505081177,0.46476316452026367
1783003196616542500,4.75854248046875,0.041249170899391174,-0.06607595831155777,0.6490160822868347
1783003196626594600,4.768594482421875,0.05284909904003143,0.2600978910923004,0.7917271852493286
1783003196636645600,4.778645751953125,0.05427602306008339,0.5413767099380493,0.8266904950141907
1783003196646697500,4.788697509765625,0.014680142514407635,0.6462040543556213,0.7556975483894348
1783003196656748500,4.79874853515625,-0.05127224326133728,0.5166641473770142,0.6085043549537659
1783003196666800400,4.80880029296875,-0.08396041393280029,0.24685239791870117,0.42796412110328674
1783003196676851500,4.8188515625,-0.04734114930033684,0.10723751038312912,0.2008393555879593
1783003196686903600,4.828903564453125,0.04535789415240288,0.3441997170448303,-0.09219463914632797
1783003196696955600,4.83895556640625,0.12180127203464508,1.0425745248794556,-0.39391854405403137
1783003196707006700,4.8490068359375,0.2146795392036438,2.039027690887451,-0.6629457473754883
1783003196717058600,4.85905859375,0.3351473808288574,3.114851474761963,-0.6966949105262756
1783003196727109600,4.869109619140625,0.4924696087837219,3.8654465675354004,-0.3577592074871063
1783003196737161700,4.87916162109375,0.6848710179328918,3.737761974334717,0.11262987554073334
1783003196747212500,4.889212646484375,0.8815750479698181,2.985558032989502,0.5604981780052185
1783003196757264600,4.8992646484375,1.1035300493240356,2.1664669513702393,0.6697567701339722
1783003196767316500,4.90931640625,1.2884109020233154,1.8825238943099976,0.08140191435813904
1783003196777367600,4.919367431640625,1.382206678390503,2.1690659523010254,-0.9151816964149475
1783003196787419600,4.929419677734375,1.3636462688446045,2.7931346893310547,-1.6534563302993774
1783003196797470500,4.939470458984375,1.3686485290527344,3.414496660232544,-1.8146555423736572
1783003196807522600,4.9495224609375,1.4693338871002197,3.6963274478912354,-1.4886367321014404
1783003196817573600,4.95957373046875,1.5400341749191284,3.5620360374450684,-0.9691277742385864
1783003196827625500,4.96962548828125,1.4110863208770752,2.980903148651123,-0.4559116065502167
1783003196837677600,4.979677490234375,0.9647309184074402,1.8024615049362183,-0.09890127927064896
1783003196847728400,4.989728271484375,0.42672789096832275,0.30064693093299866,0.2401750534772873
1783003196857780700,4.99978076171875,0.0731423869729042,-1.2803301811218262,0.6419030427932739
1783003196867831600,5.00983154296875,-0.1446884721517563,-2.659106731414795,0.8727673888206482
1783003196877883600,5.019883544921875,-0.30404430627822876,-3.367927074432373,0.7200218439102173
1783003196887934700,5.029934814453125,-0.39196085929870605,-3.0670862197875977,0.33018216490745544
1783003196897986600,5.039986572265625,-0.41774478554725647,-2.05092716217041,-0.14360083639621735
1783003196908038700,5.05003857421875,-0.4098394513130188,-0.9889704585075378,-0.5597213506698608
1783003196918089700,5.06008984375,-0.386179119348526,-0.2866725027561188,-0.7945407629013062
1783003196928141600,5.0701416015625,-0.32592856884002686,0.06856787204742432,-1.0405162572860718
1783003196938192600,5.080192626953125,-0.37750306725502014,0.18245342373847961,-1.51161789894104
1783003196948244500,5.090244384765625,-0.6096724271774292,0.16657859086990356,-2.102429151535034
1783003196958295600,5.100295654296875,-0.9823474287986755,0.14335955679416656,-2.6178553104400635
1783003196968347600,5.11034765625,-1.3403130769729614,0.022771358489990234,-2.85312557220459
1783003196978399500,5.1203994140625,-1.5274416208267212,-0.058210842311382294,-2.6957831382751465
1783003196988450600,5.130450439453125,-1.5344353914260864,-0.18638372421264648,-2.135484218597412
1783003196998502400,5.14050244140625,-1.4236366748809814,-0.3649103343486786,-1.363877534866333
1783003197008553500,5.150553466796875,-1.3121775388717651,-0.5525345206260681,-0.5460420250892639
1783003197018605600,5.16060546875,-1.1873152256011963,-0.8115466833114624,0.3145659267902374
1783003197028656400,5.170656494140625,-1.0210440158843994,-1.0859638452529907,1.1220438480377197
1783003197038708700,5.180708740234375,-0.7942765951156616,-1.4017902612686157,1.7799253463745117
1783003197048760600,5.190760498046875,-0.5238235592842102,-1.7988086938858032,2.285179376602173
1783003197058811600,5.200811767578125,-0.27697834372520447,-2.2573342323303223,2.62597918510437
1783003197068863700,5.21086376953125,-0.12074186652898788,-2.5361714363098145,2.6803717613220215
1783003197078914600,5.22091455078125,0.011028416454792023,-2.434006452560425,2.3715875148773193
1783003197088966700,5.230966552734375,0.1205863356590271,-1.8930158615112305,1.7102100849151611
1783003197099017700,5.241017822265625,0.19723451137542725,-1.0454435348510742,0.864554226398468
1783003197109069600,5.251069580078125,0.23574674129486084,-0.04488198831677437,0.020718328654766083
1783003197119120600,5.26112060546875,0.24056068062782288,0.7570850253105164,-0.6041122674942017
1783003197129172500,5.27117236328125,0.20709991455078125,1.0647938251495361,-0.8922878503799438
1783003197139224600,5.281224609375,0.15296931564807892,1.0714107751846313,-0.8638650178909302
1783003197149275600,5.291275634765625,0.09894309192895889,1.0710283517837524,-0.6201801896095276
1783003197159327500,5.301327392578125,0.08497188240289688,0.9016819000244141,-0.23821575939655304
1783003197169378600,5.311378662109375,0.13384248316287994,0.25887683033943176,0.1796422004699707
1783003197179430400,5.321430419921875,0.24086028337478638,-0.8147373795509338,0.6417147517204285
1783003197189481500,5.3314814453125,0.38303953409194946,-1.3065202236175537,1.2675608396530151
1783003197199533800,5.341533935546875,0.38292396068573,-1.161781907081604,1.737937331199646
1783003197209585700,5.351585693359375,0.1944296658039093,-0.5747463703155518,1.877967119216919
1783003197219636700,5.36163671875,-0.07258285582065582,-0.0673457533121109,1.7372806072235107
1783003197229688600,5.3716884765625,-0.441840797662735,-0.04656244069337845,1.289257287979126
1783003197239739600,5.38173974609375,-0.8598343133926392,-0.30766674876213074,0.5740901827812195
1783003197249791700,5.391791748046875,-1.2119742631912231,-0.7520045042037964,-0.0819912701845169
1783003197259842600,5.401842529296875,-1.4182525873184204,-1.061727523803711,-0.47500699758529663
1783003197269894700,5.411894775390625,-1.5118306875228882,-1.3503843545913696,-0.5743826031684875
1783003197279946500,5.421946533203125,-1.5263571739196777,-1.4461944103240967,-0.4171343743801117
1783003197289997600,5.43199755859375,-1.3983643054962158,-1.0243101119995117,-0.031984031200408936
1783003197300049700,5.442049560546875,-1.1193063259124756,-0.2494460493326187,0.4908919632434845
1783003197310100500,5.4521005859375,-0.7460368871688843,0.4468187689781189,0.9897046685218811
1783003197320152600,5.462152587890625,-0.292663037776947,0.7888357639312744,1.308138370513916
1783003197330203600,5.47220361328125,0.15495389699935913,0.6042467355728149,1.2888178825378418
1783003197340255500,5.48225537109375,0.5027092099189758,0.21332745254039764,0.9642424583435059
1783003197350307600,5.4923076171875,0.48217836022377014,-0.1318906545639038,0.42141300439834595
1783003197360358400,5.5023583984375,-0.15438637137413025,-0.4272943437099457,-0.2854011058807373
1783003197370410800,5.51241064453125,-1.0589005947113037,0.05462702736258507,-0.8002141118049622
1783003197380461600,5.522461669921875,-1.711482048034668,1.2058748006820679,-1.0108659267425537
1783003197390513700,5.532513671875,-2.026998281478882,1.721407175064087,-1.0414764881134033
1783003197400564700,5.542564697265625,-1.880492925643921,1.3236414194107056,-0.8625363707542419
1783003197410616600,5.552616455078125,-1.3171569108963013,0.3811872899532318,-0.4812198877334595
1783003197420668700,5.562668701171875,-0.5533039569854736,-0.5347155928611755,0.07012715935707092
1783003197430719500,5.572719482421875,0.14624562859535217,-1.084534764289856,0.5762600898742676
1783003197440771600,5.582771484375,0.5106334090232849,-1.2451468706130981,0.7851459383964539
1783003197450822700,5.59282275390625,0.5400656461715698,-1.0366038084030151,0.6202499270439148
1783003197460874500,5.60287451171875,0.3641390800476074,-0.5431360006332397,0.09954044222831726
1783003197470925600,5.612925537109375,0.15666258335113525,0.03705042973160744,-0.6135736703872681
1783003197480977400,5.622977294921875,0.023804930970072746,0.39978548884391785,-1.237322449684143
1783003197491028500,5.633028564453125,-0.017039969563484192,0.5868626832962036,-1.5267119407653809
1783003197501080600,5.64308056640625,-0.009130647405982018,0.6200089454650879,-1.3986200094223022
1783003197511132400,5.65313232421875,-0.0012889700010418892,0.5259234309196472,-0.9722396731376648
1783003197521183500,5.66318359375,-0.05024585872888565,0.30000749230384827,-0.4331114888191223
1783003197531235600,5.673235595703125,-0.19172681868076324,-0.07448568195104599,0.02652907930314541
1783003197541286400,5.683286376953125,-0.39582109451293945,-0.4133335053920746,0.30426374077796936
1783003197551338800,5.6933388671875,-0.5890688300132751,-0.6720204949378967,0.3746636211872101
1783003197561389600,5.7033896484375,-0.6813644170761108,-0.7857672572135925,0.3047332763671875
1783003197571441700,5.713441650390625,-0.6113256812095642,-0.7124938368797302,0.19786301255226135
1783003197581493500,5.723493408203125,-0.3636367917060852,-0.6547746062278748,0.18303214013576508
1783003197591544600,5.733544677734375,0.0697801485657692,-0.6292559504508972,0.35847586393356323
1783003197601596700,5.7435966796875,0.5762425661087036,-0.619325578212738,0.6046534180641174
1783003197611647500,5.7536474609375,1.0141797065734863,-0.5603528022766113,0.7773450016975403
1783003197621699600,5.763699462890625,1.2898423671722412,-0.3481140434741974,0.8754287362098694
1783003197631750700,5.773750732421875,1.400664210319519,0.04043051227927208,0.8967398405075073
1783003197641802500,5.783802490234375,1.403044581413269,0.5237263441085815,0.8562177419662476
1783003197651854600,5.7938544921875,1.3241369724273682,0.9528468251228333,0.7903010249137878
1783003197661905400,5.803905517578125,1.1941128969192505,1.2277494668960571,0.7393385171890259
1783003197671957500,5.81395751953125,1.0484439134597778,1.2763586044311523,0.7553406357765198
1783003197682008600,5.824008544921875,0.8961225152015686,1.1524277925491333,0.8441698551177979
1783003197692060400,5.834060302734375,0.7715601325035095,0.9950363636016846,0.992550253868103
1783003197702111700,5.84411181640625,0.6809982657432556,0.8794546127319336,1.1539798974990845
1783003197712163600,5.85416357421875,0.6168477535247803,0.8004993200302124,1.2676340341567993
1783003197722215700,5.864215576171875,0.5669638514518738,0.742769718170166,1.3129706382751465
1783003197732266800,5.874266845703125,0.5375553369522095,0.8514874577522278,1.3159395456314087
1783003197742318600,5.884318603515625,0.58518385887146,1.0996013879776,1.302613377571106
1783003197752369700,5.89436962890625,0.6669226288795471,1.3084951639175415,1.2774267196655273
1783003197762421500,5.90442138671875,0.7784417271614075,1.3575271368026733,1.284258246421814
1783003197772472600,5.91447265625,0.9027569890022278,1.2499847412109375,1.3024327754974365
1783003197782524700,5.924524658203125,0.9066683650016785,0.9343271851539612,1.272433876991272
1783003197792576500,5.934576416015625,0.8030930161476135,0.7594861388206482,1.2869107723236084
1783003197802627600,5.944627685546875,0.7108141779899597,0.8496596813201904,1.4290868043899536
1783003197812679700,5.9546796875,0.6231964826583862,0.9485774636268616,1.5573198795318604
1783003197822730800,5.964730712890625,0.7047044038772583,1.093108892440796,1.6223031282424927
1783003197832782800,5.974782958984375,1.1243836879730225,1.2379294633865356,1.8584574460983276
1783003197842833700,5.984833740234375,1.4774456024169922,1.6454124450683594,2.944173812866211
1783003197852885800,5.9948857421875,1.5305988788604736,1.7893651723861694,3.7321128845214844
1783003197862937600,6.0049375,1.4734196662902832,1.5379481315612793,3.5737955570220947
1783003197872988700,6.01498876953125,1.4116716384887695,0.6734654903411865,2.7258706092834473
1783003197883040800,6.025040771484375,1.1406265497207642,0.12859925627708435,1.6581364870071411
1783003197893091600,6.035091552734375,0.6336597800254822,0.22557559609413147,0.5122371912002563
1783003197903143700,6.045143798828125,0.022849123924970627,0.38025331497192383,-0.9433315992355347
1783003197913194800,6.05519482421875,-0.5797064900398254,0.14952370524406433,-2.7085092067718506
1783003197923246600,6.06524658203125,-1.073710322380066,-0.03972743824124336,-4.18496561050415
1783003197933297700,6.075297607421875,-1.3477810621261597,0.3148373067378998,-4.847342014312744
1783003197943349500,6.085349609375,-1.4272288084030151,0.9707421660423279,-4.51243782043457
1783003197953401600,6.095401611328125,-1.1558241844177246,1.3277082443237305,-3.4438352584838867
1783003197963452700,6.10545263671875,-0.7326952815055847,0.8900012373924255,-2.043682336807251
