time,seconds_elapsed,z,y,x
1783003420031427300,0.08042724609375,-0.10217501083910464,-0.01758442773576826,0.0002454443947412073
1783003420041478400,0.090478515625,-0.09079086251556873,-0.04020440195333212,0.004331124539487064
1783003420051529500,0.100529541015625,-0.07371931620538234,-0.02231518258471042,0.008884623125381767
1783003420061580500,0.11058056640625,-0.0674380439788103,-0.010438976427912711,0.014136744100460782
1783003420071631400,0.12063134765625,-0.07463350844085216,0.0077284388275817035,0.02348844588147476
1783003420081683500,0.130683349609375,-0.08061725902557372,0.012705386989936231,0.010994409220432861
1783003420091734500,0.140734619140625,-0.09048515756726265,0.011059994403086602,0.011666974719753488
1783003420101785300,0.150785400390625,-0.07790273936986923,-0.0038343539984896776,-0.00016099011483602224
1783003420111836400,0.16083642578125,-0.0647369683265686,0.005043400994688272,-0.026658399420790374
1783003420121887500,0.170887451171875,-0.071782210662961,-0.004710954169929027,-0.03097506617666222
1783003420131938600,0.1809384765625,-0.07792261311411858,-0.013328158530779182,-0.03646790970559232
1783003420141990400,0.190990478515625,-0.08675181625783443,-0.00420114148426801,-0.028189874171232802
1783003420152041500,0.20104150390625,-0.08465455171763897,0.00024166326876729724,-0.003736610978748649
1783003420162092500,0.211092529296875,-0.07028641914725303,-0.0038921120677143334,0.014643698108755052
1783003420172143400,0.221143310546875,-0.07298574123382567,0.004288235245831311,0.030287768899090586
1783003420182194400,0.2311943359375,-0.08077215732634067,-0.0024936799792572855,0.027158786690980194
1783003420192246500,0.24124658203125,-0.08630641057789325,-0.010020531820133328,0.022568545424425972
1783003420202297300,0.25129736328125,-0.07971300366222858,-0.016927096338197587,0.006702858639508485
1783003420212348400,0.261348388671875,-0.07865969521701335,-0.017630312704108655,-0.0117813126812689
1783003420222399500,0.2713994140625,-0.07371580907404422,-0.01719937394093722,-0.032020812369929624
1783003420232450600,0.281450439453125,-0.07267185297906398,0.008574936121702193,-0.025040808156318962
1783003420242502400,0.29150244140625,-0.0837426975697279,0.020620215235091745,-0.018672944491682573
1783003420252553500,0.301553466796875,-0.07894903355240822,0.019869031541608274,-0.026167939889570696
1783003420262604500,0.3116044921875,-0.07610124290585517,0.009889416253753006,-0.019222586864233015
1783003420272655400,0.3216552734375,-0.06802431943416595,0.010391009100340307,-0.007859481328725814
1783003420282706400,0.33170654296875,-0.06144844817519188,-0.006086261111125349,0.0025848014619667082
1783003420292758500,0.341758544921875,-0.08165420085787772,-0.0029006168123334643,0.013771326587861402
1783003420302809600,0.3518095703125,-0.0803133076429367,-0.019710406913794574,0.033325857953354715
1783003420312860400,0.3618603515625,-0.08105623496472836,-0.009798340436816214,0.039416000655153764
1783003420322911500,0.371911376953125,-0.08179331706762313,-0.01703073937576264,0.034437846916401754
1783003420332962600,0.381962646484375,-0.0686234543710947,-0.023741415995545682,-0.002579750827513635
1783003420343013600,0.392013671875,-0.0761041655153036,-0.014194675699621438,-0.028745699689397587
1783003420353065500,0.4020654296875,-0.07430383809506892,0.002456599371880293,-0.04064684849120676
1783003420363116500,0.412116455078125,-0.07041618300676346,0.002537847914546728,-0.05190396376843564
1783003420373167600,0.422167724609375,-0.07446341257095336,0.004942351773008704,-0.038106498092319814
1783003420383218400,0.432218505859375,-0.07297989601492881,-0.012463139199279247,-0.010928431312134489
1783003420393269500,0.44226953125,-0.07658230442106723,-0.0034659225448966024,0.018536604760913178
1783003420403321600,0.452321533203125,-0.08211889576017856,-0.0018130407713353633,0.03469568500183522
1783003420413372400,0.462372314453125,-0.08017360691130161,0.006915515009500086,0.03128622361822054
1783003420423423500,0.472423583984375,-0.07253682842254638,0.00891549318768084,0.014548649369599298
1783003420433474600,0.482474609375,-0.06983925990164279,0.00718530839420855,-0.0028453886269126085
1783003420443525600,0.492525634765625,-0.08075988236665725,0.006644589113630354,-0.01875268606385216
1783003420453577500,0.502577392578125,-0.07671732897758483,-0.013970621152780948,-0.024313644659239797
1783003420463628500,0.512628662109375,-0.08090484379529952,-0.022556845853477715,-0.02654305681227706
1783003420473679600,0.5226796875,-0.08718377793431281,-0.03257737767361104,-0.01872048256099224
1783003420483730400,0.53273046875,-0.07312193483412266,-0.016655476322583854,-0.001064277363801375
1783003420493781500,0.542781494140625,-0.06474222902357578,0.0038249651156365867,0.021571241482766342
1783003420503833600,0.55283349609375,-0.07835983548760414,0.020411540920473634,0.03369811619869433
1783003420513884700,0.562884765625,-0.08180033133029938,0.00914502762723714,0.02587764257295057
1783003420523935500,0.572935546875,-0.08419044133722782,-0.004575235493667423,0.02803840080341324
1783003420533986600,0.582986572265625,-0.07939560827612877,-0.03254585002418607,-0.0016443148746155202
1783003420544037600,0.59303759765625,-0.08028934224545956,-0.03771996472645551,-0.010208218145649879
1783003420554089500,0.60308935546875,-0.08358312309384346,-0.03660977499485016,-0.01706740899118595
1783003420564140500,0.613140625,-0.08329086214900017,-0.012948913422226906,-0.017717981854407115
1783003420574191600,0.623191650390625,-0.08059855432510375,0.014148608068190514,-0.00881575000709854
1783003420584242700,0.63324267578125,-0.0823965436577797,0.0384287705829367,-0.004863806644082069
1783003420594293200,0.643293212890625,-0.07491349442601203,0.05629877379443496,-0.0065507916166447095
1783003420604344300,0.65334423828125,-0.07237608490288257,0.03896517901457846,0.007943689013458788
1783003420614396700,0.663396728515625,-0.0764180537700653,-0.005563552411273122,-0.002593551024002954
1783003420624447500,0.673447509765625,-0.08450257602632046,-0.042992388704046605,-0.0038835817013867196
1783003420634498300,0.683498291015625,-0.08031038503348827,-0.05604951174110174,-0.012788854889152572
1783003420644549400,0.69354931640625,-0.07447218039929866,-0.03470204167738557,-0.01900801253179088
1783003420654600400,0.703600341796875,-0.07237666942477226,0.0035720863331109285,-0.015931134970253332
1783003420664652500,0.713652587890625,-0.07566752766370773,0.013256152740493417,0.00003657828387804329
1783003420674703400,0.723703369140625,-0.08463876962661743,0.010402626472897827,0.006735491400631144
1783003420684754400,0.73375439453125,-0.07326572721898555,0.0018453721383586525,0.002924856204446405
1783003420694805500,0.743805419921875,-0.07865151191055775,-0.015961575774289666,0.0165082681379281
1783003420704856300,0.753856201171875,-0.07970423583388328,-0.020128230467066167,0.012276229191897437
1783003420714907400,0.763907470703125,-0.07462006443738937,-0.012223266028799116,0.0075962181495036925
1783003420724959500,0.77395947265625,-0.07641571568250656,-0.015209515297971665,0.002979490734823048
1783003420735010300,0.78401025390625,-0.07566928122937679,-0.00260327783357352,-0.0030240787952207026
1783003420745061400,0.794061279296875,-0.07836334261894226,0.007741736700572073,-0.006729399586562067
1783003420755112400,0.804112548828125,-0.07716273465752602,0.01874620152413845,-0.006493006147956475
1783003420765163500,0.81416357421875,-0.07985679604709148,0.02027143833003938,-0.00663150130319409
1783003420775215400,0.82421533203125,-0.08164777111709118,0.0059164940347895024,-0.019077798965526742
1783003420785266400,0.834266357421875,-0.08374620470106602,-0.004939831022359431,-0.010039821042492986
1783003420795317500,0.8443173828125,-0.0753682524561882,-0.03139412270579487,-0.010090062525542452
1783003420805368300,0.854368408203125,-0.07641746924817562,-0.04420589267965406,-0.008156902505876496
1783003420815419400,0.86441943359375,-0.08075871332287787,-0.027099457719177007,0.005474878613976762
1783003420825471500,0.874471435546875,-0.08524199621677399,-0.016783011692389844,0.006081274408753961
1783003420835522300,0.884522216796875,-0.06967091759741306,0.008132818377390504,0.0245442202784121
1783003420845573400,0.894573486328125,-0.07684884640276432,0.02476805562954396,0.018582014805218205
1783003420855624400,0.90462451171875,-0.07055997539162635,0.025580248795263466,0.009859094180725515
1783003420865675500,0.914675537109375,-0.08357844691872596,0.0060302931401878595,0.00031720358985476194
1783003420875727400,0.924727294921875,-0.08806640598773956,-0.004847914955206215,-0.014545608029142022
1783003420885778400,0.9347783203125,-0.07384615745544433,-0.014513020933791995,-0.028872166480123994
1783003420895829500,0.94482958984375,-0.0669546443760395,-0.018642595019191504,-0.034927173936460165
1783003420905880600,0.954880615234375,-0.08191898927390574,-0.014164280561357736,-0.023063708530226722
1783003420915931600,0.964931640625,-0.07773088993430137,-0.011000957692228258,-0.0038416331226471807
1783003420925982500,0.974982421875,-0.08580605984032154,0.001281893036700785,0.013043953028228134
1783003420936034600,0.98503466796875,-0.0813157626837492,-0.010138605241850018,0.03023452260820195
1783003420946085600,0.995085693359375,-0.0715910720050335,-0.00933357246927917,0.0284416569752153
1783003420956136700,1.00513671875,-0.07981997116804122,-0.021205577374994754,0.019382718462543563
1783003420966187500,1.0151875,-0.07801613661646843,-0.017674809432961045,0.018387140687089413
1783003420976238600,1.025238525390625,-0.08175181601345538,-0.01582976608816534,0.01003134547509253
1783003420986290700,1.035290771484375,-0.08758242186307906,-0.006971811774000525,-0.007379552324675023
1783003420996341800,1.045341796875,-0.07859948946237563,0.005211852896772325,-0.015915179349295795
1783003421006392600,1.055392578125,-0.08114099063873291,0.008603212368115782,-0.018690945939254015
1783003421016443400,1.065443359375,-0.07635141827464104,0.017992387482151387,-0.02891880950029008
1783003421026494500,1.075494384765625,-0.07037175934314728,0.0065222048429772255,-0.017913568358588962
1783003421036546800,1.085546875,-0.07037994264960289,-0.004266534870676696,-0.0026649357597809285
1783003421046597400,1.095597412109375,-0.07815817543566227,-0.018615926207974552,0.006832914759963751
1783003421056648400,1.1056484375,-0.07083060902655124,-0.03260590964835137,0.022803130498435346
1783003421066699500,1.115699462890625,-0.08040683114528656,-0.031290991124883295,0.023178667546249924
1783003421076750600,1.12575048828125,-0.07741291002631187,-0.013330861944518983,0.02841035765465349
1783003421086802400,1.135802490234375,-0.07395838565826415,-0.0036037601130083203,0.016203586102928966
1783003421096853500,1.145853515625,-0.07290273912549018,0.004126322682388127,0.0023701175316702574
1783003421106904600,1.155904541015625,-0.08831307422518729,0.0028838483406230806,-0.015988728642696515
1783003421116955400,1.165955322265625,-0.07843523881137371,0.009273037921078503,-0.030047685666056347
1783003421127006500,1.17600634765625,-0.07903203566074371,-0.0002567147074267268,-0.030214347469853235
1783003421137057500,1.1860576171875,-0.07768705079257487,-0.0020277429679408667,-0.02944995723492466
1783003421147109600,1.196109619140625,-0.07754092032015324,-0.014539653212390839,-0.009969970676675438
1783003421157160400,1.206160400390625,-0.07560030764639378,-0.0032658333955332634,0.012066815091762691
1783003421167211500,1.21621142578125,-0.07754618101716042,-0.008631452081911265,0.02164547576275654
1783003421177262600,1.2262626953125,-0.07604980497956275,-0.006998151791654527,0.03340363589730114
1783003421187313700,1.236313720703125,-0.06586801818311214,-0.0068038347959518426,0.029821667490992694
1783003421197365500,1.246365478515625,-0.0717079763829708,0.00023724282197654247,0.01876280559906736
1783003421207416600,1.25641650390625,-0.07110650335848331,-0.003249466782622039,0.00046706952247768636
1783003421217467600,1.266467529296875,-0.07708323968052863,-0.0032891777385026214,-0.023582024182751772
1783003421227518500,1.2765185546875,-0.07752864536046981,-0.011435951576009393,-0.03875857792603783
1783003421237569500,1.286569580078125,-0.079167644739151,-0.017929697509482503,-0.04462907739463262
1783003421247620600,1.29662060546875,-0.07841887219846248,-0.018423289712704717,-0.029017082242993635
1783003421257672400,1.30667236328125,-0.0760258395820856,-0.00048467824440449474,-0.011417703533265738
1783003421267723500,1.3167236328125,-0.07662497451901436,0.0053214142184704535,0.015811253183940426
1783003421277774600,1.326774658203125,-0.07423369546830653,-0.005981047170981764,0.0368542604083661
1783003421287825700,1.33682568359375,-0.0727326432555914,-0.018244389481842517,0.04416262892666273
1783003421297876500,1.34687646484375,-0.07287117494344711,-0.025989962107315658,0.046691608548164364
1783003421307928600,1.356928466796875,-0.07481003405153751,-0.024307598510943353,0.026685387892415747
1783003421317979600,1.366979736328125,-0.06822305687665939,-0.0114495051773265,0.0016652206653263418
1783003421328030500,1.377030517578125,-0.07001344742476939,-0.012161635502055287,-0.014536867600260302
1783003421338081500,1.38708154296875,-0.06537292814254761,-0.0017161562681198119,-0.038859608881408346
1783003421348132600,1.397132568359375,-0.06672025109827517,-0.002303052777983248,-0.0448547576429788
1783003421358184700,1.407184814453125,-0.08512392279505729,-0.004788220657221972,-0.03615583894858137
1783003421368235500,1.417235595703125,-0.089468089479208,0.002054740572720766,-0.018566451909905298
1783003421378286600,1.42728662109375,-0.07794365590214729,0.017267141947522758,-0.0032459048523567615
1783003421388337700,1.437337646484375,-0.07016308502852917,0.017554105662740765,0.01325669159661047
1783003421398388700,1.447388671875,-0.06972177100181579,0.0039214112274348735,0.025980271830363198
1783003421408439600,1.457439453125,-0.07945113785564899,-0.01156805352307856,0.01397440227875486
1783003421418491600,1.46749169921875,-0.07974982854127884,-0.024736162653937934,0.017607689880346878
1783003421428542700,1.477542724609375,-0.07720189762413501,-0.038878450579196214,0.00666596069522202
1783003421438593500,1.487593505859375,-0.07286123807132244,-0.03438413483463228,-0.009927510641282423
1783003421448644600,1.49764453125,-0.08468202424645424,-0.014618454069644212,-0.01043151464066468
1783003421458695700,1.50769580078125,-0.07330313661992549,0.005397840455546975,-0.005844259915640577
1783003421468747500,1.51774755859375,-0.08167875077724457,0.011858853163197637,-0.0051232886973302805
1783003421478798600,1.527798583984375,-0.08048398803472519,0.01337404349911958,-0.005554108729492873
1783003421488849700,1.537849609375,-0.08152619056403636,0.00888794759362936,-0.008584096675692125
1783003421498900700,1.547900634765625,-0.06655950757861137,-0.01260532414894551,-0.005194874362507835
1783003421508951600,1.55795166015625,-0.08152619056403636,-0.03351966349240392,-0.006227788473665714
1783003421519002600,1.568002685546875,-0.0897550897270441,-0.03897179141845554,0.004405998140294105
1783003421529054700,1.5780546875,-0.08481763332486152,-0.023413608813285827,0.016022530447598545
1783003421539105500,1.58810546875,-0.07778700403571129,-0.002357997835613787,0.026462721585063263
1783003421549156600,1.598156494140625,-0.08272504495978356,0.013068996137939392,0.015288955476041883
1783003421559207700,1.608207763671875,-0.07688800936937332,0.03520820110123604,0.014680385990487411
1783003421569258800,1.6182587890625,-0.08256780857145786,0.030740079243853687,-0.004906303212093189
1783003421579310600,1.628310546875,-0.08316811255216598,0.01780534047745168,-0.013004908792627974
1783003421589361700,1.638361572265625,-0.07463526200652122,-0.010821071080677211,-0.03694246841478161
1783003421599412700,1.648412841796875,0.020483400580286977,-0.015707527947984634,0.012633353800186887
1783003421609463800,1.6584638671875,-0.03759644794464111,-0.06726999393552541,-0.16946016581114381
1783003421619514600,1.6685146484375,-0.2457417702525854,-0.0503845813145861,0.1044892608645372
1783003421629566700,1.678566650390625,-0.14360533785820007,-0.052803734752908345,-0.0134621145082172
1783003421639617800,1.68861767578125,0.0742529846906662,0.01955550861302763,0.03690621892446652
1783003421649668600,1.698668701171875,-0.1066822591304779,-0.010526435515657066,-0.02233233464891091
1783003421659719700,1.7087197265625,-0.23018881181180476,0.0023404256463050842,0.12446808205670676
1783003421669770500,1.7187705078125,-0.08445815236270428,-0.023026363061368463,-0.006954577511409297
1783003421679821600,1.728821533203125,0.07000584864020347,0.01092084166072309,-0.005777377825044095
1783003421689873700,1.738873779296875,0.03611819208562374,0.007885529085434972,-0.05009128832328133
1783003421699924700,1.7489248046875,-0.0889233150780201,-0.00029620646759867666,-0.012669886418292298
1783003421709975600,1.7589755859375,-0.18545184446275234,-0.0020414061671122905,0.00018601495823822913
1783003421720026400,1.7690263671875,-0.1514203955233097,-0.013201573009043932,-0.01836052667479962
1783003421730077400,1.779077392578125,-0.050941082686185836,-0.0045815921692177655,-0.021784290578402577
1783003421740129800,1.7891298828125,0.01534896030128002,-0.0072936641395092,-0.050104997188225385
1783003421750180600,1.7991806640625,-0.019423077872395514,-0.012708309599384664,-0.011698959026904775
1783003421760231400,1.8092314453125,-0.1140501575499773,-0.028265396226011215,0.01666622604546137
1783003421770282500,1.819282470703125,-0.14980886867344378,-0.0315023323206231,0.0401795780393295
1783003421780333600,1.82933349609375,-0.10756430266201496,-0.024301022639684377,0.0362860229332
1783003421790384600,1.839384521484375,-0.05171674323379993,-0.0034091508563607927,0.010936240159254521
1783003421800436500,1.8494365234375,-0.035112229913473125,0.011724413128569722,-0.010874143841629847
1783003421810487600,1.859487548828125,-0.07135375611782073,0.011411109395697712,-0.019841714276419953
1783003421820538600,1.86953857421875,-0.10608487775921821,0.010894684306159615,-0.01513848675522022
1783003421830589400,1.87958935546875,-0.11609539964199066,-0.0009915683206170797,-0.025641459196899086
1783003421840640500,1.889640625,-0.07731354130506515,-0.0074169617256149645,-0.02690502199246548
1783003421850692600,1.899692626953125,-0.04439209943413734,-0.004101151708513498,-0.0247342446914874
1783003421860743400,1.909743408203125,-0.0577308889567852,-0.015587152971327303,-0.014278746387036516
1783003421870794500,1.91979443359375,-0.0915764599353075,-0.023982750470750033,0.01733385050818324
1783003421880845600,1.929845458984375,-0.10235095192790031,-0.022767419864237307,0.028569000548776237
1783003421890896600,1.939896728515625,-0.09859656783044338,-0.009928615752980112,0.03373848474170081
1783003421900948500,1.949948486328125,-0.06895137115120888,-0.008116597894951701,0.009271631415281444
1783003421910999600,1.95999951171875,-0.05683481689989566,-0.0032150165237486363,-0.0031365992589853704
1783003421921050000,1.970050048828125,-0.0731593442350626,-0.0044450697753578424,-0.018687493606843054
1783003421931101200,1.98010107421875,-0.09247194747030735,-0.004433087076619267,-0.02577063853451982
1783003421941152000,1.990152099609375,-0.09261398628950118,-0.014166801312007008,-0.037719718131283296
1783003421951203000,2.000203125,-0.07719429883956909,-0.002006809777766466,-0.023968603214388713
1783003421961255200,2.010255126953125,-0.05070902749598026,-0.004827602819539607,-0.005515685548400506
1783003421971306000,2.020305908203125,-0.0637391894608736,-0.0004183350099250674,-0.003056108768144622
1783003421981357000,2.030357177734375,-0.08230360467731952,-0.0030789690539240835,0.021968807699298484
1783003421991408000,2.040408203125,-0.08469780633747577,-0.005013407715223729,0.028776980743650347
1783003422001459200,2.050459228515625,-0.08184475499391555,-0.00434898898974061,0.02711247246437706
1783003422011511000,2.060510986328125,-0.06672083562016487,-0.020126659564487635,0.0059812298340722915
1783003422021562000,2.07056201171875,-0.07210778935551643,-0.01728080514669418,-0.009302008287236095
1783003422031613200,2.08061328125,-0.07704933741092682,-0.018110643566958604,-0.009846901419432834
1783003422041664000,2.0906640625,-0.08647884453535079,-0.009630728784948587,-0.018994376732083037
1783003422051715000,2.100715087890625,-0.08378419862389563,-0.005999861469306051,-0.025776794280670583
1783003422061766100,2.11076611328125,-0.07599836705327033,-0.003562368656694889,-0.01836186011536047
1783003422071818200,2.120818359375,-0.0715162532031536,0.0034672377191483973,-0.0026333076456561684
1783003422081869000,2.130869140625,-0.07660743886232375,-0.004713767181523144,0.0024058920979499816
1783003422091920100,2.140920166015625,-0.08064765416383743,-0.013146153027378022,0.013267806645669043
1783003422101971200,2.15097119140625,-0.08977379442751407,-0.0139156030299142,0.011162039138609543
1783003422112022300,2.161022216796875,-0.07690671406984328,-0.015473792257346212,0.010700750902947039
1783003422122074000,2.17107421875,-0.07091711826622486,-0.016885887544974682,0.0047471123286988584
1783003422132125200,2.181125244140625,-0.07585574371218681,-0.013101875494234264,-0.0010108666761312634
1783003422142176300,2.19117626953125,-0.07750000378787517,-0.0011482567196711897,-0.0025509539912920444
1783003422152227000,2.20122705078125,-0.07929331694543361,0.009881232947297394,-0.013098514493368565
1783003422162278100,2.211278076171875,-0.07106558682620524,0.01296717973127961,-0.020614287817804142
1783003422172329200,2.2213291015625,-0.06464110673666,0.0037879210408776997,-0.013684598152479155
1783003422182381000,2.231381103515625,-0.08080722863972187,-0.0031753055678680536,-0.0013571958957705646
1783003422192432000,2.24143212890625,-0.08245791845619678,-0.005051693898998201,0.00663413165169768
1783003422202483200,2.251483154296875,-0.08306348313391208,-0.0101445600586012,0.017119906363403423
1783003422212534300,2.2615341796875,-0.07813187195062637,-0.006951134312152862,0.020464549749344585
1783003422222585000,2.271585205078125,-0.08606441851556301,-0.02727043037191033,0.020263711681310085
1783003422232637200,2.28163720703125,-0.07035013203322887,-0.03766034349370748,0.013255778281157836
1783003422242688300,2.291688232421875,-0.07214636780023574,-0.030662776223942634,0.009536565961781889
1783003422252739000,2.301739013671875,-0.08037117531001567,-0.005902538574673235,0.0061856389655265956
1783003422262790100,2.3117900390625,-0.0820084211230278,0.013519479851797222,0.00205402818666771
1783003422272841000,2.321841064453125,-0.08095861980915069,0.039348954167775806,-0.01571783014629036
1783003422282892000,2.33189208984375,-0.07288578799068927,0.040239655929803844,-0.024783417595457283
1783003422292944100,2.341944091796875,-0.08171732922196388,0.020052754078060387,-0.024892138666938988
1783003422302995200,2.3519951171875,-0.0811281311571598,-0.0176002463594079,-0.034946581889828666
1783003422313046000,2.3620458984375,-0.0815817201435566,-0.03860449247602373,-0.023360691315960136
1783003422323097000,2.37209716796875,-0.08711948052644729,-0.046066681582853194,-0.020271127802785484
1783003422333148000,2.38214794921875,-0.06721826374828815,-0.024551745997741816,0.0067567716506775465
1783003422343200300,2.3922001953125,-0.07006430082917213,-0.003406849301420152,0.022234052773052824
1783003422353251000,2.4022509765625,-0.07201251228749751,0.012403554499149321,0.040674458017339925
1783003422363302000,2.412302001953125,-0.08053717952668667,0.009608845746703445,0.03418419181574136
1783003422373353000,2.42235302734375,-0.07903729635775089,-0.0027383389227092266,0.015272543197358027
1783003422383404000,2.432404052734375,-0.07394669522047043,-0.006188369778729975,-0.0048165425694081925
1783003422393455900,2.442455810546875,-0.07395137139558791,-0.023105492712184785,-0.023765755852358416
1783003422403507000,2.4525068359375,-0.07500000366568566,-0.025444749314710496,-0.027920573976868764
1783003422413558000,2.46255810546875,-0.08053893309235573,-0.02747738765347749,-0.026854716577334327
1783003422423609000,2.472609130859375,-0.07096504906117916,-0.0021420900626108047,-0.017557667593006043
1783003422433660000,2.482659912109375,-0.07994798146188259,0.006031060325168073,-0.004529861981980503
1783003422443711000,2.4927109375,-0.06617956835031509,0.005538673698343336,0.007049808913655579
1783003422453763000,2.50276318359375,-0.07456570390164852,0.0006174743112176656,0.009270234042638912
1783003422463814100,2.512814208984375,-0.06918401086330414,-0.012602474604733288,0.015539048646437003
1783003422473865000,2.522864990234375,-0.0747235248118639,-0.002758541460521519,0.01026789417732507
1783003422483916000,2.532916015625,-0.07367080088853836,-0.008381678571924567,0.005680018397793174
1783003422493967000,2.542967041015625,-0.07366554019153118,-0.015032149437069892,-0.013944783458625896
1783003422504019000,2.55301904296875,-0.07470598915517329,-0.015078472796827554,-0.022913842597603797
1783003422514070000,2.563070068359375,-0.07754618101716042,-0.012058357790671288,-0.021910848700674248
1783003422524121000,2.57312109375,-0.07290916886627674,-0.005132869376428425,-0.008420649742288514
1783003422534172200,2.583172119140625,-0.07215630467236042,0.011176533454842865,-0.006293793781427666
1783003422544223000,2.593222900390625,-0.06662029785513877,0.01264927288852632,0.0026960250177886337
1783003422554274000,2.603274169921875,-0.08502572311758995,0.006803177208825946,0.013591796169336885
1783003422564326100,2.613326171875,-0.07994038267731667,0.001467588334530592,0.004272617551591247
1783003422574377000,2.623376953125,-0.07620236519277096,-0.015037446666695176,-0.00030672786161303517
1783003422584428000,2.633427978515625,-0.07695113773345946,-0.02798741953484714,-0.0008487805827520787
1783003422594479000,2.64347900390625,-0.09116437200307846,-0.029791254086419937,-0.0010899597943294793
1783003422604530200,2.6535302734375,-0.08203530912995338,-0.012171207047998905,-0.007073472917033359
1783003422614581000,2.6635810546875,-0.07529810982942581,0.00042874680608510966,0.0007416943459305911
1783003422624633000,2.673633056640625,-0.07410100899934768,0.022378603209741412,0.0000057538873516023154
1783003422634684200,2.68368408203125,-0.07304945411980152,0.020949849048256874,0.0038193847582209854
1783003422644735000,2.69373486328125,-0.07483926014602184,0.011670710179954767,-0.0009379019046202302
1783003422654786000,2.7037861328125,-0.07708908489942551,-0.010215616000816226,-0.008800552437966689
1783003422664837000,2.713837158203125,-0.07813830169141292,-0.030957448321580885,-0.011778664066456258
1783003422674889000,2.723888916015625,-0.08322071952223778,-0.038713140482269225,-0.008725395709369331
1783003422684940000,2.73393994140625,-0.07408581143021584,-0.01643894749507308,-0.0005645842133555561
1783003422694991000,2.7439912109375,-0.08515139532387256,-0.000011763503029942511,0.004149740090593696
1783003422705042200,2.754042236328125,-0.08230360467731952,0.0073643912881612775,-0.0040010158022865654
1783003422715093200,2.76409326171875,-0.07691431285440921,-0.0009615750411525368,-0.00754516381570138
1783003422725144000,2.77414404296875,-0.06838496944010257,-0.017009988848678766,-0.011422461906773968
1783003422735196200,2.784196044921875,-0.07691431285440921,-0.029909838964790103,-0.003903674641344696
1783003422745247200,2.794247314453125,-0.08485212011635303,-0.015552483516745269,0.0046255683082621546
1783003422755298000,2.804298095703125,-0.08545359314084053,-0.0006471753297373652,0.007031168145267292
1783003422765349000,2.81434912109375,-0.08215981229245663,0.016365809193626044,-0.0007571841760072856
1783003422775400200,2.824400146484375,-0.07617547718584537,0.02401446078326553,0.009088192006619646
1783003422785452000,2.8344521484375,-0.07407996621131896,0.006171710904873907,0.002886012898245826
1783003422795503000,2.844503173828125,-0.08484744394123554,-0.009754062903672455,-0.0003806698806583881
1783003422805554200,2.85455419921875,-0.08514613462686538,-0.01902253424748778,0.014798550743749365
1783003422815605200,2.864605224609375,-0.08409808687865733,-0.015566913900896906,0.006062304846802726
1783003422825656000,2.874656005859375,-0.0864917040169239,-0.018250161635503172,-0.0034259101949166504
1783003422835707100,2.88470703125,-0.07916238404214382,-0.008440130760893226,-0.024962664886191487
1783003422845759200,2.89475927734375,-0.08604454477131367,-0.009403897759132087,-0.024141594294272362
1783003422855810000,2.90481005859375,-0.07781330752074718,-0.0166645729444921,-0.021354045934975144
1783003422865861000,2.914861083984375,-0.07227846974730491,-0.014566833480261266,-0.008910287289600818
1783003422875912200,2.924912109375,-0.07467384045124054,-0.017824556634575127,0.0016825462594628332
1783003422885963300,2.93496337890625,-0.07467793210446834,-0.01579593688379973,0.002183636782551184
1783003422896015000,2.94501513671875,-0.06779927850663661,-0.008066475142911075,0.013336506234016268
1783003422906066200,2.955066162109375,-0.08171791374385357,-0.0011251315724104642,0.009372004783526063
1783003422916117200,2.9651171875,-0.07663081973791122,-0.0032859994007274507,0.011916328104631975
1783003422926172000,2.975171875,-0.07857318597733974,0.0007524623351171612,0.004227691564476117
1783003422936223000,2.985222900390625,-0.0685492200911045,-0.008283332763984798,-0.00560978443948552
1783003422946274000,2.995274169921875,-0.07289104868769646,-0.008061470174230635,-0.010222538931947201
1783003422956326100,3.005326171875,-0.08500234224200248,-0.012779803933016955,-0.016991183683509006
1783003422966377000,3.015376953125,-0.07707271828651428,-0.018291662689670918,-0.006691104269633069
1783003422976428000,3.025427978515625,-0.07542553560137748,-0.004997150700166821,-0.009854993394343183
1783003422986479000,3.03547900390625,-0.0784177031546831,-0.004879150343686342,-0.003472827209718525
1783003422996530200,3.0455302734375,-0.08216448846757411,-0.012274959683418274,0.00045962600153870876
1783003423006582000,3.05558203125,-0.07438333307206631,-0.013641352665796875,0.013406447931379078
1783003423016633000,3.065633056640625,-0.08216215038001537,-0.01110730414353311,0.005528873823536559
1783003423026684200,3.07568408203125,-0.08066577434241771,-0.009276910378597677,0.00042348610907793044
1783003423036735000,3.08573486328125,-0.07423369546830653,-0.002173800375126302,-0.0024181853239424525
1783003423046786000,3.0957861328125,-0.07872574619054794,-0.0025392361540347336,0.00733075388004072
1783003423056837000,3.105837158203125,-0.07512976752519607,-0.003723331372067332,-0.0018078257401008158
1783003423066889000,3.115888916015625,-0.08395487901568412,-0.010858517014235257,-0.01425622402797453
1783003423076940000,3.12593994140625,-0.08664367970824241,-0.009630107730440795,-0.00452110328678973
1783003423086991000,3.1359912109375,-0.08200316042602061,0.0001886179072782397,0.0024804369051940737
1783003423097042200,3.146042236328125,-0.07691898902952671,0.005492934860475361,-0.005817992963222786
1783003423107093000,3.156093017578125,-0.07213000118732452,0.013112360355630516,-0.015243326236028223
1783003423117145000,3.16614501953125,-0.07556582085490227,0.0032020839769393203,-0.014263302222732454
1783003423127196200,3.176196044921875,-0.0764618929117918,-0.015543459960073232,-0.01309071477940306
1783003423137247000,3.1862470703125,-0.07886018622517585,-0.026717399599030613,-0.015369025841774417
1783003423147298000,3.196298095703125,-0.0797597654134035,-0.04752605007831007,0.0008864000462461263
1783003423157349000,3.20634912109375,-0.07631926957070827,-0.04649170206189155,0.018631890962086617
1783003423167400200,3.216400146484375,-0.08140811714231967,-0.02000233906507492,0.030653359941625966
1783003423177452000,3.2264521484375,-0.07960954328775405,-0.000450702909566462,0.031685890460293735
1783003423187503000,3.236503173828125,-0.0703267511576414,0.023112360844388603,0.02354451431711204
1783003423197554200,3.24655419921875,-0.07735621140301227,0.033969233890809115,0.0023965762803331014
1783003423207605200,3.256605224609375,-0.07466039644777775,0.015065247989073395,-0.022095804212987423
1783003423217656000,3.266656005859375,-0.07181611293256282,-0.0063766223598271604,-0.03650151058109477
1783003423227708200,3.276708251953125,-0.07495791808962822,-0.023627689955383537,-0.04782417450835928
1783003423237759200,3.28675927734375,-0.07196867314577102,-0.015183504073880612,-0.044973671314911916
1783003423247810000,3.29681005859375,-0.0784136115014553,-0.007000380281358957,-0.03504249827866442
1783003423257861000,3.306861083984375,-0.07303308750689029,0.004761917172186076,-0.0054222533775959165
1783003423267912200,3.316912109375,-0.08081365838050841,0.001225778935290873,0.020629138327063992
1783003423277963300,3.32696337890625,-0.08006605488359927,-0.00819247614275664,0.035560539936553684
1783003423288015000,3.33701513671875,-0.06989069782793521,-0.013854155166260897,0.03760044826632365
1783003423298066200,3.347066162109375,-0.08125847953855991,-0.027221038272231816,0.035657853698031976
1783003423308117200,3.3571171875,-0.07467617853879928,-0.018268026085756717,0.009436247392464429
1783003423318168000,3.36716796875,-0.0773638101875782,-0.020591354466788468,-0.014089589623641222
1783003423328219100,3.37721923828125,-0.07616144866049289,-0.022364465086534616,-0.025534509957395493
1783003423338271200,3.387271240234375,-0.07016717668175697,-0.01302833533398807,-0.039893591571645806
1783003423348322000,3.397322021484375,-0.07974398332238197,0.008996412936784326,-0.03247150614634156
1783003423358373000,3.407373046875,-0.09365794238448143,0.017915047929622233,-0.01346747566992417
1783003423368424200,3.417424072265625,-0.08603168528974056,0.011432919368706643,-0.0036037601130083203
1783003423378475300,3.427475341796875,-0.07780687777996063,0.0065751406066119665,0.014453527565207331
1783003423388526000,3.437526123046875,-0.07646540004312992,-0.003042546033672988,0.03421235846430063
1783003423398578200,3.447578125,-0.07871580931842327,-0.006771686092019081,0.02078179900497198
1783003423408629200,3.457629150390625,-0.07945581403076649,-0.008709704949893057,0.02554793569454923
1783003423418680000,3.46768017578125,-0.0791547852575779,-0.00379858856536448,0.007837689622025936
1783003423428731100,3.477731201171875,-0.07137362986207008,-0.005130604354105889,-0.018741479683248324
1783003423438782200,3.4877822265625,-0.07287351303100585,-0.012513298483937977,-0.024865880847675725
1783003423448834300,3.497834228515625,-0.07886077074706555,-0.014990611850284039,-0.029191452429210764
1783003423458885000,3.507885009765625,-0.08125672597289085,-0.01779701104052365,-0.02623316887919791
1783003423468936200,3.517936279296875,-0.07348375388383865,-0.009647570321895182,-0.007092506411066278
1783003423478987300,3.5279873046875,-0.07947101159989833,0.008953414045274256,-0.003774988494068384
1783003423489038300,3.538038330078125,-0.07468786897659302,0.013129384555667638,0.006332828883873299
1783003423499089200,3.548089111328125,-0.08801029188632964,0.00784844847805798,0.008206541200727224
1783003423509141200,3.558141357421875,-0.08067804930210112,0.004099288544990122,0.0013170282821636646
1783003423519192300,3.5681923828125,-0.07708966942131519,-0.017660269450955092,0.00026392989950254557
1783003423529243100,3.5782431640625,-0.07140577856600284,-0.027280184580944476,0.0070345017466694115
1783003423539294200,3.588294189453125,-0.07918576491773129,-0.015885441798157988,0.008245832031499594
1783003423549345000,3.598344970703125,-0.08292261335849761,-0.011172149540670216,0.006009387349477037
1783003423559396000,3.60839599609375,-0.07394201904535293,-0.004022679644823074,-0.00809586563417688
1783003423569448200,3.6184482421875,-0.0821697491645813,0.00012190934661775827,-0.007433620599471032
1783003423579499300,3.628499267578125,-0.09114625182449818,-0.009647752984985708,-0.015052790366299449
1783003423589550000,3.638550048828125,-0.0805225664794445,-0.010547112977504729,-0.007635253251949325
1783003423599601200,3.64860107421875,-0.07050386129021644,-0.012315255161188542,-0.007671009551919996
1783003423609652000,3.65865185546875,-0.08083528569042682,-0.007494410875998437,-0.0010568064433988183
1783003423619704300,3.668704345703125,-0.08158639631867408,0.00037164632398635147,0.004030908617051318
1783003423629755100,3.678755126953125,-0.0799386291116476,-0.004746573472581803,0.009802066763862968
1783003423639806000,3.688805908203125,-0.07978548437654971,0.006117715695314109,0.019025767384190113
1783003423649857000,3.69885693359375,-0.07409925543367862,-0.004636427628993987,0.012969207291584461
1783003423659908000,3.708908203125,-0.08007891436517238,-0.022839498719759283,-0.0020419906890019775
1783003423669959200,3.718959228515625,-0.07887363022863865,-0.018914397697895765,-0.007064933417551219
1783003423680011000,3.729010986328125,-0.08440612991452216,-0.017810564641840755,-0.01835875484282151
1783003423690062000,3.73906201171875,-0.07063362514972686,-0.0038941578943282366,-0.011115149523271247
1783003423700113200,3.749113037109375,-0.07333177819252014,0.004758556171320379,-0.016078050893964246
1783003423710164000,3.7591640625,-0.07348667649328708,0.011748305460810661,-0.006954751041345298
1783003423720215000,3.769215087890625,-0.0721393535375595,0.00977083137538284,-0.0023279040914494543
1783003423730266000,3.77926611328125,-0.07767769844233989,-0.0006758169023320078,0.014331654751207679
1783003423740318000,3.78931787109375,-0.06989595852494239,-0.02074786020275205,0.014338924742210655
1783003423750369000,3.799369140625,-0.07079144605994224,-0.03140281746890396,0.005607674680789932
1783003423760420000,3.809420166015625,-0.07737608514726162,-0.028219109398871657,-0.00191860177135095
1783003423770471200,3.81947119140625,-0.08111351810991764,-0.013330569683574139,0.0005615154734347016
1783003423780522000,3.82952197265625,-0.08379764262735843,-0.0036362010778859255,0.006923570451792329
1783003423790574000,3.839573974609375,-0.08483692254722118,0.011397409663908183,-0.010101698164409026
1783003423800625200,3.849625244140625,-0.0730155518501997,0.0004819748306646943,-0.008173680110741407
1783003423810676200,3.85967626953125,-0.07511047830283642,0.00027333704866468905,-0.01212513941656798
1783003423820727000,3.86972705078125,-0.07197159575521946,-0.005797178504057228,-0.01388424891042523
1783003423830778000,3.879778076171875,-0.07945815211832523,-0.009417268697358667,-0.013752183495974167
1783003423840829200,3.8898291015625,-0.07946165924966335,-0.00003547317218035459,0.0011120163625106215
1783003423850881000,3.899881103515625,-0.07931085260212421,0.0025119828209280966,0.0027130948835983873
1783003423860932000,3.90993212890625,-0.07467033331990242,-0.004151968580298125,0.006802519621700048
1783003423870983200,3.919983154296875,-0.07661269955933094,0.0017157544093206523,0.0024530191753059623
1783003423881034200,3.9300341796875,-0.07810790655314923,-0.010109598343074322,0.005424143940582871
1783003423891085000,3.9400849609375,-0.08528700440227985,-0.00599755991436541,0.0034016616696491836
1783003423901137200,3.95013720703125,-0.0845353092521429,-0.003965798358432949,0.0000673387483227998
1783003423911188200,3.960188232421875,-0.08004033592045307,-0.006613463323004543,-0.0043505507591646165
1783003423921236000,3.970236083984375,-0.08108487653732299,-0.011024082839488983,-0.0014732691566459834
1783003423931287000,3.980287109375,-0.08976853373050689,-0.009997845064289867,-0.004315762573573738
1783003423941338000,3.990338134765625,-0.08153905004560946,-0.003797784847766161,-0.0011646781315095723
1783003423951389200,4.00038916015625,-0.07809855420291423,-0.004498297799937427,-0.010993148845108226
1783003423961441000,4.01044091796875,-0.08767652988731861,-0.006297894567809999,-0.007692582062911242
1783003423971492000,4.0204921875,-0.07630582556724548,-0.007170366553403437,-0.0004017035355325788
1783003423981543200,4.030543212890625,-0.0830406867802143,0.005280789947137236,0.008107199878944083
1783003423991594000,4.040593994140625,-0.07495674904584884,-0.003070310823433101,0.012471212907880544
1783003424001645000,4.05064501953125,-0.07241290978193282,-0.01131152147874236,0.00614418357713148
1783003424011697200,4.060697265625,-0.08228957615196704,-0.0189544739799574,0.005750407619727775
1783003424021748000,4.070748046875,-0.08408347383141516,-0.01091693267058581,0.002963882173737511
1783003424031799000,4.080799072265625,-0.08557751178145408,-0.0037486850090324877,-0.008236443148646503
1783003424041849900,4.090849853515625,-0.07973813810348511,-0.004259776336327195,-0.0049554213171359145
1783003424051901000,4.10090087890625,-0.06671440587937831,-0.016495353857427834,-0.006833161355135962
1783003424061952000,4.110951904296875,-0.07569558471441268,-0.007153269288130104,-0.009404929805593565
1783003424072004000,4.121004150390625,-0.07090835043787956,0.0070580287527292965,0.001851619216054678
1783003424082055000,4.131054931640625,-0.0819821176379919,0.00990348131172359,0.005241636113682761
1783003424092106000,4.14110595703125,-0.07554360902309418,0.01578917834945023,0.0041971411625854665
1783003424102156800,4.15115673828125,-0.07524316477179527,0.015009060822427272,0.0012254866743460298
1783003424112208000,4.161207763671875,-0.07838789253830909,-0.01919021896459162,0.0020027089913841334
1783003424122259000,4.171259033203125,-0.08392740648686885,-0.03142053578868508,0.0013825221332721411
1783003424132310800,4.181310791015625,-0.08288052778244018,-0.03847684750836342,0.0032079839947633444
1783003424142361900,4.19136181640625,-0.08542612061202526,-0.03585033492967486,0.0139154294999782
1783003424152413000,4.201412841796875,-0.07763970451951026,-0.013523900298587977,0.008805219479929655
1783003424162464000,4.211464111328125,-0.07957739458382129,0.0010856398122385143,0.00534579060790129
1783003424172514800,4.221514892578125,-0.07867723087370396,0.009792714413627982,0.001860012585064396
1783003424182567000,4.23156689453125,-0.07777998977303505,0.012661401717737317,-0.009938908818131312
1783003424192618000,4.241617919921875,-0.07613865230679512,0.00020849165152758359,-0.0051915772937238215
1783003424202668800,4.251668701171875,-0.08347615558803081,-0.009334485784731806,-0.013850511037604882
1783003424212719900,4.261719970703125,-0.0635737697660923,-0.00202182468380779,-0.018639060488389803
1783003424222771000,4.27177099609375,-0.07540390829145908,-0.002536094348877668,-0.006686300230352208
1783003424232822000,4.281822021484375,-0.07780746230185032,0.0005036386732012033,-0.011117012686794624
1783003424242873900,4.291873779296875,-0.07227087096273899,-0.005657733500748873,0.005233187945745885
1783003424252925000,4.301925048828125,-0.07212298692464827,-0.014174984618462621,0.02367717338660732
1783003424262976000,4.31197607421875,-0.08080196794271469,-0.01756689207907766,0.019337792475428432
1783003424273026800,4.32202685546875,-0.08409399522542953,-0.021119908385537563,0.01262803830425255
1783003424283078000,4.332077880859375,-0.08259528110027313,-0.018925613211654126,0.010999459854885936
1783003424293129000,4.34212890625,-0.07361410226523876,-0.009396189376711845,0.006949051952920854
1783003424303181000,4.35218115234375,-0.0763052410453558,-0.007062449199520051,-0.013087600373709573
1783003424313232000,4.36223193359375,-0.07794833207726479,-0.011056414206512271,-0.016645000594342128
1783003424323283000,4.372282958984375,-0.07465455122888087,-0.010536664648726582,-0.01704150736494921
1783003424333334000,4.382333984375,-0.07525777781903743,-0.004466550954803824,-0.008066612140228972
1783003424343385000,4.392385009765625,-0.07316986562907696,0.0031430107334628698,-0.00007053535240702331
1783003424353437000,4.40243701171875,-0.08379822714924812,0.01116111669000238,0.005402854557381942
1783003424363488000,4.412488037109375,-0.08843407025635242,0.008250197679363191,0.012136902919597924
1783003424373539000,4.4225390625,-0.07885492552816867,-0.003634009120799601,0.003942673211172223
1783003424383590000,4.43258984375,-0.0805009391695261,-0.009898074484243988,-0.008710143341310322
1783003424393641000,4.442640869140625,-0.07152209842205047,-0.015154497175104914,-0.010951410328922793
1783003424403692000,4.452692138671875,-0.07586217345297336,-0.014800021181628107,-0.005261939116194844
1783003424413743900,4.462743896484375,-0.0736164403527975,-0.013791757454536854,-0.0009838782045058906
1783003424423795000,4.472794921875,-0.07421265268027782,-0.010158880844898521,-0.008447647347068413
1783003424433846000,4.482845947265625,-0.08274082705080509,-0.01157521391622722,-0.0027652086633257566
1783003424443897000,4.49289697265625,-0.07854805153608321,-0.006004793372750282,0.002922234989097342
1783003424453948000,4.502947998046875,-0.07495791808962822,-0.0040134003598243,0.020044917831476775
1783003424463999000,4.5129990234375,-0.07316051327884197,0.002715396438539028,0.012699669635202734
1783003424474051000,4.523051025390625,-0.08647066122889518,-0.002541245448030531,-0.00047312480392865835
1783003424484102000,4.533101806640625,-0.0840735369592905,-0.005564575324580073,-0.0050727184207178646
1783003424494153000,4.543153076171875,-0.080478727337718,0.010105908548645674,-0.007424505711253732
1783003424504204000,4.5532041015625,-0.08616787889003753,0.008969269201532007,-0.028398247091751545
1783003424514255000,4.563255126953125,-0.0743488462805748,-0.00669310443047434,-0.021769202607125043
1783003424524307000,4.573306884765625,-0.08064122442305087,-0.02599862033780664,-0.007600309802731499
1783003424534358000,4.58335791015625,-0.08334054650962353,-0.04342000299897045,0.0016813315499108283
1783003424544409000,4.5934091796875,-0.08080196794271469,-0.036296982718631625,0.007959142310917378
1783003424554460200,4.603460205078125,-0.08559212482869624,-0.017820501513965428,0.02163184909620322
1783003424564511000,4.613510986328125,-0.0742132372021675,0.002106580357812345,0.022127532791811972
1783003424574562000,4.62356201171875,-0.07914718647301197,0.015660400870628654,0.017848659029370172
1783003424584614100,4.6336142578125,-0.08333002511560916,0.02028944891076535,0.005975028422148898
1783003424594665000,4.6436650390625,-0.08676584478318691,-0.0004923866268247366,-0.017697066930541766
1783003424604716000,4.653716064453125,-0.07913608055710793,-0.009399550377577543,-0.029333144188532605
1783003424614767000,4.66376708984375,-0.06970365082323551,-0.01539999636877328,-0.03117838846272789
1783003424624818200,4.673818115234375,-0.07374561969041823,-0.010850808631815015,-0.025304500593803823
1783003424634868700,4.68386865234375,-0.08048398803472519,0.0034475831706076857,-0.005271738991001621
1783003424644921000,4.693921142578125,-0.08362287058234215,0.004240633244439959,0.004156142431916669
1783003424654972200,4.70397216796875,-0.0827267985254526,-0.00036061347331851716,0.024025484500778838
1783003424665023000,4.71402294921875,-0.08377192366421223,-0.012667173871397971,0.026654764425288885
1783003424675073800,4.72407373046875,-0.07943477124273776,-0.013336341837234793,0.003652677288651466
1783003424685124900,4.734124755859375,-0.07852817779183387,-0.016974077285081147,0.004420656853308901
1783003424695177000,4.744177001953125,-0.07627367686331271,-0.025630335014685986,-0.0008088595643173902
1783003424705227800,4.754227783203125,-0.0708849695622921,-0.015607099780812858,-0.03299947554320097
1783003424715278800,4.76427880859375,-0.0734293933480978,-0.009786978792585431,-0.02430474896673113
1783003424725330000,4.774329833984375,-0.08540449330210685,-0.00483282698392868,-0.02477874142033979
1783003424735381000,4.784381103515625,-0.07807634237110614,0.004231098231114447,-0.005145948053710162
1783003424745431800,4.794431884765625,-0.06595628098845481,0.010953428756073117,0.00437440655878745
1783003424755484000,4.80448388671875,-0.07523381242156028,-0.00012870441358536481,0.011518652290245518
1783003424765535000,4.814534912109375,-0.0767272658497095,-0.00936604996677488,0.012602803398296235
1783003424775585800,4.824585693359375,-0.08256254787445068,-0.022522870518639684,0.020298828660463914
1783003424785636900,4.834636962890625,-0.07298281862437725,-0.03172803083527833,0.013904844173882156
1783003424795688000,4.84468798828125,-0.07163491114675999,-0.020947584025934336,0.008324970815470442
1783003424805739000,4.854739013671875,-0.08390519465506076,-0.00939973304066807,-0.00040026049711741504
1783003424815790800,4.864790771484375,-0.07208557752370834,-0.0013875453682616352,-0.011767329821689054
1783003424825842000,4.874842041015625,-0.0738818132907152,0.001932064041122794,-0.016831837536487728
1783003424835893000,4.88489306640625,-0.08316109828948974,-0.0043120910454541445,-0.007122125231195241
1783003424845943800,4.89494384765625,-0.08241407931447028,-0.006231807061657309,-0.004187478285096586
1783003424855995000,4.904994873046875,-0.07673135750293732,-0.002280329489521682,-0.010269054087949916
1783003424866047000,4.915046875,-0.07613806778490544,-0.0010894757371395826,-0.004593894528364763
1783003424876097800,4.925097900390625,-0.07719137623012065,0.005064407250098883,0.0029144718077499417
1783003424886148900,4.93514892578125,-0.07510404856204986,0.0033332360759377477,0.017883264551870524
1783003424896200000,4.945199951171875,-0.08468143972456454,-0.014293423366360365,0.008968876475887372
1783003424906251000,4.9552509765625,-0.07839899845421314,-0.02678692117128521,0.013491769860964268
1783003424916302000,4.965302001953125,-0.07465045957565307,-0.03419960858058184,0.008799766986677423
1783003424926354000,4.97535400390625,-0.07285656189620494,-0.022771109658665953,0.004813683892041444
1783003424936405000,4.985405029296875,-0.07479600552618502,-0.0013161240998655556,-0.009047503803204744
1783003424946456000,4.9954560546875,-0.07134966446459293,0.006519757157564162,-0.0155216499870643
1783003424956507000,5.0055068359375,-0.0780868637651205,0.0058110243663191796,-0.011485298009915277
1783003424966558000,5.015557861328125,-0.08198562476933002,0.004456175691261887,-0.0020971549423411486
1783003424976609000,5.025609130859375,-0.07555237685143947,-0.005442154521308839,0.0011482293202076106
1783003424986660900,5.035660888671875,-0.07675590742230415,-0.010670483628846704,-0.00219258727398701
1783003424996712000,5.0457119140625,-0.07750994065999985,-0.01682268611565232,0.005911361201945692
1783003425006763000,5.055762939453125,-0.07900923930704593,-0.011352511076256632,0.0021804127790033814
1783003425016814000,5.06581396484375,-0.07421440624594688,-0.010302709762379526,-0.0020668602687772364
1783003425026865000,5.075864990234375,-0.06672083562016487,-0.005962598198838532,0.006091951066395268
1783003425036917000,5.0859169921875,-0.07374503516852855,0.013440423266217113,-0.00587300195293501
1783003425046968000,5.095968017578125,-0.07239771221280097,-0.0018419380722567438,-0.004939511361951008
1783003425057019000,5.106018798828125,-0.07120061138272285,-0.009659626085869967,0.00014788403809070586
1783003425067070000,5.116070068359375,-0.07465162861943245,-0.0176819332934916,-0.0017020820769947022
1783003425077121000,5.12612109375,-0.08034078017175197,-0.022698592411726712,0.004266544003831222
1783003425087172000,5.136172119140625,-0.08453764733970165,-0.010804083413258194,0.005564885851833969
1783003425097224000,5.146223876953125,-0.06778291189372539,-0.014689181218296288,0.009836873215762898
1783003425107275000,5.15627490234375,-0.07840659723877906,-0.01142027908284217,0.005935874588694423
1783003425117326000,5.166326171875,-0.0818470930814743,-0.004596826270967721,0.009451709823077544
1783003425127377200,5.176377197265625,-0.07989888162314891,-0.000161656835116446,-0.0031738807957619425
1783003425137428000,5.186427978515625,-0.08078735489547252,0.0014377046529203653,0.0016443696735426784
1783003425147480000,5.19647998046875,-0.07449789936244487,-0.0044960693102329965,-0.006895038477052003
1783003425157531100,5.20653125,-0.07823474780321121,0.0029005437470972536,-0.01590634758886881
1783003425167582000,5.21658203125,-0.07135550968348979,-0.0019334888132289051,-0.01687310112863779
1783003425177633000,5.226633056640625,-0.06762450646162033,-0.013842610858939588,-0.017805313077988102
1783003425187684000,5.23668408203125,-0.07780687777996063,-0.01695087907258421,-0.008301297678938136
1783003425197735200,5.246735107421875,-0.07930500738322735,-0.008998677959106862,0.0055222522865049535
1783003425207787000,5.256787109375,-0.08170213165283202,0.013955240920558571,0.02103915303321555
1783003425217838000,5.266838134765625,-0.08169803999960422,0.030951347374357282,0.015243344502337277
1783003425227889200,5.27688916015625,-0.08423778761029244,0.015892821387015282,0.006303109599044546
1783003425237940000,5.28693994140625,-0.0650853433728218,-0.014442622578702866,-0.011643539045238866
1783003425247991000,5.296990966796875,-0.08065057677328587,-0.0402751656346023,-0.00736325877700001
1783003425258041900,5.307041748046875,-0.08274784131348133,-0.05504709323290735,-0.01569665036094375
1783003425268094000,5.317093994140625,-0.08319792316854,-0.05052486656811088,-0.003684634196339175
1783003425278145000,5.32714501953125,-0.08065116129517555,-0.02305482197087258,0.0072529576697852455
1783003425288196000,5.337196044921875,-0.0677782357186079,0.0031757439592853187,0.01090203649555333
1783003425298247000,5.347246826171875,-0.0746668261885643,0.015308555225655435,0.018297389177558944
1783003425308298000,5.357298095703125,-0.08304360938966274,0.024223865750245748,0.015352147772209718
1783003425318350000,5.36735009765625,-0.079607789722085,0.008865954957529901,-0.0025885095227044072
1783003425328401000,5.37740087890625,-0.07646890717446804,0.004219225130230188,-0.02034812029544264
1783003425338452000,5.387451904296875,-0.0843961930423975,-0.0055415232425555586,-0.025070682704774663
1783003425348502800,5.397502685546875,-0.07272738255858421,-0.0063362903494387866,-0.028758796632988377
1783003425358553900,5.407553955078125,-0.07826806555092335,-0.007889547673426568,-0.021190900395670904
1783003425368605000,5.41760498046875,-0.07857201693356036,-0.014404774786345659,-0.01094362888126634
1783003425378656800,5.42765673828125,-0.07034253324866295,-0.009803089677169918,0.006992306572757661
1783003425388707800,5.437707763671875,-0.08276186983883381,-0.009355053648725152,0.02349403537204489
1783003425398759000,5.447759033203125,-0.07542436655759811,-0.027290596377104518,0.030743284981092436
1783003425408810000,5.45781005859375,-0.08515256436765194,-0.03335132118817419,0.02427800709027797
1783003425418860800,5.46786083984375,-0.0754296272546053,-0.01880750325731933,0.01814326719492674
1783003425428913000,5.477912841796875,-0.07752221561968325,0.003447656235843897,0.009377493809396401
1783003425438964000,5.4879638671875,-0.07676701333820819,0.02084923821799457,-0.006926639191713184
1783003425449014800,5.498014892578125,-0.07721124997437,0.03753047003634274,-0.03274067847654223
1783003425459065900,5.50806591796875,0.2715945889115333,0.05757913246117532,0.02302619866458699
1783003425469117000,5.518116943359375,-0.27492051846385,0.04978540984503924,-0.3207508705401793
1783003425479168000,5.52816796875,-0.3331482510268688,-0.10545202321577817,0.31409685601107773
1783003425489219800,5.5382197265625,-0.06788871035575866,-0.10253401687722652,-0.200519613202475
1783003425499271000,5.54827099609375,0.1440875684171915,0.07416406429819762,0.048883912694361056
1783003425509322000,5.558322021484375,-0.26645897958874704,-0.09833791689425707,0.12327266172706149
1783003425519373000,5.568373046875,-0.026173136654496193,0.01898194650877267,-0.027988880839571354
1783003425529424000,5.578423828125,-0.10948094993829727,-0.021811324715800582,0.1004378757150378
1783003425539476000,5.58847607421875,-0.061601008388400075,0.02284534393865615,-0.05189319577924907
1783003425549527000,5.598527099609375,-0.10285948597192764,0.04359039112981409,0.03000014759674668
1783003425559577900,5.608577880859375,-0.26971184390485287,0.012636559537425637,-0.033033030752930785
1783003425569629000,5.61862890625,-0.18918986194729803,-0.05917323325220495,0.05931556433234363
1783003425579680000,5.628679931640625,-0.016393500918149947,0.005385419365391135,-0.0903249255042523
