time,seconds_elapsed,z,y,x
1783003420031427300,0.08042724609375,0.002371683716773987,-0.001615446526557207,-0.003265438601374626
1783003420041478400,0.090478515625,0.00142597034573555,-0.006607011891901493,-0.00330450851470232
1783003420051529500,0.100529541015625,0.0014360903296619654,-0.002309734933078289,-0.0010085972025990486
1783003420061580500,0.11058056640625,0.00002260832116007805,0.0022968812845647335,0.0034130625426769257
1783003420071631400,0.12063134765625,-0.001547857653349638,0.005220766179263592,-0.0004804786294698715
1783003420081683500,0.130683349609375,-0.002336929552257061,-0.00011995015665888786,-0.00128480838611722
1783003420091734500,0.140734619140625,-0.00027218088507652283,-0.004918167367577553,-0.0011303448118269444
1783003420101785300,0.150785400390625,-0.0011593434028327465,-0.0017414959147572517,-0.0009504416957497597
1783003420111836400,0.16083642578125,-0.0008493517525494099,0.002563237678259611,0.0017100563272833824
1783003420121887500,0.170887451171875,-0.0010628546588122845,0.0027940534055233,0.00028056930750608444
1783003420131938600,0.1809384765625,-0.0010458105243742466,0.0007663224823772907,-0.0011516790837049484
1783003420141990400,0.190990478515625,-0.0016742153093218803,-0.0009059826843440533,-0.00032762717455625534
1783003420152041500,0.20104150390625,-0.00032825395464897156,-0.0006002518348395824,0.00024841446429491043
1783003420162092500,0.211092529296875,-0.0025914316065609455,0.001592076849192381,-0.0005952185019850731
1783003420172143400,0.221143310546875,-0.000596191268414259,0.0030357763171195984,-0.0009970897808670998
1783003420182194400,0.2311943359375,-0.0006300085224211216,0.0011169807985424995,0.0017171772196888924
1783003420192246500,0.24124658203125,0.0009106299839913845,-0.0012175461743026972,-0.0020975349470973015
1783003420202297300,0.25129736328125,0.0000570821575820446,-0.0024287637788802385,-0.00040533533319830894
1783003420212348400,0.261348388671875,0.003244885941967368,-0.0008692166302353144,0.00010439381003379822
1783003420222399500,0.2713994140625,0.0019184069242328405,0.0032288157381117344,-0.0009726723656058311
1783003420232450600,0.281450439453125,-0.00020173564553260803,0.0021270657889544964,0.0009274929761886597
1783003420242502400,0.29150244140625,-0.0008389013819396496,-0.000018217600882053375,-0.00017187278717756271
1783003420252553500,0.301553466796875,-0.0016343877650797367,-0.0003138282336294651,-0.001751926727592945
1783003420262604500,0.3116044921875,-0.0014127339236438274,0.00039288075640797615,-0.0008947965689003468
1783003420272655400,0.3216552734375,0.0005867672152817249,0.0027090320363640785,0.0007571624591946602
1783003420282706400,0.33170654296875,0.0003931964747607708,0.0037614735774695873,0.0012167403474450111
1783003420292758500,0.341758544921875,-0.00004542618989944458,0.002554795239120722,0.0008678659796714783
1783003420302809600,0.3518095703125,-0.0004994315095245838,0.0004713512025773525,-0.00019620545208454132
1783003420312860400,0.3618603515625,0.0005389351863414049,-0.0030152592808008194,-0.002231926191598177
1783003420322911500,0.371911376953125,-0.0003346456214785576,-0.0037901862524449825,0.0013269949704408646
1783003420332962600,0.381962646484375,-0.0003215959295630455,-0.0026471572928130627,-0.0010727792978286743
1783003420343013600,0.392013671875,-0.002709551714360714,0.0006832857616245747,-0.0015161260962486267
1783003420353065500,0.4020654296875,-0.00011323578655719757,-0.0017985140439122915,-0.00013767369091510773
1783003420363116500,0.412116455078125,0.001693130237981677,0.0013475585728883743,0.0012397998943924904
1783003420373167600,0.422167724609375,0.0003349180333316326,0.003060503862798214,0.001568167470395565
1783003420383218400,0.432218505859375,0.00009627221152186394,0.005399824120104313,0.003245508298277855
1783003420393269500,0.44226953125,0.0013058797921985388,0.003241598606109619,0.0013229725882411003
1783003420403321600,0.452321533203125,0.0008957707323133945,-0.0009126916993409395,-0.0007018567994236946
1783003420413372400,0.462372314453125,0.00008830009028315544,-0.0026322947815060616,-0.0006603114306926727
1783003420423423500,0.472423583984375,0.0016485510859638453,0.0003012954257428646,-0.002911047078669071
1783003420433474600,0.482474609375,0.0001457291655242443,-0.0012670403812080622,0.00030711665749549866
1783003420443525600,0.492525634765625,-0.0005372893065214157,0.0022107018157839775,-0.0026771225966513157
1783003420453577500,0.502577392578125,0.00022650533355772495,0.0022221533581614494,0.00006912928074598312
1783003420463628500,0.512628662109375,0.0008437142241746187,-0.00017008185386657715,-0.001318125519901514
1783003420473679600,0.5226796875,-0.0015608537942171097,-0.0010872746352106333,0.0017751362174749374
1783003420483730400,0.53273046875,-0.0014503910206258297,0.0015362706035375595,0.0001238211989402771
1783003420493781500,0.542781494140625,-0.00016461685299873352,0.001150378491729498,0.000573095865547657
1783003420503833600,0.55283349609375,0.001265835715457797,0.0034683533012866974,-0.0031102225184440613
1783003420513884700,0.562884765625,0.001456251833587885,-0.0005801846273243427,-0.0009003314189612865
1783003420523935500,0.572935546875,-0.0014918027445673943,-0.0015885697212070227,-0.0005089263431727886
1783003420533986600,0.582986572265625,0.0013061144854873419,-0.00041677895933389664,-0.0024599581956863403
1783003420544037600,0.59303759765625,0.00006875861436128616,-0.00037622544914484024,-0.0015879604034125805
1783003420554089500,0.60308935546875,-0.0008188728243112564,0.00014735199511051178,0.0009276615455746651
1783003420564140500,0.613140625,-0.0029631718061864376,0.0013589588925242424,0.002130168490111828
1783003420574191600,0.623191650390625,0.00024433969520032406,0.0009096837602555752,0.0007613031193614006
1783003420584242700,0.63324267578125,0.001412893645465374,0.0008404809050261974,0.00035765208303928375
1783003420594293200,0.643293212890625,-0.0014124540612101555,0.00019466457888484,0.00033128634095191956
1783003420604344300,0.65334423828125,0.002384491730481386,-0.0003181430511176586,0.004038060083985329
1783003420614396700,0.663396728515625,0.0012960578314960003,0.0008272822014987469,0.000846528448164463
1783003420624447500,0.673447509765625,0.000630716560408473,0.00029370514675974846,0.00010044034570455551
1783003420634498300,0.683498291015625,0.0004200604744255543,-0.001530826324597001,0.000463961623609066
1783003420644549400,0.69354931640625,0.00043728318996727467,0.0014437162317335606,-0.0021269256249070168
1783003420654600400,0.703600341796875,-0.0003161248750984669,-0.000016761478036642075,0.001360483467578888
1783003420664652500,0.713652587890625,-0.001689788419753313,-0.00030360836535692215,0.0000029653310775756836
1783003420674703400,0.723703369140625,0.001465524546802044,-0.0005470213945955038,0.000875948928296566
1783003420684754400,0.73375439453125,0.0016031875275075436,-0.0013100039213895798,-0.00034159375354647636
1783003420694805500,0.743805419921875,-0.0026695881970226765,-0.002600837964564562,0.004036642611026764
1783003420704856300,0.753856201171875,-0.0010826517827808857,-0.0015826718881726265,0.003458022139966488
1783003420714907400,0.763907470703125,-0.0004839729517698288,-0.001483069732785225,0.00020124204456806183
1783003420724959500,0.77395947265625,0.00195377878844738,0.0016257315874099731,0.0006890902295708656
1783003420735010300,0.78401025390625,0.0014704149216413498,0.0009796489030122757,-0.0003559337928891182
1783003420745061400,0.794061279296875,-0.0006442833691835403,-0.0013033435679972172,-0.002050459384918213
1783003420755112400,0.804112548828125,0.00027317553758621216,0.00032731005921959877,0.0019474783912301064
1783003420765163500,0.81416357421875,0.00009668385609984398,-0.00039802445098757744,0.0013053352013230324
1783003420775215400,0.82421533203125,0.0019790062215179205,0.0008715041913092136,-0.0013943114317953587
1783003420785266400,0.834266357421875,-0.0005818228237330914,0.0007738657295703888,0.0016155336052179337
1783003420795317500,0.8443173828125,-0.00010005664080381393,0.0001405659131705761,0.0016405675560235977
1783003420805368300,0.854368408203125,0.001697836210951209,-0.0007240790873765945,-0.0010359873995184898
1783003420815419400,0.86441943359375,-0.0015099411830306053,0.0007672910578548908,0.00012328661978244781
1783003420825471500,0.874471435546875,-0.0013012578710913658,-0.00111881154589355,-0.003987282980233431
1783003420835522300,0.884522216796875,-0.0009973910637199879,0.000368297565728426,-0.0014295829460024834
1783003420845573400,0.894573486328125,-0.00013079587370157242,-0.0008546449244022369,-0.001529039815068245
1783003420855624400,0.90462451171875,-0.0020767678506672382,-0.001134276855736971,-0.0014560692943632603
1783003420865675500,0.914675537109375,-0.0015783747658133507,-0.0014796322211623192,0.0008259909227490425
1783003420875727400,0.924727294921875,0.001306627644225955,-0.0026953653432428837,-0.0022134752944111824
1783003420885778400,0.9347783203125,-0.002725937869399786,-0.0004297266714274883,-0.004011874552816153
1783003420895829500,0.94482958984375,0.00009541492909193039,-0.00048325606621801853,-0.0009287330321967602
1783003420905880600,0.954880615234375,-0.001026383601129055,0.0020704036578536034,-0.0007955622859299183
1783003420915931600,0.964931640625,0.00072650914080441,-0.00009874114766716957,-0.0018264721147716045
1783003420925982500,0.974982421875,0.0019134539179503918,0.0001767524518072605,0.0009016124531626701
1783003420936034600,0.98503466796875,-0.0006274683400988579,-0.0014280686154961586,0.0014211945235729218
1783003420946085600,0.995085693359375,-0.0011161086149513721,0.00041633984073996544,0.000978291966021061
1783003420956136700,1.00513671875,-0.002703618723899126,-0.0000851331278681755,-0.0034356308169662952
1783003420966187500,1.0151875,0.0008294978179037571,-0.0023063435219228268,-0.0010712849907577038
1783003420976238600,1.025238525390625,-0.0010733306407928467,-0.0008519911207258701,-0.0004297294653952122
1783003420986290700,1.035290771484375,-0.00012279022485017776,-0.0022709746845066547,0.0003178361803293228
1783003420996341800,1.045341796875,-0.002955594565719366,-0.0007883929647505283,-0.0021181567572057247
1783003421006392600,1.055392578125,-0.00003051944077014923,-0.002267032628878951,-0.0036986740306019783
1783003421016443400,1.065443359375,-0.0036867735907435417,0.0015974803827703,0.0008960776031017303
1783003421026494500,1.075494384765625,-0.0005192267708480358,0.003006658051162958,0.0003037974238395691
1783003421036546800,1.085546875,-0.0006294813938438892,0.0020567085593938828,-0.0011481582187116146
1783003421046597400,1.095597412109375,0.0009999934118241072,0.00046504009515047073,-0.0012573893181979656
1783003421056648400,1.1056484375,0.0023635318502783775,0.0021399022080004215,-0.0004251515492796898
1783003421066699500,1.115699462890625,0.00024423282593488693,0.001136130653321743,0.0027705561369657516
1783003421076750600,1.12575048828125,-0.0015768366865813732,-0.0010809509549289942,-0.00030646007508039474
1783003421086802400,1.135802490234375,0.00012209918349981308,-0.0013685545418411493,-0.003232752438634634
1783003421096853500,1.145853515625,-0.0010771220549941063,-0.0015200884081423283,-0.0003733164630830288
1783003421106904600,1.155904541015625,0.0006687168497592211,-0.0012214321177452803,-0.0010278322733938694
1783003421116955400,1.165955322265625,-0.00027084629982709885,0.002529629971832037,0.0003519514575600624
1783003421127006500,1.17600634765625,-0.0015638228505849838,0.001740266103297472,-0.001533635426312685
1783003421137057500,1.1860576171875,0.0015118620358407497,0.0009330618195235729,-0.0012337635271251202
1783003421147109600,1.196109619140625,-0.0018493067473173141,0.0006681154482066631,0.00041147973388433456
1783003421157160400,1.206160400390625,0.001319055911153555,0.000974379014223814,0.0014413241297006607
1783003421167211500,1.21621142578125,-0.00006781704723834991,0.0011761276982724667,-0.00007797218859195709
1783003421177262600,1.2262626953125,0.0009827998001128435,-0.001563466154038906,-0.0029760245233774185
1783003421187313700,1.236313720703125,-0.0009235166944563389,-0.0013052469585090876,0.001913570798933506
1783003421197365500,1.246365478515625,0.001518868375569582,-0.0006719473749399185,-0.0005762181244790554
1783003421207416600,1.25641650390625,0.0011066559236496687,-0.001389702083542943,-0.0007824422791600227
1783003421217467600,1.266467529296875,0.00200973404571414,-0.0006826326716691256,-0.0014104153960943222
1783003421227518500,1.2765185546875,-0.0003267093561589718,-0.0009896473493427038,-0.0026351306587457657
1783003421237569500,1.286569580078125,-0.00031126290559768677,0.001893757376819849,-0.001264668069779873
1783003421247620600,1.29662060546875,-0.0014892257750034332,0.0005648871883749962,0.0008543515577912331
1783003421257672400,1.30667236328125,-0.001060456968843937,0.002399272285401821,0.00028097350150346756
1783003421267723500,1.3167236328125,-0.00013287179172039032,-0.00011815503239631653,0.002066994085907936
1783003421277774600,1.326774658203125,0.0001555485650897026,0.0016334056854248047,-0.001317883376032114
1783003421287825700,1.33682568359375,-0.0014491998590528965,-0.0005769713316112757,-0.003934874199330807
1783003421297876500,1.34687646484375,0.0019785547628998756,-0.0008779086638242006,-0.0006623817607760429
1783003421307928600,1.356928466796875,-0.00043237069621682167,-0.003116345265880227,0.00028857868164777756
1783003421317979600,1.366979736328125,-0.0006496845744550228,-0.0022454916033893824,-0.0017023999243974686
1783003421328030500,1.377030517578125,-0.001356770284473896,-0.001055832952260971,-0.0014554993249475956
1783003421338081500,1.38708154296875,-0.001950389239937067,0.00021742423996329308,-0.0008349823765456676
1783003421348132600,1.397132568359375,-0.0011163507588207722,0.0022373925894498825,0.0012120259925723076
1783003421358184700,1.407184814453125,-0.0003315173089504242,0.000291687436401844,-0.0005469922907650471
1783003421368235500,1.417235595703125,-0.0013217665255069733,-0.00008520437404513359,-0.0007139951921999454
1783003421378286600,1.42728662109375,0.0019110448192805052,-0.0007589838933199644,-0.0005158558487892151
1783003421388337700,1.437337646484375,-0.0009202687069773674,0.0014171521179378033,-0.000032491981983184814
1783003421398388700,1.447388671875,0.00006723124533891678,0.001232595182955265,-0.00039947545155882835
1783003421408439600,1.457439453125,0.0008360149804502726,0.0002254890277981758,-0.0008125621825456619
1783003421418491600,1.46749169921875,0.00022242264822125435,-0.00009808503091335297,-0.001335606910288334
1783003421428542700,1.477542724609375,-0.0014845198020339012,-0.003780570114031434,0.00009502097964286804
1783003421438593500,1.487593505859375,0.00024626869708299637,-0.000475054606795311,0.0003962237387895584
1783003421448644600,1.49764453125,0.0014423623215407133,0.00045549822971224785,-0.000992659479379654
1783003421458695700,1.50769580078125,-0.0012128092348575592,0.0007780068553984165,-0.0018334193155169487
1783003421468747500,1.51774755859375,0.0034078811295330524,0.0005199615843594074,0.002221568487584591
1783003421478798600,1.527798583984375,0.0021356891375035048,0.0011215698905289173,-0.0007542474195361137
1783003421488849700,1.537849609375,0.0002053370699286461,0.00007637962698936462,-0.0016543040983378887
1783003421498900700,1.547900634765625,-0.00037523219361901283,0.00007930910214781761,-0.002715574111789465
1783003421508951600,1.55795166015625,0.00039506983011960983,0.00254440912976861,-0.0011411630548536777
1783003421519002600,1.568002685546875,-0.00030534155666828156,0.0021782242693006992,-0.0015701986849308014
1783003421529054700,1.5780546875,-0.0022312942892313004,0.0000873650424182415,-0.0005485322326421738
1783003421539105500,1.58810546875,0.0008201554883271456,-0.0014554040972143412,0.0009830519556999207
1783003421549156600,1.598156494140625,0.00040804012678563595,0.0005287709645926952,-0.00029261549934744835
1783003421559207700,1.608207763671875,0.0010882115457206964,-0.0022947124671190977,-0.002031126990914345
1783003421569258800,1.6182587890625,0.0012254135217517614,0.00005558086559176445,0.0028767315670847893
1783003421579310600,1.628310546875,0.0034898994490504265,-0.002259771339595318,-0.0010120165534317493
1783003421589361700,1.638361572265625,0.0008836847264319658,-0.0005722770001739264,-0.0008157370612025261
1783003421599412700,1.648412841796875,-0.014751999638974667,0.05344115570187569,0.028307795524597168
1783003421609463800,1.6584638671875,0.016036557033658028,0.04839684069156647,0.012823081575334072
1783003421619514600,1.6685146484375,-0.00921713374555111,-0.03673456609249115,-0.010999692603945732
1783003421629566700,1.678566650390625,0.006345822475850582,-0.0217279065400362,-0.00655881455168128
1783003421639617800,1.68861767578125,-0.003969132900238037,0.02648436278104782,0.009843593463301659
1783003421649668600,1.698668701171875,0.006630330812186003,-0.011107034981250763,-0.008053283207118511
1783003421659719700,1.7087197265625,-0.0021146913059055805,-0.05780103802680969,-0.02487114444375038
1783003421669770500,1.7187705078125,0.000011144205927848816,-0.04101870208978653,-0.015441087074577808
1783003421679821600,1.728821533203125,0.0027712443843483925,0.00973901990801096,0.0022015562281012535
1783003421689873700,1.738873779296875,-0.0015751761384308338,0.04197912663221359,0.017903301864862442
1783003421699924700,1.7489248046875,0.00206589768640697,0.027119219303131104,0.01346141379326582
1783003421709975600,1.7589755859375,-0.00018956931307911873,-0.01507079228758812,-0.00519956648349762
1783003421720026400,1.7690263671875,-0.000356283038854599,-0.036935076117515564,-0.014336072839796543
1783003421730077400,1.779077392578125,-0.0027420897968113422,-0.01473749615252018,-0.008626213297247887
1783003421740129800,1.7891298828125,-0.0007790741510689259,0.016052640974521637,0.004112484864890575
1783003421750180600,1.7991806640625,-0.00038881460204720497,0.028563009575009346,0.012915338389575481
1783003421760231400,1.8092314453125,-0.0021630125120282173,0.014355313032865524,0.004887772724032402
1783003421770282500,1.819282470703125,0.0007790920790284872,-0.01501389965415001,-0.004615643993020058
1783003421780333600,1.82933349609375,-0.0008142772130668163,-0.021080048754811287,-0.007864966988563538
1783003421790384600,1.839384521484375,-0.00016770372167229652,-0.0046203406527638435,-0.0029713232070207596
1783003421800436500,1.8494365234375,-0.0014585377648472786,0.011228397488594055,0.003850364126265049
1783003421810487600,1.859487548828125,0.0010085564572364092,0.012964574620127678,0.005521873943507671
1783003421820538600,1.86953857421875,0.00038457801565527916,0.00023626349866390228,-0.002533655147999525
1783003421830589400,1.87958935546875,0.0012697125785052776,-0.009794160723686218,-0.0030277431942522526
1783003421840640500,1.889640625,-0.00047039706259965897,-0.008835423737764359,-0.003154243342578411
1783003421850692600,1.899692626953125,0.002517901360988617,0.005704687442630529,0.0018882406875491142
1783003421860743400,1.909743408203125,-0.001700012944638729,0.01197856292128563,0.004021698608994484
1783003421870794500,1.91979443359375,-0.00020078476518392563,0.0067506213672459126,0.00217614509165287
1783003421880845600,1.929845458984375,-0.0004074461758136749,-0.0048674182035028934,0.0006149997934699059
1783003421890896600,1.939896728515625,-0.0005765822716057301,-0.007852272130548954,-0.0024710120633244514
1783003421900948500,1.949948486328125,-0.0011997618712484837,-0.003629297949373722,-0.004658532794564962
1783003421910999600,1.95999951171875,0.0002629547379910946,0.0022095851600170135,0.0024550752714276314
1783003421921050000,1.970050048828125,0.00011514918878674507,0.006695946678519249,0.001915784552693367
1783003421931101200,1.98010107421875,-0.0015519480220973492,0.000035340432077646255,0.0010925177484750748
1783003421941152000,1.990152099609375,-0.0015013478696346283,-0.002666170010343194,-0.0020007435232400894
1783003421951203000,2.000203125,-0.0003191879950463772,-0.0031862608157098293,-0.002228683326393366
1783003421961255200,2.010255126953125,-0.003264377824962139,0.00026439689099788666,0.002123987302184105
1783003421971306000,2.020305908203125,0.003137577325105667,0.004793127533048391,0.0008486257866024971
1783003421981357000,2.030357177734375,0.001073361374437809,0.0004348643124103546,0.002967436797916889
1783003421991408000,2.040408203125,-0.000051291659474372864,-0.0007049685809761286,-0.0005798935890197754
1783003422001459200,2.050459228515625,0.00009305169805884361,-0.001249851193279028,-0.004174095578491688
1783003422011511000,2.060510986328125,-0.0003494308330118656,-0.003691858146339655,-0.0006730873137712479
1783003422021562000,2.07056201171875,-0.0010820664465427399,0.0026003927923738956,0.0028864936903119087
1783003422031613200,2.08061328125,-0.0000230385921895504,-0.0005209576338529587,0.000011273659765720367
1783003422041664000,2.0906640625,-0.002573281992226839,-0.0025191274471580982,-0.000263032503426075
1783003422051715000,2.100715087890625,-0.0005551795475184917,-0.0028173618484288454,-0.0017410027794539928
1783003422061766100,2.11076611328125,0.00014230236411094666,0.0004202430136501789,0.0009059133008122444
1783003422071818200,2.120818359375,-0.0009762905538082123,0.0006016590632498264,0.003162548877298832
1783003422081869000,2.130869140625,-0.0009227609261870384,0.0019529466517269611,-0.0008540302515029907
1783003422091920100,2.140920166015625,-0.0004059416241943836,0.0008164159953594208,-0.0014929934404790401
1783003422101971200,2.15097119140625,-0.0010224636644124985,0.00013304874300956726,-0.0003560902550816536
1783003422112022300,2.161022216796875,0.0012925812043249607,-0.0016462095081806183,0.0003620218485593796
1783003422122074000,2.17107421875,-0.00027921656146645546,0.00009469874203205109,0.0010336702689528465
1783003422132125200,2.181125244140625,-0.0005413130857050419,-0.0005164167378097773,-0.0004161088727414608
1783003422142176300,2.19117626953125,-0.0016481229104101658,0.0015011942014098167,0.000017986632883548737
1783003422152227000,2.20122705078125,-0.003672848455607891,-0.0025106819812208414,0.0001539355143904686
1783003422162278100,2.211278076171875,0.0011834262404590845,0.0014196112751960754,0.002074606716632843
1783003422172329200,2.2213291015625,0.0010884760413318872,0.0015324079431593418,0.0019734203815460205
1783003422182381000,2.231381103515625,0.001313513144850731,0.0016157650388777256,-0.0007203668355941772
1783003422192432000,2.24143212890625,0.0010306912008672953,0.0018021976575255394,-0.0007981602102518082
1783003422202483200,2.251483154296875,-0.00011100573465228081,0.0006945887580513954,0.000841015949845314
1783003422212534300,2.2615341796875,-0.000523535069078207,-0.0013240983244031668,0.003463192842900753
1783003422222585000,2.271585205078125,-0.0035938937216997147,0.00129645224660635,-0.0014223759062588215
1783003422232637200,2.28163720703125,-0.0018745153211057186,0.0006836187094449997,0.000785565935075283
1783003422242688300,2.291688232421875,0.0010642828419804573,-0.0027987307403236628,-0.0009457548148930073
1783003422252739000,2.301739013671875,-0.0015846723690629005,-0.0008515880908817053,-0.0003508743830025196
1783003422262790100,2.3117900390625,0.002175178611651063,-0.0008603765163570642,-0.0025232150219380856
1783003422272841000,2.321841064453125,-0.0018159169703722,0.0014942041598260403,0.0002074912190437317
1783003422282892000,2.33189208984375,-0.0005410616286098957,0.002433234825730324,-0.001693472731858492
1783003422292944100,2.341944091796875,0.0001355237327516079,0.0020249327644705772,-0.001672252081334591
1783003422302995200,2.3519951171875,0.0005267418455332518,0.0021562264300882816,0.005167278461158276
1783003422313046000,2.3620458984375,0.0002592585515230894,-0.00024232221767306328,0.0013374574482440948
1783003422323097000,2.37209716796875,-0.0036068521440029144,0.002061578445136547,-0.0006295531056821346
1783003422333148000,2.38214794921875,-0.0007241331040859222,0.0023014084435999393,-0.0003299340605735779
1783003422343200300,2.3922001953125,-0.00013877032324671745,0.0005469177849590778,-0.00048040272668004036
1783003422353251000,2.4022509765625,-0.002206055913120508,-0.0014207307249307632,0.002203068695962429
1783003422363302000,2.412302001953125,-0.0001799231395125389,-0.0012761210091412067,-0.00119033083319664
1783003422373353000,2.42235302734375,0.0029845235403627157,-0.0016567350830882788,0.0010980721563100815
1783003422383404000,2.432404052734375,-0.00063710892572999,-0.0014034684281796217,-0.00045188749209046364
1783003422393455900,2.442455810546875,-0.001471592579036951,-0.0012270938605070114,0.0018441025167703629
1783003422403507000,2.4525068359375,0.00007783481851220131,0.0002943701110780239,0.000015043653547763824
1783003422413558000,2.46255810546875,-0.00102130975574255,-0.00046781892888247967,0.00043005403131246567
1783003422423609000,2.472609130859375,-0.0024298555217683315,0.0035791201516985893,0.0007088864222168922
1783003422433660000,2.482659912109375,-0.00019440613687038422,0.00011543137952685356,0.0013831369578838348
1783003422443711000,2.4927109375,-0.0009201178327202797,-0.0011700764298439026,-0.002158334944397211
1783003422453763000,2.50276318359375,0.0006976884324103594,0.0023640990257263184,0.0030295737087726593
1783003422463814100,2.512814208984375,0.0013834524434059858,0.0007507558912038803,0.002863924950361252
1783003422473865000,2.522864990234375,-0.0004744487814605236,-0.0020146039314568043,-0.0019016200676560402
1783003422483916000,2.532916015625,-0.0008893692865967751,-0.0020862428937107325,0.0013823239132761955
1783003422493967000,2.542967041015625,-0.0007471204735338688,-0.0019988694693893194,-0.0019187377765774727
1783003422504019000,2.55301904296875,-0.001458983402699232,0.0019154446199536324,0.00010393280535936356
1783003422514070000,2.563070068359375,-0.0015818928368389606,0.0016407747752964497,0.0007658284157514572
1783003422524121000,2.57312109375,-0.00008066929876804352,-0.001143027562648058,-0.0009191534481942654
1783003422534172200,2.583172119140625,-0.00031725503504276276,0.0018399376422166824,0.0020002536475658417
1783003422544223000,2.593222900390625,0.000017504673451185226,0.0005469731986522675,-0.001975312829017639
1783003422554274000,2.603274169921875,0.0021064486354589462,-0.001445144647732377,0.0002550724893808365
1783003422564326100,2.613326171875,0.0014726163353770971,-0.00016682734712958336,0.0023887967690825462
1783003422574377000,2.623376953125,0.0020822975784540176,-0.001036698929965496,0.0007639182731509209
1783003422584428000,2.633427978515625,0.0006103685591369867,-0.0015339110977947712,0.001234232448041439
1783003422594479000,2.64347900390625,0.002328616799786687,0.0013859588652849197,-0.0033977548591792583
1783003422604530200,2.6535302734375,-0.0004168357700109482,-0.00024309707805514336,0.0009461278095841408
1783003422614581000,2.6635810546875,0.000009663868695497513,0.0007992456667125225,-0.001180943101644516
1783003422624633000,2.673633056640625,-0.0004302901215851307,-0.0006119636818766594,0.002693955786526203
1783003422634684200,2.68368408203125,0.00240190583281219,-0.001071602338925004,-0.001567070372402668
1783003422644735000,2.69373486328125,-0.0006921547465026379,-0.0005861080717295408,0.0008414927870035172
1783003422654786000,2.7037861328125,0.0016557027120143175,0.00029702531173825264,-0.0017033335752785206
1783003422664837000,2.713837158203125,-0.0006604483351111412,-0.001148538663983345,2.421438694000244e-8
1783003422674889000,2.723888916015625,0.0037312391214072704,-0.0008461743127554655,-0.0007273871451616287
1783003422684940000,2.73393994140625,-0.0015697828494012356,-0.0014970507472753525,-0.0032137143425643444
1783003422694991000,2.7439912109375,0.0006996637675911188,-0.0014675073325634003,-0.00017753615975379944
1783003422705042200,2.754042236328125,-0.0007040882483124733,0.0028638578951358795,-0.00015942659229040146
1783003422715093200,2.76409326171875,0.001475020544603467,0.001341597642749548,-0.00017697643488645554
1783003422725144000,2.77414404296875,-0.0014155744574964046,0.0016649053432047367,-0.0008148034103214741
1783003422735196200,2.784196044921875,0.00006854487583041191,0.0018308963626623154,0.0007162624970078468
1783003422745247200,2.794247314453125,-0.0003671483136713505,0.0003081010654568672,0.0020265374332666397
1783003422755298000,2.804298095703125,0.0005581923760473728,0.00037152180448174477,0.0008271075785160065
1783003422765349000,2.81434912109375,0.0015126692596822977,-0.0006077224388718605,0.0002196403220295906
1783003422775400200,2.824400146484375,0.0011219419538974762,0.0024855793453752995,-0.0009219711646437645
1783003422785452000,2.8344521484375,0.0002910359762609005,0.001534830778837204,-0.002111072652041912
1783003422795503000,2.844503173828125,0.000645011430606246,-0.000192269217222929,-0.0026999833062291145
1783003422805554200,2.85455419921875,-0.0009920336306095123,0.0003843051381409168,0.0011775791645050049
1783003422815605200,2.864605224609375,-0.001391624566167593,-0.0020347819663584232,-0.0013495390303432941
1783003422825656000,2.874656005859375,0.000993235968053341,0.0005594030953943729,0.002084873616695404
1783003422835707100,2.88470703125,0.0017320879269391298,-0.0008007846772670746,-0.0025686300359666348
1783003422845759200,2.89475927734375,-0.0003094910643994808,0.0005656830035150051,0.003065020777285099
1783003422855810000,2.90481005859375,0.001236415933817625,0.0013577709905803204,0.0008704196661710739
1783003422865861000,2.914861083984375,0.002628450281918049,-0.0013599847443401814,0.0007585668936371803
1783003422875912200,2.924912109375,-0.0007327757775783539,0.000274470541626215,-0.0005058236420154572
1783003422885963300,2.93496337890625,0.0008065311703830957,0.0003919159062206745,0.0006041815504431725
1783003422896015000,2.94501513671875,-0.0025670374743640423,-0.0007515386678278446,0.0002279318869113922
1783003422906066200,2.955066162109375,0.0012255702167749405,-0.001989375799894333,0.0008804062381386757
1783003422916117200,2.9651171875,0.002705174498260021,-0.0019978287164121866,-0.00022419821470975876
1783003422926172000,2.975171875,0.0015022247098386288,0.00016705505549907684,0.0009137708693742752
1783003422936223000,2.985222900390625,-0.0005632983520627022,-0.00019648252055048943,0.00026816222816705704
1783003422946274000,2.995274169921875,-0.0016115186735987663,-0.0003996817395091057,-0.0018410608172416687
1783003422956326100,3.005326171875,0.0013490840792655945,0.0003295019268989563,-0.002503564115613699
1783003422966377000,3.015376953125,0.00037383451126515865,-0.000022568274289369583,-0.0006955438293516636
1783003422976428000,3.025427978515625,-0.0014037746004760265,-0.002464188262820244,-0.0013601211830973625
1783003422986479000,3.03547900390625,0.00006069755181670189,0.0019854214042425156,0.00030541978776454926
1783003422996530200,3.0455302734375,0.0004094627220183611,0.0008994815871119499,0.0016872957348823547
1783003423006582000,3.05558203125,-0.0006390237249433994,-0.000016645994037389755,-0.001781737431883812
1783003423016633000,3.065633056640625,0.0014099287800490856,-0.0017153953667730093,0.000791843980550766
1783003423026684200,3.07568408203125,-0.00043990276753902435,0.0035360916517674923,0.0013798698782920837
1783003423036735000,3.08573486328125,-0.0022716824896633625,0.001627468504011631,0.0007109930738806725
1783003423046786000,3.0957861328125,-0.001318270806223154,-0.0005408769939094782,-0.00037238048389554024
1783003423056837000,3.105837158203125,0.003125819144770503,0.0008239457383751869,-0.0029499605298042297
1783003423066889000,3.115888916015625,-0.001991178374737501,0.00017573265358805656,-0.0025619380176067352
1783003423076940000,3.12593994140625,-0.0013473154976963997,-0.0030460888519883156,0.00004043523222208023
1783003423086991000,3.1359912109375,0.0003829400520771742,0.002137221395969391,0.0018162308260798454
1783003423097042200,3.146042236328125,0.002597393933683634,-0.000021609943360090256,-0.0001409631222486496
1783003423107093000,3.156093017578125,0.0008450341410934925,-0.001409915741533041,-0.0016690846532583237
1783003423117145000,3.16614501953125,0.00003772741183638573,0.00016733817756175995,-0.00305001949891448
1783003423127196200,3.176196044921875,0.0001596999354660511,-0.0000795368105173111,0.00028745364397764206
1783003423137247000,3.1862470703125,0.0010311114601790905,0.0056166816502809525,-0.002018369734287262
1783003423147298000,3.196298095703125,0.0002998076379299164,0.0018986421637237072,-0.0003011636435985565
1783003423157349000,3.20634912109375,0.0019755102694034576,0.00240140687674284,-0.00009645149111747742
1783003423167400200,3.216400146484375,0.00003779446706175804,-0.0002827928401529789,-0.0005619716830551624
1783003423177452000,3.2264521484375,0.0007670922204852104,-0.003240620717406273,-0.0003409162163734436
1783003423187503000,3.236503173828125,0.001304251840338111,-0.00028531113639473915,-0.0015233596786856651
1783003423197554200,3.24655419921875,-0.00041790539398789406,-0.00033684680238366127,-0.0012198444455862045
1783003423207605200,3.256605224609375,-0.0012733126059174538,0.000636538490653038,-0.0019663283601403236
1783003423217656000,3.266656005859375,-0.0005835541523993015,0.0012000631541013718,-0.00047282781451940536
1783003423227708200,3.276708251953125,0.001848710933700204,0.00015344098210334778,0.0015016403049230576
1783003423237759200,3.28675927734375,-0.0012822598218917847,0.0005014203488826752,0.00040738657116889954
1783003423247810000,3.29681005859375,-0.00030541233718395233,0.0009893113747239113,0.003107033669948578
1783003423257861000,3.306861083984375,0.00016978709027171135,0.0015372768975794315,0.0010892599821090698
1783003423267912200,3.316912109375,0.001019335351884365,0.002457665279507637,-0.00113687664270401
1783003423277963300,3.32696337890625,-0.0009375135414302349,-0.0014508303720504045,0.00044522248208522797
1783003423288015000,3.33701513671875,-0.00022511789575219154,-0.0021770743187516928,0.0009248582646250725
1783003423298066200,3.347066162109375,0.00159659911878407,-0.003808462992310524,0.0006105760112404823
1783003423308117200,3.3571171875,-0.002496679313480854,-0.0028997925110161304,0.00024652108550071716
1783003423318168000,3.36716796875,-0.0035670604556798935,-0.001726263202726841,-0.00024024862796068192
1783003423328219100,3.37721923828125,-0.0031201825477182865,-0.0004189172759652138,-0.004203032236546278
1783003423338271200,3.387271240234375,-0.0008896533399820328,0.0011077714152634144,-0.001398539636284113
1783003423348322000,3.397322021484375,-0.0014411937445402145,-0.0013127760030329227,-0.00019692163914442062
1783003423358373000,3.407373046875,-0.00022486038506031036,0.0007630600593984127,-0.002145129255950451
1783003423368424200,3.417424072265625,-0.0023769610561430454,0.002287187147885561,0.0018890267238020897
1783003423378475300,3.427475341796875,-0.0011182534508407116,0.002055163960903883,0.0004562819376587868
1783003423388526000,3.437526123046875,-0.00010092603042721748,0.0009787138551473618,0.0022911997511982918
1783003423398578200,3.447578125,0.00021954160183668137,-0.003775412915274501,0.00036556925624608994
1783003423408629200,3.457629150390625,-0.0000387849286198616,-0.0012632531579583883,-0.001009953673928976
1783003423418680000,3.46768017578125,0.0005247939843684435,-0.0018304171971976757,-0.00027729012072086334
1783003423428731100,3.477731201171875,-0.001041410956531763,0.000009560491889715195,-0.0003361459821462631
1783003423438782200,3.4877822265625,0.0006461117882281542,0.0008161677978932858,0.001082894392311573
1783003423448834300,3.497834228515625,0.000029323622584342957,-0.0006690772715955973,0.0024951687082648277
1783003423458885000,3.507885009765625,0.0016264368314296007,0.0002615656703710556,0.0010881777852773666
1783003423468936200,3.517936279296875,-0.00070143211632967,-0.0007549626752734184,0.002298584207892418
1783003423478987300,3.5279873046875,-0.0007404512725770473,0.00004097120836377144,0.0004419274628162384
1783003423489038300,3.538038330078125,0.001690482022240758,0.0010740114375948906,-0.0013325372710824013
1783003423499089200,3.548089111328125,0.002110906643792987,0.0009804102592170238,0.0009581251069903374
1783003423509141200,3.558141357421875,-0.0004356079734861851,0.0006174212321639061,-0.0015327297151088715
1783003423519192300,3.5681923828125,0.002297974657267332,-0.0013453573919832706,0.0010240878909826279
1783003423529243100,3.5782431640625,-0.0007311049848794937,-0.0014521500561386347,0.0008629662916064262
1783003423539294200,3.588294189453125,-0.0014550709165632725,-0.00047853123396635056,-0.00020049512386322021
1783003423549345000,3.598344970703125,-0.001288356725126505,-0.0025379539001733065,-0.0008982433937489986
1783003423559396000,3.60839599609375,-0.001613738015294075,-0.0005666392389684916,0.0008953092619776726
1783003423569448200,3.6184482421875,0.001524530816823244,0.0001787794753909111,-0.0013979384675621986
1783003423579499300,3.628499267578125,0.001048792153596878,0.0007670274935662746,-0.0010634432546794415
1783003423589550000,3.638550048828125,0.00008153216913342476,0.00035769958049058914,0.001203971914947033
1783003423599601200,3.64860107421875,-0.002122938632965088,0.0015229587443172932,0.0007605710998177528
1783003423609652000,3.65865185546875,0.0019833892583847046,-0.0005737477913498878,-0.0016682320274412632
1783003423619704300,3.668704345703125,-0.0005523129366338253,0.00032855523750185966,0.00047729723155498505
1783003423629755100,3.678755126953125,0.0014905978459864855,-0.0011630812659859657,-0.0031757610850036144
1783003423639806000,3.688805908203125,0.0006193688604980707,0.0006444896571338177,0.0006410703063011169
1783003423649857000,3.69885693359375,-0.00033404305577278137,0.00002796761691570282,-0.000505420845001936
1783003423659908000,3.708908203125,0.0016423605848103762,-0.005725136958062649,-0.0013907360844314098
1783003423669959200,3.718959228515625,-0.001883664634078741,-0.0012041546870023012,-0.0014583803713321686
1783003423680011000,3.729010986328125,0.0000775214284658432,-0.00008336175233125687,-0.0018276600167155266
1783003423690062000,3.73906201171875,-0.001203459221869707,-0.0009219911880791187,0.0016869129613041878
1783003423700113200,3.749113037109375,0.0015291566960513592,0.0005546421743929386,-0.0010135993361473083
1783003423710164000,3.7591640625,-0.0015933997929096222,0.0016468046233057976,-0.0006956178694963455
1783003423720215000,3.769215087890625,-0.00019859056919813156,-0.0006723648402839899,0.0018825279548764229
1783003423730266000,3.77926611328125,0.0008363137021660805,0.0009391140192747116,0.00016345735639333725
1783003423740318000,3.78931787109375,0.0032790089026093483,0.0009139897301793098,-0.0011949664913117886
1783003423750369000,3.799369140625,0.000033414456993341446,-0.0010431676637381315,-0.0008530165068805218
1783003423760420000,3.809420166015625,-0.0023760423064231873,-0.0017297386657446623,0.0013296417891979218
1783003423770471200,3.81947119140625,0.0006900553125888109,-0.0018328027799725533,-0.0007580104283988476
1783003423780522000,3.82952197265625,0.0005248270463198423,-0.0013365610502660275,-0.0018260166980326176
1783003423790574000,3.839573974609375,0.002034572884440422,0.000672527588903904,0.0007894737645983696
1783003423800625200,3.849625244140625,0.0007583317346870899,0.0011765481904149055,0.0010083261877298355
1783003423810676200,3.85967626953125,0.00006431201472878456,0.0034042824991047382,-0.0017270063981413841
1783003423820727000,3.86972705078125,-0.00009471457451581955,0.0008147959597408772,0.0012281257659196854
1783003423830778000,3.879778076171875,0.0015045139007270336,-0.002511225640773773,0.0001665893942117691
1783003423840829200,3.8898291015625,-0.00015510618686676025,-0.00023295124992728233,-0.0011265636421740055
1783003423850881000,3.899881103515625,-0.00018120510503649712,-0.0009698476642370224,0.0006268611177802086
1783003423860932000,3.90993212890625,0.00013568392023444176,-0.0002651098184287548,-0.00038481829687952995
1783003423870983200,3.919983154296875,-0.00019002053886651993,0.0022896607406437397,-0.0021206666715443134
1783003423881034200,3.9300341796875,-0.0031838910654187202,-0.0009493553079664707,0.00006135459989309311
1783003423891085000,3.9400849609375,-0.0013005039654672146,0.0000762278214097023,-0.00021454878151416779
1783003423901137200,3.95013720703125,0.00208093598484993,-0.003579540643841028,-0.0007983786053955555
1783003423911188200,3.960188232421875,-0.001218987163156271,-0.0015771100297570229,-0.0004947781562805176
1783003423921236000,3.970236083984375,0.0017001759260892868,-0.000027750153094530106,0.0008728988468647003
1783003423931287000,3.980287109375,0.0006120083853602409,-0.0027447068132460117,0.0007735630497336388
1783003423941338000,3.990338134765625,-0.00009931391105055809,-0.0016302685253322124,-0.0006182515062391758
1783003423951389200,4.00038916015625,0.0017941934056580067,0.0012241075746715069,0.002397512085735798
1783003423961441000,4.01044091796875,-0.0007403152994811535,0.001436243299394846,0.00033743493258953094
1783003423971492000,4.0204921875,0.0007646367885172367,-0.00024687452241778374,0.0010317210108041763
1783003423981543200,4.030543212890625,0.0005448728334158659,0.000019849743694067,-0.0011726231314241886
1783003423991594000,4.040593994140625,0.0022959013003855944,0.0011849827133119106,0.00027587078511714935
1783003424001645000,4.05064501953125,-0.0005337018519639969,0.002120629418641329,0.00040682218968868256
1783003424011697200,4.060697265625,-0.00019761128351092339,0.0004889108240604401,-0.00024378765374422073
1783003424021748000,4.070748046875,0.000966191291809082,-0.0015417526010423899,-0.0011545000597834587
1783003424031799000,4.080799072265625,0.00032916339114308357,-0.0012069931253790855,-0.001315887551754713
1783003424041849900,4.090849853515625,0.002585816662758589,-0.0015788273885846138,-0.0018521472811698914
1783003424051901000,4.10090087890625,0.00008404301479458809,0.0005434458144009113,-0.00015704520046710968
1783003424061952000,4.110951904296875,-0.0006265467964112759,-0.000431193970143795,0.0005106618627905846
1783003424072004000,4.121004150390625,0.005579683929681778,0.0010737581178545952,0.0019114846363663673
1783003424082055000,4.131054931640625,0.0014888045843690634,-0.0017085974104702473,-0.0007818900048732758
1783003424092106000,4.14110595703125,0.0023820288479328156,-0.0017232447862625122,0.0009592846035957336
1783003424102156800,4.15115673828125,-0.0002986579202115536,0.0006899400614202023,0.000645623542368412
1783003424112208000,4.161207763671875,-0.00023953570052981377,0.0003248206339776516,0.003057115711271763
1783003424122259000,4.171259033203125,-0.001089228317141533,0.001462284941226244,-0.0023631639778614044
1783003424132310800,4.181310791015625,-0.002232789993286133,0.0014399141073226929,0.0010890914127230644
1783003424142361900,4.19136181640625,0.0013107105623930693,0.0007967734709382057,-0.0012067989446222782
1783003424152413000,4.201412841796875,0.0006214845925569534,0.00023990636691451073,-0.0007404792122542858
1783003424162464000,4.211464111328125,0.0034127007238566875,0.0004267520271241665,-0.0030641378834843636
1783003424172514800,4.221514892578125,-0.0007322430610656738,0.0014595258980989456,0.0020560557022690773
1783003424182567000,4.23156689453125,-0.0028135525062680244,-0.0005286915693432093,0.0008423235267400742
1783003424192618000,4.241617919921875,-0.0004894114099442959,-0.00019526388496160507,0.0014841454103589058
1783003424202668800,4.251668701171875,0.00004671793431043625,-0.0016729701310396194,-0.0009278524667024612
1783003424212719900,4.261719970703125,0.0012291616294533014,0.0012298757210373878,0.000055919401347637177
1783003424222771000,4.27177099609375,0.0019726010505110025,0.0025384104810655117,0.003980550915002823
1783003424232822000,4.281822021484375,0.0008066692389547825,0.0020707594230771065,-0.0004360359162092209
1783003424242873900,4.291873779296875,0.0013279847335070372,0.0013251588679850101,0.0008455207571387291
1783003424252925000,4.301925048828125,-0.00143131660297513,0.0012404699809849262,0.0030500851571559906
1783003424262976000,4.31197607421875,0.000041740480810403824,-0.002669835928827524,-0.0007908227853477001
1783003424273026800,4.32202685546875,-0.0020778696052730083,-0.002131078625097871,0.0020579611882567406
1783003424283078000,4.332077880859375,0.0015361476689577103,-0.0010799574665725231,-0.0012679044157266617
1783003424293129000,4.34212890625,-0.0004907841794192791,-0.0008272235281765461,-0.001663117203861475
1783003424303181000,4.35218115234375,0.00017467699944972992,-0.0009837246034294367,-0.00033018551766872406
1783003424313232000,4.36223193359375,-0.0012780772522091866,0.0013308287598192692,-0.00048598041757941246
1783003424323283000,4.372282958984375,0.000389347318559885,-0.0011482657864689827,-0.0002344837412238121
1783003424333334000,4.382333984375,-0.0018690130673348904,0.0019809482619166374,0.0028316136449575424
1783003424343385000,4.392385009765625,0.0006024506874382496,0.0004705600440502167,-0.00005318131297826767
1783003424353437000,4.40243701171875,0.0014386831317096949,0.001486556138843298,0.0007271245121955872
1783003424363488000,4.412488037109375,-0.00007008062675595284,-0.0025536443572491407,-0.002050818409770727
1783003424373539000,4.4225390625,-0.00029911287128925323,-0.00012590689584612846,-0.00016902852803468704
1783003424383590000,4.43258984375,0.0027526014018803835,-0.0002279607579112053,-0.0006595849990844727
1783003424393641000,4.442640869140625,-0.0010229619219899178,-0.0019656734075397253,-0.001860670279711485
1783003424403692000,4.452692138671875,-0.0005321912467479706,0.0004720790311694145,-0.0009436928667128086
1783003424413743900,4.462743896484375,-0.0011516427621245384,0.0006449180655181408,0.0013405010104179382
1783003424423795000,4.472794921875,0.0002022511325776577,0.00004528369754552841,-0.0009838961996138096
1783003424433846000,4.482845947265625,-0.0005783215165138245,0.0007837782613933086,-0.00006137695163488388
1783003424443897000,4.49289697265625,-0.001696125604212284,-0.0009113685227930546,-0.0015073390677571297
1783003424453948000,4.502947998046875,0.0009119079913944006,-0.0019617192447185516,0.001191774383187294
1783003424463999000,4.5129990234375,0.00034283101558685303,-0.0002816854976117611,-0.002022756729274988
1783003424474051000,4.523051025390625,0.00023177731782197952,-0.0027866545133292675,-0.002013968303799629
1783003424484102000,4.533101806640625,-0.0012202179059386253,-0.0023025567643344402,-0.0005651647225022316
1783003424494153000,4.543153076171875,-0.0009589619003236294,-0.0024218664038926363,-0.00044345809146761894
1783003424504204000,4.5532041015625,0.0004089116118848324,-0.0004454939626157284,0.000719752162694931
1783003424514255000,4.563255126953125,-0.0005034874193370342,0.0011923499405384064,0.00101536326110363
1783003424524307000,4.573306884765625,0.0005411510355770588,0.0009004189632833004,0.00002136826515197754
1783003424534358000,4.58335791015625,-0.0015188041143119335,0.0011286521330475807,0.001425386406481266
1783003424544409000,4.5934091796875,0.0013545851688832045,0.00042210472747683525,0.002864873968064785
1783003424554460200,4.603460205078125,0.0026004118844866753,0.00012063514441251755,-0.003201806452125311
1783003424564511000,4.613510986328125,-0.00016839895397424698,-0.0034347991459071636,-0.0008426355198025703
1783003424574562000,4.62356201171875,0.0019442865159362555,-0.0008549951016902924,0.0005640462040901184
1783003424584614100,4.6336142578125,-0.0011529093608260155,-0.0013766777701675892,-0.0006476459093391895
1783003424594665000,4.6436650390625,-0.001276213675737381,-0.0005814577452838421,-0.0010311412625014782
1783003424604716000,4.653716064453125,-0.000871642492711544,0.00016461219638586044,-0.0002531884238123894
1783003424614767000,4.66376708984375,0.002598722465336323,-0.0004159570671617985,-0.00021350756287574768
1783003424624818200,4.673818115234375,0.001219774829223752,-0.0005568224005401134,0.0017509451135993004
1783003424634868700,4.68386865234375,-0.0009269993752241135,0.0016152518801391125,0.0010649142786860466
1783003424644921000,4.693921142578125,0.0016945423558354378,-0.0013981293886899948,0.00006318744271993637
1783003424654972200,4.70397216796875,-0.0011542411521077156,0.0006021708250045776,0.0005675898864865303
1783003424665023000,4.71402294921875,0.0015536113642156124,0.0009855222888290882,0.0006862329319119453
1783003424675073800,4.72407373046875,0.00025798333808779716,-0.00025844015181064606,-0.0009050052613019943
1783003424685124900,4.734124755859375,-0.0003277994692325592,-0.0018634193111211061,-0.002009534277021885
1783003424695177000,4.744177001953125,0.00011881254613399506,0.00029454007744789124,-0.002555216196924448
1783003424705227800,4.754227783203125,0.0004853315185755491,-0.000963995698839426,0.00038318056613206863
1783003424715278800,4.76427880859375,0.0040632882155478,0.003621967975050211,0.0001964932307600975
1783003424725330000,4.774329833984375,0.0004015748854726553,0.002752224914729595,0.002040174789726734
1783003424735381000,4.784381103515625,0.0015765614807605743,-0.0006558219902217388,-0.00041499314829707146
1783003424745431800,4.794431884765625,0.003273921087384224,-0.0000035902485251426697,-0.0007254583761096001
1783003424755484000,4.80448388671875,-0.00019431347027420998,0.0016236011870205402,-0.001789923757314682
1783003424765535000,4.814534912109375,-0.0004433938302099705,0.0013334793038666248,-0.0005286377854645252
1783003424775585800,4.824585693359375,-0.0007651038467884064,-0.001464437460526824,-0.0006878948770463467
1783003424785636900,4.834636962890625,0.002276225481182337,-0.0002406500279903412,0.0005379216745495796
1783003424795688000,4.84468798828125,-0.0008644401095807552,-0.001501656835898757,-0.0009619705379009247
1783003424805739000,4.854739013671875,0.000967677216976881,-0.0027499583084136248,0.001334458589553833
1783003424815790800,4.864790771484375,-0.0018704533576965332,-0.0006521863397210836,0.0016580326482653618
1783003424825842000,4.874842041015625,-0.0006822445429861546,0.0007513244636356831,-0.00014891661703586578
1783003424835893000,4.88489306640625,0.0021891756914556026,-0.00010328367352485657,0.0018780156970024109
1783003424845943800,4.89494384765625,0.0012867278419435024,0.00039985356852412224,0.0015684384852647781
1783003424855995000,4.904994873046875,-0.0006640376523137093,0.00041237054392695427,0.00008132960647344589
1783003424866047000,4.915046875,0.0006019757129251957,-0.00035109417513012886,0.00011220481246709824
1783003424876097800,4.925097900390625,-0.0010704896412789822,-0.0009937146678566933,0.0007875822484493256
1783003424886148900,4.93514892578125,0.0008213247638195753,0.003521905280649662,0.0029552485793828964
1783003424896200000,4.945199951171875,-0.0019150730222463608,-0.0015626023523509502,0.0004034079611301422
1783003424906251000,4.9552509765625,0.0010242732241749763,0.0017814268358051777,0.00128836277872324
1783003424916302000,4.965302001953125,-0.0005256864242255688,-0.000172534491866827,-0.00045254500582814217
1783003424926354000,4.97535400390625,-0.0002531534992158413,-0.000700866337865591,-0.0005555618554353714
1783003424936405000,4.985405029296875,0.0002019805833697319,-0.0038279499858617783,-0.002242141868919134
1783003424946456000,4.9954560546875,-0.0015950389206409454,0.0000401567667722702,0.0005998369306325912
1783003424956507000,5.0055068359375,0.0015285827685147524,0.0016955775208771229,0.0009843967854976654
1783003424966558000,5.015557861328125,-0.0015971488319337368,0.0010016178712248802,0.0020402371883392334
1783003424976609000,5.025609130859375,0.00008916482329368591,0.0014128098264336586,-0.001008815597742796
1783003424986660900,5.035660888671875,-0.00037848157808184624,-0.0005129547789692879,0.0018233396112918854
1783003424996712000,5.0457119140625,-0.0007071155123412609,0.0013528559356927872,0.0011836476624011993
1783003425006763000,5.055762939453125,0.001580486772581935,0.00013227062299847603,-0.0008694175630807877
1783003425016814000,5.06581396484375,0.0016201678663492203,-0.0024901439901441336,-0.0030745146796107292
1783003425026865000,5.075864990234375,-0.0005809972062706947,-0.0013849446550011635,-0.003180157858878374
1783003425036917000,5.0859169921875,0.001187874237075448,-0.0017218345310539007,-0.002048846799880266
1783003425046968000,5.095968017578125,0.0005560514982789755,0.00021977443248033524,0.00026834290474653244
1783003425057019000,5.106018798828125,0.0007059874478727579,0.0015718615613877773,0.00047207437455654144
1783003425067070000,5.116070068359375,0.0005053938366472721,0.0005044061690568924,0.0012744441628456116
1783003425077121000,5.12612109375,0.00015225866809487343,-0.0010002795606851578,0.0015671253204345703
1783003425087172000,5.136172119140625,0.00003892695531249046,-0.00051476014778018,0.002096780575811863
1783003425097224000,5.146223876953125,-0.0018103718757629395,-0.0024831024929881096,0.0006091389805078506
1783003425107275000,5.15627490234375,-0.0006914418190717697,-0.001202362822368741,-0.0008328170515596867
1783003425117326000,5.166326171875,0.000049715861678123474,0.00042402977123856544,-0.0007673031650483608
1783003425127377200,5.176377197265625,-0.0015094606205821037,-0.000353184062987566,-0.001673282589763403
1783003425137428000,5.186427978515625,0.00018777186051011086,-0.0016781068406999111,0.0004378054291009903
1783003425147480000,5.19647998046875,0.00025294162333011627,-0.0013883316423743963,-0.00046744104474782944
1783003425157531100,5.20653125,0.00010566879063844681,-0.0018261554650962353,-0.0006149802356958389
1783003425167582000,5.21658203125,-0.0019025937654078007,0.0023756311275064945,0.0009881174191832542
1783003425177633000,5.226633056640625,-0.001098585780709982,-0.0006790144834667444,0.0012088939547538757
1783003425187684000,5.23668408203125,0.00010177958756685257,0.0009749988093972206,0.0013129478320479393
1783003425197735200,5.246735107421875,0.0009862156584858894,0.0011379839852452278,0.0006026830524206161
1783003425207787000,5.256787109375,0.001029798062518239,-0.0029172315262258053,-0.0014685457572340965
1783003425217838000,5.266838134765625,-0.0005670334212481976,-0.0007883007638156414,-0.0003849053755402565
1783003425227889200,5.27688916015625,-0.000465387012809515,0.0008892766200006008,-0.0010052588768303394
1783003425237940000,5.28693994140625,-0.0013953628949820995,0.0005055149085819721,0.0009822584688663483
1783003425247991000,5.296990966796875,0.0005515562370419502,0.0005744989030063152,-0.00015866383910179138
1783003425258041900,5.307041748046875,-0.0016370294615626335,0.0005603842437267303,0.0012059397995471954
1783003425268094000,5.317093994140625,0.00013201264664530754,-0.0009017088450491428,0.0013796966522932053
1783003425278145000,5.32714501953125,0.0015323027037084103,-0.002062847139313817,0.0017528058961033821
1783003425288196000,5.337196044921875,-0.0008696038275957108,-0.00045907730236649513,-0.0002261931076645851
1783003425298247000,5.347246826171875,0.0018076719716191292,0.00022828439250588417,0.0011128447949886322
1783003425308298000,5.357298095703125,0.00017643067985773087,-0.002262758556753397,-0.0014026276767253876
1783003425318350000,5.36735009765625,0.0019381118472665548,-0.00011891359463334084,0.004166042432188988
1783003425328401000,5.37740087890625,0.0019388385117053986,-0.0008498493116348982,0.0012600813060998917
1783003425338452000,5.387451904296875,0.0007337580900639296,-0.0004154876805841923,-0.0000856136903166771
1783003425348502800,5.397502685546875,-0.00043546687811613083,-0.0006263402756303549,-0.0018488988280296326
1783003425358553900,5.407553955078125,0.0011011771857738495,0.0025556045584380627,-0.0007846993394196033
1783003425368605000,5.41760498046875,-0.0011666449718177319,0.0013475827872753143,-0.0017376244068145752
1783003425378656800,5.42765673828125,-0.0009855502285063267,0.0013899272307753563,0.0004320526495575905
1783003425388707800,5.437707763671875,0.0015455945394933224,-0.0024198105093091726,-0.0004388154484331608
1783003425398759000,5.447759033203125,-0.00033512990921735764,-0.0006016704719513655,-0.0015802462585270405
1783003425408810000,5.45781005859375,0.000019084662199020386,-0.0003921077586710453,0.0012440243735909462
1783003425418860800,5.46786083984375,-0.001472285483032465,-0.0013931901194155216,0.0021047573536634445
1783003425428913000,5.477912841796875,-0.00026231585070490837,-0.000931288581341505,-0.0006683515384793282
1783003425438964000,5.4879638671875,0.00044661760330200195,-0.0017171874642372131,-0.00045955972746014595
1783003425449014800,5.498014892578125,0.0012404024600982666,-0.0020189916249364614,-0.0020705247297883034
1783003425459065900,5.50806591796875,-0.02015410177409649,0.1484176516532898,0.10365137457847595
1783003425469117000,5.518116943359375,0.012339925393462181,0.0723995789885521,-0.018555758520960808
1783003425479168000,5.52816796875,-0.013766244053840637,-0.15140555799007416,-0.04458016902208328
1783003425489219800,5.5382197265625,0.005814989097416401,0.08301033079624176,0.029155967757105827
1783003425499271000,5.54827099609375,0.006568397395312786,0.0007242420688271523,-0.012397067621350288
1783003425509322000,5.558322021484375,-0.006400248035788536,-0.019800078123807907,-0.008842858485877514
1783003425519373000,5.568373046875,-0.007924375124275684,0.009052075445652008,-0.0019673756323754787
1783003425529424000,5.578423828125,-0.0031182928942143917,-0.018403662368655205,-0.00658238073810935
1783003425539476000,5.58847607421875,0.005043762736022472,0.004697395488619804,-0.0032547609880566597
1783003425549527000,5.598527099609375,0.0021355082280933857,-0.022117894142866135,-0.012237701565027237
1783003425559577900,5.608577880859375,0.004870574455708265,-0.08794430643320084,-0.04254047945141792
1783003425569629000,5.61862890625,-0.004961226135492325,-0.14180493354797363,-0.059018366038799286
1783003425579680000,5.628679931640625,0.00266553508117795,-0.0644286647439003,-0.02298872545361519
