time,seconds_elapsed,z,y,x
1783003420026401500,0.075401611328125,-0.0026437200140208006,0.004065315239131451,0.005934588145464659
1783003420036452600,0.08545263671875,-0.004347876645624638,-0.0015454323729500175,0.007874434813857079
1783003420046503400,0.09550341796875,-0.001826662220992148,-0.0015182681381702423,0.005819805897772312
1783003420056554500,0.105554443359375,-0.0017955031944438815,0.006964166183024645,0.008127435110509396
1783003420066606600,0.115606689453125,-0.004856806714087725,0.01164413895457983,0.011227354407310486
1783003420076657400,0.125657470703125,-0.002781938062980771,0.0068419273011386395,0.007092264015227556
1783003420086708500,0.13570849609375,-0.004496214911341667,0.0030362699180841446,0.0068358019925653934
1783003420096759600,0.145759521484375,-0.0038400120101869106,-0.0012631373247131705,0.004412325099110603
1783003420106810600,0.155810546875,-0.004634699318557978,0.0041153826750814915,0.007376423571258783
1783003420116862500,0.165862548828125,-0.0034075146540999413,0.006984406150877476,0.009604157879948616
1783003420126913500,0.17591357421875,-0.0049734534695744514,0.007282680366188288,0.008802546188235283
1783003420136964600,0.185964599609375,-0.005775597412139177,0.0057135457172989845,0.008497081696987152
1783003420147015700,0.196015625,-0.0055004931055009365,0.002490588231012225,0.00785339530557394
1783003420157066500,0.20606640625,-0.004274107050150633,0.0037886130157858133,0.007228618022054434
1783003420167118600,0.21611865234375,-0.005754824727773666,0.005903429351747036,0.011607120744884014
1783003420177169700,0.226169677734375,-0.004677576012909412,0.005062669049948454,0.009843842126429081
1783003420187220500,0.236220458984375,-0.003257844829931855,0.004295678809285164,0.007652859669178724
1783003420197271600,0.246271484375,-0.0041460092179477215,0.0011502192355692387,0.005826996639370918
1783003420207322400,0.256322265625,-0.0043806335888803005,0.0026312030386179686,0.005861617624759674
1783003420217374500,0.26637451171875,-0.0036770266015082598,0.004741491749882698,0.005121524911373854
1783003420227425500,0.276425537109375,-0.00577746145427227,0.005872003734111786,0.0089993542060256
1783003420237476600,0.2864765625,-0.006165218073874712,0.004209924954921007,0.006232329644262791
1783003420247527400,0.29652734375,-0.00430100504308939,0.003989148885011673,0.006192914675921202
1783003420257578500,0.30657861328125,-0.006766825914382935,0.002237321576103568,0.007410511840134859
1783003420267630600,0.316630615234375,-0.0035023230593651533,0.005453355144709349,0.00908670574426651
1783003420277681400,0.326681396484375,-0.0035870117135345936,0.007685350254178047,0.00941826868802309
1783003420287732500,0.336732421875,-0.003207511268556118,0.008519718423485756,0.007454187609255314
1783003420297783300,0.346783203125,-0.0038903458043932915,0.007876299321651459,0.009397496469318867
1783003420307834400,0.35683447265625,-0.0049404301680624485,0.004059189930558205,0.007312774192541838
1783003420317886500,0.366886474609375,-0.005100485868752003,-0.00019867181254085153,0.005003813188523054
1783003420327937300,0.376937255859375,-0.0038807583041489124,0.0032320122700184584,0.008976184763014317
1783003420337988400,0.38698828125,-0.005089300684630871,0.005241101142019033,0.009122392162680626
1783003420348039400,0.397039306640625,-0.005650694947689772,0.003540938952937722,0.007044593803584576
1783003420358090500,0.407090576171875,-0.004833370912820101,0.0052472264505922794,0.009196427650749683
1783003420368141300,0.417141357421875,-0.003340669209137559,0.004461860284209251,0.009978331625461578
1783003420378193400,0.427193359375,-0.0023105584550648928,0.006975351367145777,0.010613761842250824
1783003420388244500,0.437244384765625,-0.004450141917914152,0.008953547105193138,0.009206813760101795
1783003420398295300,0.44729541015625,-0.004111388232558966,0.002916161436587572,0.00782649777829647
1783003420408346400,0.457346435546875,-0.003334810258820653,0.002522546099498868,0.009616674855351448
1783003420418397400,0.4673974609375,-0.0054304515942931175,0.0023361248895525932,0.007902930490672588
1783003420428449300,0.47744921875,-0.004820055328309536,0.0029827402904629707,0.00780652416869998
1783003420438500400,0.487500244140625,-0.0026136261876672506,0.005395564250648022,0.007518103811889887
1783003420448551400,0.497551513671875,-0.00301736150868237,0.006124737672507763,0.007197991944849491
1783003420458602500,0.5076025390625,-0.004986502695828676,0.0031470574904233217,0.007506385911256075
1783003420468653600,0.517653564453125,-0.004026965703815222,0.003894074121490121,0.004977181553840637
1783003420478705400,0.527705322265625,-0.007132211700081825,0.006440588738769293,0.00848722830414772
1783003420488756500,0.537756591796875,-0.004568386357277632,0.004735632799565792,0.00755006168037653
1783003420498807600,0.5478076171875,-0.002862099092453718,0.004832838196307421,0.009092831052839756
1783003420508858400,0.5578583984375,-0.0035800873301923275,0.003835750976577401,0.009378854185342789
1783003420518909400,0.567909423828125,-0.002788329729810357,0.004534564446657896,0.00692075677216053
1783003420528961500,0.57796142578125,-0.004668254870921373,0.004117247182875872,0.0065132929012179375
1783003420539012400,0.588012451171875,-0.004156128969043493,0.0032229574862867594,0.007844340987503529
1783003420549063400,0.5980634765625,-0.005461610853672028,0.0044346959330141544,0.008990298956632614
1783003420559114500,0.608114501953125,-0.006691724993288517,0.004549211822450161,0.009639045223593712
1783003420569165600,0.61816552734375,-0.004082892090082169,0.003885552054271102,0.007228085305541754
1783003420579216400,0.62821630859375,-0.005797169171273708,0.004344148561358452,0.009020659141242504
1783003420589268500,0.6382685546875,-0.003561445279046893,0.0070491209626197815,0.006373210810124874
1783003420599319600,0.648319580078125,-0.004023503512144089,0.004096740856766701,0.00944836251437664
1783003420609370400,0.658370361328125,-0.0029177593532949686,0.0025097629986703396,0.006232063286006451
1783003420619421400,0.66842138671875,-0.004729241598397493,0.0029377329628914595,0.009462211281061172
1783003420629472500,0.678472412109375,-0.005379319190979004,0.003967044875025749,0.006175337824970484
1783003420639524400,0.6885244140625,-0.005456018261611462,0.003668237943202257,0.007632619701325893
1783003420649575400,0.698575439453125,-0.003891677362844348,0.005298092495650053,0.008413990959525108
1783003420659626500,0.70862646484375,-0.006238454952836037,0.005467736162245274,0.007901598699390888
1783003420669677600,0.718677490234375,-0.003659183392301202,0.0027198863681405783,0.006547914352267981
1783003420679728400,0.728728271484375,-0.0030333404429256916,0.0065505774691700935,0.008685100823640823
1783003420689780500,0.738780517578125,-0.004005394410341978,0.004053863696753979,0.006203034892678261
1783003420699831600,0.74883154296875,-0.0026940538082271814,0.004376106429845095,0.006845122668892145
1783003420709882600,0.758882568359375,-0.004337756894528866,0.003982757218182087,0.00755006168037653
1783003420719933400,0.768933349609375,-0.005786249879747629,0.00430153775960207,0.007035539019852877
1783003420729984500,0.778984619140625,-0.00446825148537755,0.00392709719017148,0.008887235075235367
1783003420740036600,0.78903662109375,-0.006675479467958212,0.0037286917213350534,0.01017061248421669
1783003420750087400,0.79908740234375,-0.005768939387053251,0.0028706213925033808,0.007155114784836769
1783003420760138500,0.809138427734375,-0.003067428944632411,0.0041468082927167416,0.00723580876365304
1783003420770189600,0.819189453125,-0.0043678502552211285,0.004237888380885124,0.005000883713364601
1783003420780240600,0.82924072265625,-0.003808320267125964,0.004964132327586412,0.008756740018725395
1783003420790291500,0.83929150390625,-0.004851746838539839,0.004319380968809128,0.006391320377588272
1783003420800343600,0.849343505859375,-0.004577973857522011,0.004787032026797533,0.008285893127322197
1783003420810394600,0.85939453125,-0.001142496126703918,0.004344148561358452,0.00956687331199646
1783003420820445400,0.869445556640625,-0.0030511836521327496,0.004796086810529232,0.00749173853546381
1783003420830496500,0.87949658203125,-0.0014982944121584296,0.004053330980241299,0.0075689698569476604
1783003420840547600,0.889547607421875,-0.0037238982040435076,0.0044320328161120415,0.008057926781475544
1783003420850599400,0.899599365234375,-0.0013374395202845335,0.0038948729634284973,0.008176703006029129
1783003420860650500,0.909650390625,-0.003447994589805603,0.002232261700555682,0.009498430415987968
1783003420870701600,0.91970166015625,-0.00558225205168128,0.0016559535870328546,0.008828645572066307
1783003420880752600,0.929752685546875,-0.00276196445338428,0.002400839701294899,0.008069911040365696
1783003420890803500,0.939803466796875,-0.0049039446748793125,0.005979862064123154,0.005030977539718151
1783003420900855600,0.94985546875,-0.002816825406625867,0.005587311927229166,0.008364190347492695
1783003420910906600,0.95990673828125,-0.00290391081944108,0.0041553303599357605,0.01028859056532383
1783003420920957400,0.96995751953125,-0.005203550215810537,0.003962250892072916,0.007105313707143068
1783003420931008500,0.980008544921875,-0.0032898029312491417,0.004933239426463842,0.007388674188405275
1783003420941059600,0.9900595703125,-0.004051200579851866,0.004782504867762327,0.008478705771267414
1783003420951110700,1.000110595703125,-0.0037321539130061865,0.006327936891466379,0.008330900222063065
1783003420961162500,1.01016259765625,-0.0037441381718963385,0.005518335849046707,0.005751096177846193
1783003420971213600,1.020213623046875,-0.005375856999307871,0.0035931370221078396,0.006343649700284004
1783003420981264600,1.0302646484375,-0.005397961009293795,0.00466559175401926,0.005434446502476931
1783003420991315700,1.040315673828125,-0.00646642129868269,0.002974218223243952,0.007066697813570499
1783003421001366500,1.050366455078125,-0.00472391489893198,0.003988616168498993,0.01022920198738575
1783003421011418600,1.060418701171875,-0.0036575854755938053,0.004809668753296137,0.00860227644443512
1783003421021469700,1.0704697265625,-0.0031396006233990192,0.00866113230586052,0.008447014726698399
1783003421031520500,1.0805205078125,-0.003597398055717349,0.007638478651642799,0.010805243626236916
1783003421041571600,1.090571533203125,-0.002828543307259679,0.007187072653323412,0.006145510356873274
1783003421051622700,1.10062255859375,-0.004320180043578148,0.006603308022022247,0.010004963725805283
1783003421061674500,1.110674560546875,-0.006719421595335007,0.004571848548948765,0.006200371775776148
1783003421071725600,1.1207255859375,-0.004431233741343021,0.0020594224333763123,0.007361243478953838
1783003421081776600,1.130776611328125,-0.004682902246713638,0.001984054921194911,0.004351871553808451
1783003421091827700,1.14082763671875,-0.005316468421369791,0.0054853130131959915,0.006899984087795019
1783003421101878500,1.15087841796875,-0.002528138691559434,0.005783853121101856,0.008388690650463104
1783003421111929600,1.1609296875,-0.0037742317654192448,0.003692472819238901,0.007496798411011696
1783003421121981700,1.170981689453125,-0.0031824775505810976,0.005358546506613493,0.006096774712204933
1783003421132032500,1.181032470703125,-0.003563842037692666,0.005003280472010374,0.009064069017767906
1783003421142083600,1.19108349609375,-0.0035665053874254227,0.005307147279381752,0.008820655755698681
1783003421152134700,1.201134765625,-0.004827778320759535,0.007902930490672588,0.007959655486047268
1783003421162185700,1.211185791015625,-0.004237622022628784,0.0028272117488086224,0.007892544381320477
1783003421172237600,1.221237548828125,-0.0031880701426416636,0.005834719631820917,0.009605489671230316
1783003421182288600,1.23128857421875,-0.0046639940701425076,-0.0000929443194763735,0.006727145053446293
1783003421192339700,1.241339599609375,-0.005371063016355038,0.002700977958738804,0.011009507812559605
1783003421202390800,1.251390869140625,-0.00484189298003912,0.0038892803713679314,0.007996140979230404
1783003421212441600,1.261441650390625,-0.0035459990613162518,0.0021845910232514143,0.0054213968105614185
1783003421222493700,1.27149365234375,-0.004101800732314587,0.003614974906668067,0.008627044036984444
1783003421232544800,1.281544677734375,-0.00606348505243659,0.004299673717468977,0.005882123950868845
1783003421242595600,1.291595703125,-0.0028517129831016064,0.004741225857287645,0.007339938078075647
1783003421252646700,1.301646728515625,-0.004190750420093536,0.006337258033454418,0.007150321267545223
1783003421262697700,1.31169775390625,-0.002528937766328454,0.005821669939905405,0.006280798930674791
1783003421272748800,1.321748779296875,-0.0051838429644703865,0.0043473439291119576,0.009258213452994823
1783003421282800600,1.331800537109375,-0.003715375903993845,0.004287689458578825,0.007860053330659866
1783003421292851700,1.341851806640625,-0.0016937704058364034,0.002814162289723754,0.005053614266216755
1783003421302902800,1.35190283203125,-0.0028189560398459435,0.0030298782512545586,0.005881591234356165
1783003421312953600,1.36195361328125,-0.007635282818228006,0.0020234698895365,0.008472314104437828
1783003421323004400,1.37200439453125,-0.004021106753498316,0.0041433461010456085,0.007218231912702322
1783003421333056800,1.382056884765625,-0.00532658863812685,0.0034115093294531107,0.008757272735238075
1783003421343107600,1.392107666015625,-0.005222458858042955,0.002948119305074215,0.00833862368017435
1783003421353158700,1.40215869140625,-0.005853361915796995,0.005003280472010374,0.00592606607824564
1783003421363209500,1.41220947265625,-0.00330231967382133,0.004911401774734259,0.010726946406066418
1783003421373260500,1.422260498046875,-0.0049313753843307495,0.002754773711785674,0.0073173013515770435
1783003421383312600,1.432312744140625,-0.0032535837963223457,0.005781722720712423,0.007763913366943598
1783003421393363500,1.442363525390625,-0.004433630499988794,0.008957276120781898,0.010928547941148281
1783003421403414500,1.45241455078125,-0.002246376359835267,0.00464615086093545,0.010026801377534866
1783003421413465600,1.462465576171875,-0.0033076461404561996,0.004151069093495607,0.009192699566483498
1783003421423516400,1.472516357421875,-0.004679440520703793,0.004491420928388834,0.007190002128481865
1783003421433567500,1.4825673828125,-0.003736148588359356,0.0037851508241146803,0.00794314406812191
1783003421443619600,1.49261962890625,-0.005657086614519358,0.0027598338201642036,0.008775382302701473
1783003421453670400,1.50267041015625,-0.0051862397231161594,0.004826180636882782,0.006262689363211393
1783003421463721500,1.512721435546875,-0.004218447022140026,0.0038690404035151005,0.006028064992278814
1783003421473772500,1.5227724609375,-0.002626675646752119,0.005501558072865009,0.007902131415903568
1783003421483823600,1.53282373046875,-0.0008106662426143885,0.00421232171356678,0.0059596216306090355
1783003421493875500,1.54287548828125,-0.003925233148038387,0.004503671545535326,0.007250722497701645
1783003421503926500,1.552926513671875,-0.0046823699958622456,0.005499161314219236,0.009124522097408772
1783003421513977600,1.5629775390625,-0.006698382552713156,0.005081311333924532,0.00711676524952054
1783003421524028400,1.5730283203125,-0.0017411747248843312,0.004738562274724245,0.008656605146825314
1783003421534079500,1.58307958984375,-0.002758502261713147,0.002980343531817198,0.010295780375599861
1783003421544130600,1.593130615234375,-0.004707137122750282,0.004067179746925831,0.008610532619059086
1783003421554182700,1.6031826171875,-0.005527656991034746,0.0025369273498654366,0.009513077326118946
1783003421564233500,1.6132333984375,-0.006684001535177231,0.0022482406347990036,0.005276521202176809
1783003421574284500,1.623284423828125,-0.001606152392923832,0.003052248852327466,0.00860067829489708
1783003421584335600,1.633335693359375,-0.005604622419923544,0.002802444389089942,0.007361243478953838
1783003421594386700,1.64338671875,-0.005921538453549147,0.0100238723680377,0.013140835799276829
1783003421604438500,1.6534384765625,-0.007501325570046902,0.08666911721229553,0.043412189930677414
1783003421614489600,1.663489501953125,0.001534779672510922,-0.00043755737715400755,0.006569219287484884
1783003421624540700,1.673540771484375,-0.0031457259319722652,-0.029509423300623894,-0.010977549478411674
1783003421634591500,1.683591552734375,-0.010500311851501465,0.012088887393474579,0.011261975392699242
1783003421644642600,1.693642578125,0.0010996191995218396,0.020858410745859146,0.013109676539897919
1783003421654693600,1.703693603515625,-0.003766242414712906,-0.037165213376283646,-0.005916478578001261
1783003421664745500,1.713745361328125,-0.00002450108149787411,-0.05465099588036537,-0.0159523356705904
1783003421674796500,1.723796630859375,-0.006040315609425306,-0.013066533021628857,0.002088450826704502
1783003421684847600,1.73384765625,-0.0015100123127922416,0.03690635412931442,0.021341774612665176
1783003421694898700,1.743898681640625,-0.0031292142812162638,0.045460425317287445,0.023681893944740295
1783003421704949500,1.753949462890625,-0.002665824256837368,0.007802795618772507,0.00791624654084444
1783003421715001600,1.764001708984375,-0.005720470100641251,-0.024624120444059372,-0.002144909929484129
1783003421725052700,1.774052734375,-0.005917810369282961,-0.0249804500490427,-0.005949235521256924
1783003421735103500,1.784103515625,-0.005064533557742834,0.004270112607628107,0.00996315199881792
1783003421745154600,1.794154541015625,-0.005277586169540882,0.031631164252758026,0.01720668375492096
1783003421755205600,1.80420556640625,-0.0052472264505922794,0.02972567081451416,0.017520936205983162
1783003421765257500,1.814257568359375,-0.004001932218670845,0.001252750982530415,0.006007825024425983
1783003421775308500,1.82430859375,-0.006868292577564716,-0.017136642709374428,-0.00049108691746369
1783003421785359600,1.834359619140625,-0.00398781755939126,-0.011963984929025173,0.0031941954512149096
1783003421795410700,1.84441064453125,-0.0036706349346786737,0.009415339678525925,0.008016647771000862
1783003421805461800,1.854461669921875,-0.004403004422783852,0.01938328519463539,0.012198342941701412
1783003421815512600,1.8645126953125,-0.0019182749092578888,0.01179300993680954,0.011226288974285126
1783003421825564700,1.874564697265625,-0.0005185174522921443,-0.005317800212651491,0.006417952012270689
1783003421835615700,1.88461572265625,-0.004132160916924477,-0.00627094553783536,0.002168612089008093
1783003421845666600,1.89466650390625,-0.005394499283283949,0.0012397015234455466,0.00911493506282568
1783003421855717600,1.904717529296875,-0.005210474599152803,0.014026336371898651,0.011871573515236378
1783003421865768700,1.914768798828125,-0.006646451074630022,0.0183438528329134,0.013775466941297054
1783003421875820500,1.924820556640625,-0.0051809134893119335,0.0031531827989965677,0.007089600898325443
1783003421885871600,1.93487158203125,-0.0038812910206615925,-0.0030418625101447105,0.00538357999175787
1783003421895922700,1.944922607421875,-0.0029763488564640284,-0.003457582090049982,0.0059596216306090355
1783003421905973800,1.954973876953125,-0.005506884306669235,0.004966795444488525,0.011493937112390995
1783003421916024600,1.965024658203125,-0.0024226775858551264,0.009102684445679188,0.01121883187443018
1783003421926075000,1.975074951171875,-0.005517270881682634,0.00845580268651247,0.009820139966905117
1783003421936127200,1.985127197265625,-0.0035569178871810436,0.002442118711769581,0.005076784174889326
1783003421946178300,1.99517822265625,-0.006354035809636116,0.0010096043115481734,0.007495200727134943
1783003421956229000,2.00522900390625,-0.003817907767370343,0.003996872343122959,0.008041148073971272
1783003421966280000,2.015280029296875,-0.0006969492533244193,0.008805476129055023,0.010815097019076347
1783003421976331000,2.0253310546875,-0.004236290231347084,0.006984406150877476,0.00971414614468813
1783003421986383000,2.035383056640625,-0.001615207176655531,0.003171824850142002,0.0070374030619859695
1783003421996434200,2.04543408203125,-0.005648564547300339,0.0029923277907073498,0.0056741307489573956
1783003422006485000,2.055485107421875,-0.004540956113487482,0.001981391804292798,0.006078398786485195
1783003422016536000,2.0655361328125,-0.0034940673504024744,0.006204099860042334,0.006741526070982218
1783003422026587100,2.075587158203125,-0.003364371368661523,0.005870139691978693,0.00800279900431633
1783003422036638000,2.085637939453125,-0.004905809182673693,0.003322825999930501,0.010153035633265972
1783003422046690000,2.09568994140625,-0.004854676313698292,0.0019646140281111,0.009947439655661583
1783003422056741000,2.1057412109375,-0.0026969832833856344,0.003103115363046527,0.006283728405833244
1783003422066792000,2.1157919921875,-0.0031790153589099646,0.005507949739694595,0.008901349268853664
1783003422076843000,2.125843017578125,-0.004720186814665794,0.006036054342985153,0.007863249629735947
1783003422086894000,2.13589404296875,-0.004258394706994295,0.007021158002316952,0.007489075418561697
1783003422096946000,2.14594580078125,-0.0037952708080410957,0.0016476977616548538,0.00768774701282382
1783003422106997000,2.1559970703125,-0.0018066884949803352,0.0032229574862867594,0.008627044036984444
1783003422117048000,2.166048095703125,-0.005037635564804077,0.0029973878990858793,0.0055180699564516544
1783003422127099100,2.17609912109375,-0.002014148747548461,0.005178516730666161,0.008372179232537746
1783003422137150000,2.18614990234375,-0.0037318875547498465,0.0036615801509469748,0.007841411046683788
1783003422147202000,2.1962021484375,-0.004554005339741707,0.0035545211285352707,0.007836084812879562
1783003422157253000,2.206253173828125,-0.0038485340774059296,0.0022386531345546246,0.00860440731048584
1783003422167304000,2.216303955078125,-0.0025984463281929493,0.0034961977507919073,0.009853163734078407
1783003422177355000,2.22635498046875,-0.002683401107788086,0.0065226140432059765,0.0076126460917294025
1783003422187406000,2.236406005859375,-0.0017142767319455743,0.006441654171794653,0.008736499585211277
1783003422197457200,2.24645703125,-0.006430468522012234,0.005407282151281834,0.009380185976624489
1783003422207509000,2.256509033203125,-0.0031036478467285633,0.003871171036735177,0.008843558840453625
1783003422217560000,2.26656005859375,-0.005672266706824303,0.005706355441361666,0.007998538203537464
1783003422227611100,2.276611083984375,-0.0032900692895054817,0.00444055488333106,0.008625445887446404
1783003422237662000,2.286661865234375,-0.003792874049395323,0.0013840447645634413,0.012314989231526852
1783003422247713000,2.296713134765625,-0.004706870764493942,0.0029017801862210035,0.007847003638744354
1783003422257765000,2.30676513671875,-0.0037356161046773195,0.0012154667638242245,0.005831523798406124
1783003422267816200,2.316816162109375,-0.005405950825661421,0.003023220458999276,0.007970308884978294
1783003422277867000,2.326866943359375,-0.00506959343329072,0.006716225761920214,0.011543737724423409
1783003422287918000,2.33691796875,-0.004283428192138672,0.006904511246830225,0.00993305817246437
1783003422297969200,2.34696923828125,-0.004125769250094891,0.005486644338816404,0.009973005391657352
1783003422308020200,2.357020263671875,-0.002145442645996809,0.005017661955207586,0.006140716839581728
1783003422318072000,2.367072021484375,-0.002778475871309638,0.0043891556560993195,0.007744472473859787
1783003422328123100,2.377123046875,-0.005788912996649742,0.00615190202370286,0.007867510430514812
1783003422338174200,2.38717431640625,-0.0070246197283267975,0.004524177871644497,0.009635583497583866
1783003422348225000,2.39722509765625,-0.0031523837242275476,0.004274373408406973,0.009695503860712051
1783003422358276000,2.407276123046875,-0.007583883590996265,0.003918308764696121,0.0060267336666584015
1783003422368328200,2.417328125,-0.0008362325606867671,0.0044054011814296246,0.0067511131055653095
1783003422378379000,2.42737890625,-0.003151052165776491,0.001076982356607914,0.0073596457950770855
1783003422388430000,2.43743017578125,-0.004194478504359722,0.004834969062358141,0.009759154170751572
1783003422398481200,2.447481201171875,-0.002013882389292121,0.004447212442755699,0.007619037292897701
1783003422408532200,2.4575322265625,-0.005249889567494392,0.003915379289537668,0.008824383839964867
1783003422418583000,2.4675830078125,-0.004024036228656769,0.00506959343329072,0.008432899601757526
1783003422428635100,2.47763525390625,-0.004689293913543224,0.004610464442521334,0.009159942157566547
1783003422438686200,2.487686279296875,-0.0018250643042847514,0.0031907332595437765,0.007761516608297825
1783003422448737000,2.497737060546875,-0.003916178364306688,0.003977697342634201,0.011005247011780739
1783003422458788000,2.5077880859375,-0.004116980824619532,0.006317284423857927,0.007016630377620459
1783003422468839200,2.517839111328125,-0.0019504991360008717,0.0033486587926745415,0.009437710046768188
1783003422478891000,2.52789111328125,-0.00538544449955225,0.003087668912485242,0.005933256354182959
1783003422488942000,2.537942138671875,-0.001085770782083273,0.0015904398169368505,0.006313555873930454
1783003422498993200,2.5479931640625,-0.004197940696030855,0.0046267095021903515,0.005007541738450527
1783003422509044200,2.558044189453125,-0.003911118488758802,0.006688529159873724,0.005507150664925575
1783003422519095300,2.56809521484375,-0.008419583551585674,0.0028786107432097197,0.00974583812057972
1783003422529146000,2.57814599609375,-0.005628058221191168,0.005391303449869156,0.004802478477358818
1783003422539198200,2.5881982421875,-0.004169445019215345,0.004324440844357014,0.006412891671061516
1783003422549249300,2.598249267578125,-0.004579305648803711,0.0043801008723676205,0.00863157119601965
1783003422559300000,2.608300048828125,-0.0035217641852796078,0.005603556986898184,0.007078149355947971
1783003422569351200,2.61835107421875,-0.003967843484133482,0.005490372888743877,0.007221427746117115
1783003422579402200,2.62840234375,-0.001984054921194911,0.004189418628811836,0.007078682072460651
1783003422589454000,2.6384541015625,-0.0026770094409585,0.002769687445834279,0.007978297770023346
1783003422599505200,2.648505126953125,-0.003823766717687249,0.00478516798466444,0.008252071216702461
1783003422609556200,2.65855615234375,-0.0031963258516043425,0.007213437929749489,0.007220362313091755
1783003422619607300,2.668607177734375,-0.006387325469404459,0.0067665595561265945,0.007961519993841648
1783003422629657900,2.678657958984375,-0.004704740364104509,0.002719353651627898,0.006644054315984249
1783003422639709000,2.688708984375,-0.0010735202813521028,0.00446851784363389,0.005613677203655243
1783003422649761300,2.69876123046875,-0.003649862250313163,0.006305033806711435,0.00977406743913889
1783003422659812000,2.70881201171875,-0.002360359765589237,0.004703941289335489,0.008696019649505615
1783003422669863000,2.71886279296875,-0.006091714836657047,0.004234426189213991,0.005002748221158981
1783003422679914000,2.7289140625,-0.004804076161235571,0.004222175572067499,0.006237389519810677
1783003422689965000,2.738965087890625,-0.005060538649559021,0.004305532667785883,0.006166283041238785
1783003422700017000,2.749016845703125,-0.004540956113487482,0.0020993698853999376,0.0070187607780098915
1783003422710068000,2.75906787109375,-0.004315119702368975,0.004268248099833727,0.007210774812847376
1783003422720119000,2.769119140625,-0.005278385244309902,0.0057007623836398125,0.008376706391572952
1783003422730170000,2.779170166015625,-0.0016447682864964008,0.00535561703145504,0.007190801203250885
1783003422740221000,2.789220947265625,-0.006660832092165947,0.006788930390030146,0.008469118736684322
1783003422750272000,2.79927197265625,-0.0038725025951862335,0.004328435752540827,0.0067726848646998405
1783003422760324000,2.809323974609375,-0.005221393425017595,0.004744155332446098,0.006074403878301382
1783003422770375000,2.819375,-0.00510021997615695,0.004029628820717335,0.008856608532369137
1783003422780426000,2.829426025390625,-0.0029976540245115757,0.004027498420327902,0.009212139993906021
1783003422790477000,2.83947705078125,-0.004701544530689716,0.006682403851300478,0.006223274860531092
1783003422800528100,2.849528076171875,-0.004120975267142057,0.003632285399362445,0.008254733867943287
1783003422810580000,2.859580078125,-0.00720491586253047,0.0034645062405616045,0.007104514632374048
1783003422820631000,2.869631103515625,-0.0046639940701425076,0.0030868700705468655,0.007111172657459974
1783003422830682000,2.87968212890625,-0.002823217073455453,0.0037888791412115097,0.010216951370239258
1783003422840733000,2.88973291015625,-0.0052086105570197105,0.006235791835933924,0.008402805775403976
1783003422850784000,2.899783935546875,-0.0032415995374321938,0.006850715726613998,0.007150853984057903
1783003422860835000,2.9098349609375,-0.0046722497791051865,0.006834736559540033,0.008155664429068565
1783003422870887200,2.91988720703125,-0.005381449591368437,0.005724464543163776,0.007991880178451538
1783003422880938000,2.92993798828125,-0.005563876125961542,0.0046730488538742065,0.008174306713044643
1783003422890989000,2.939989013671875,-0.0037148434203118086,0.005537244491279125,0.008438492193818092
1783003422901040000,2.9500400390625,-0.004384362138807774,0.007735684048384428,0.007253918331116438
1783003422911091200,2.96009130859375,-0.005331382155418396,0.0029033781029284,0.008917062543332577
1783003422921147100,2.970147216796875,-0.0015459649730473757,0.00301656243391335,0.0070680296048521996
1783003422931198200,2.9801982421875,-0.0032661007717251778,0.0027659591287374496,0.008051268756389618
1783003422941249000,2.9902490234375,-0.004162520635873079,0.005025118589401245,0.009245430119335651
1783003422951300000,3.000300048828125,-0.004818190820515156,0.0019467707024887204,0.004195543937385082
1783003422961351200,3.01035107421875,-0.0030594393610954285,0.004635232035070658,0.008929844945669174
1783003422971402200,3.02040234375,-0.0018186726374551654,0.004895955324172974,0.00809148233383894
1783003422981454000,3.0304541015625,-0.005393167492002249,0.004761732183396816,0.00815087091177702
1783003422991505200,3.040505126953125,-0.00270683690905571,0.007185474969446659,0.008754076436161995
1783003423001556200,3.05055615234375,-0.005937251262366772,0.005045624915510416,0.008077100850641727
1783003423011607300,3.060607177734375,-0.004274107050150633,0.0017771273851394653,0.007811850402504206
1783003423021658000,3.070658203125,-0.0034269557800143957,0.0018817896489053965,0.007161506451666355
1783003423031710200,3.080710205078125,-0.005175587255507708,0.0033723609521985054,0.0075969332829117775
1783003423041761300,3.09076123046875,-0.004059722647070885,0.0040456079877913,0.0082115912809968
1783003423051812000,3.10081201171875,-0.003944940399378538,0.005505020264536142,0.006762298755347729
1783003423061863200,3.11086328125,-0.0041585261933505535,0.004905276466161013,0.008570585399866104
1783003423071914200,3.120914306640625,-0.004024568945169449,0.005632053129374981,0.006090915761888027
1783003423081965300,3.13096533203125,-0.003952929750084877,0.004320712294429541,0.0049766493029892445
1783003423092017200,3.14101708984375,-0.006389455869793892,0.004292749334126711,0.00785818975418806
1783003423102068200,3.151068115234375,-0.0031414648983627558,0.00523790530860424,0.00811971165239811
1783003423112119300,3.161119384765625,-0.0027236149180680513,0.0067689563147723675,0.006697850301861763
1783003423122170000,3.171170166015625,-0.0038301581516861916,0.004323109518736601,0.008594552986323833
1783003423132221200,3.18122119140625,-0.004324174486100674,0.005633917171508074,0.00980496034026146
1783003423142272300,3.191272216796875,-0.001977929612621665,0.006295446306467056,0.00830879621207714
1783003423152324000,3.201323974609375,-0.003796336008235812,0.006931409239768982,0.007632619701325893
1783003423162375200,3.211375244140625,-0.004875182639807463,0.005339371506124735,0.008627576753497124
1783003423172426200,3.22142626953125,-0.006183593533933163,0.0037412086967378855,0.007898403331637383
1783003423182477300,3.231477294921875,-0.003861849894747138,0.0018847191240638494,0.007838215678930283
1783003423192528100,3.241528076171875,-0.004816593136638403,0.002957440447062254,0.008199074305593967
1783003423202580200,3.251580322265625,-0.003561445279046893,0.003510312642902136,0.00845340546220541
1783003423212631300,3.26163134765625,-0.004093545023351908,0.004554005339741707,0.008025968447327614
1783003423222682000,3.27168212890625,-0.00364746549166739,0.00580782163888216,0.0059961071237921715
1783003423232733200,3.281733154296875,-0.005601426586508751,0.006686931010335684,0.007830225862562656
1783003423242784000,3.291783935546875,-0.003680488560348749,0.005118861794471741,0.011179151013493538
1783003423252835000,3.3018349609375,-0.006342850625514984,0.008919458836317062,0.007870174013078213
1783003423262887200,3.31188720703125,-0.003528422210365534,0.007993744686245918,0.00646588858217001
1783003423272938200,3.321938232421875,-0.0027172232512384653,0.004619252867996693,0.009029979817569256
1783003423282989000,3.331989013671875,-0.0013960290234535933,0.0046661244705319405,0.008071774616837502
1783003423293040000,3.3420400390625,-0.0041492050513625145,0.0016889767721295357,0.0062704128213226795
1783003423303091000,3.352091064453125,-0.005546299275010824,0.002880475018173456,0.009969277307391167
1783003423313143300,3.362143310546875,-0.005227785091847181,0.0016178702935576439,0.006397977937012911
1783003423323194000,3.372194091796875,-0.005281314719468355,0.004099670331925154,0.007723433431237936
1783003423333245000,3.382244873046875,-0.004680771846324205,0.003916977439075708,0.006073338910937309
1783003423343296000,3.3922958984375,-0.007902664132416248,0.002380599733442068,0.009522132575511932
1783003423353347000,3.40234716796875,-0.005626726895570755,0.004355333745479584,0.008017712272703648
1783003423363398100,3.412398193359375,-0.003306048223748803,0.005927397403866053,0.01019857544451952
1783003423373450000,3.422449951171875,-0.0030663637444376945,0.006037119776010513,0.008382831700146198
1783003423383501000,3.4325009765625,-0.005226986017078161,0.00569969741627574,0.008823851123452187
1783003423393552100,3.44255224609375,-0.0025875272694975138,0.005279184319078922,0.009860087186098099
1783003423403603200,3.452603271484375,-0.003600327530875802,0.0016226640436798334,0.005311408545821905
1783003423413654000,3.462654052734375,-0.002853044541552663,0.0044983453117311,0.008057660423219204
1783003423423706000,3.4727060546875,-0.003973702434450388,0.004525776021182537,0.008804144337773323
1783003423433757200,3.482757080078125,-0.001907089608721435,0.004033091012388468,0.009918943047523499
1783003423443808000,3.49280810546875,-0.003858654061332345,0.0041582598350942135,0.00780652416869998
1783003423453859000,3.502859130859375,-0.003955593332648277,0.0051779840141534805,0.007169762160629034
1783003423463910100,3.51291015625,-0.0049401638098061085,0.004406199790537357,0.010832407511770725
1783003423473961200,3.522961181640625,-0.002144643571227789,0.004006725735962391,0.0075724320486187935
1783003423484013000,3.533012939453125,-0.004325506277382374,0.004856806714087725,0.01119140163064003
1783003423494064000,3.543064208984375,-0.0038634478114545345,0.004799549002200365,0.010394318029284477
1783003423504115200,3.553115234375,-0.004352137912064791,0.004388889297842979,0.008141282945871353
1783003423514166000,3.563166015625,-0.003733485471457243,0.005810751114040613,0.009797236882150173
1783003423524217000,3.573217041015625,-0.004885302856564522,0.003023753175511956,0.008931709453463554
1783003423534269200,3.583269287109375,-0.005832056514918804,0.0028972530271857977,0.007750864140689373
1783003423544320000,3.593320068359375,-0.0034381409641355276,0.003186205867677927,0.006718356627970934
1783003423554371000,3.60337109375,-0.0028884646017104387,0.0041063278913497925,0.008431834168732166
1783003423564422100,3.613422119140625,-0.00526746641844511,0.002784334821626544,0.008794822730123997
1783003423574473200,3.62347314453125,-0.004059456288814545,0.0030988543294370174,0.009358081966638565
1783003423584524000,3.63352392578125,-0.003337739733979106,0.005149754695594311,0.008556470274925232
1783003423594576100,3.643576171875,-0.00401684595271945,0.004197407979518175,0.009443568997085094
1783003423604627200,3.653627197265625,-0.003620833856984973,0.0028152274899184704,0.010149306617677212
1783003423614678300,3.66367822265625,-0.0030101709999144077,0.003994208760559559,0.009299226105213165
1783003423624729000,3.67372900390625,-0.003230414353311062,0.002752643311396241,0.008137022145092487
1783003423634780200,3.6837802734375,-0.0035665053874254227,0.0035505264531821012,0.008025968447327614
1783003423644831200,3.693831298828125,-0.0006727144937030971,0.0033276197500526905,0.008653941564261913
1783003423654883000,3.703883056640625,-0.00464694993570447,0.003492203075438738,0.006549245677888393
1783003423664934100,3.71393408203125,-0.004736431874334812,0.0011342403013259172,0.006552441511303186
1783003423674985200,3.723985107421875,-0.004475442226976156,0.004061587154865265,0.0070222229696810246
1783003423685036300,3.734036376953125,-0.004437092691659927,0.003754524514079094,0.0047031426802277565
1783003423695087000,3.744087158203125,-0.0018482337472960353,0.004877579398453236,0.010440923273563385
1783003423705139200,3.75413916015625,-0.005064267199486494,0.00564164062961936,0.010912302881479263
1783003423715190300,3.764190185546875,-0.00444028852507472,0.002627741079777479,0.007536479737609625
1783003423725241000,3.774240966796875,-0.004108725115656853,0.005320996046066284,0.007429420482367277
1783003423735292200,3.784292236328125,-0.003602191573008895,0.0036722328513860703,0.0065172878094017506
1783003423745343200,3.79434326171875,-0.0038453382439911366,0.0032410670537501574,0.007150853984057903
1783003423755394300,3.804394287109375,-0.003242398612201214,0.0052197957411408424,0.007487210910767317
1783003423765446100,3.814446044921875,-0.005044293589890003,0.005359877832233906,0.006172941066324711
1783003423775497200,3.824497314453125,-0.007674697786569595,0.002630936913192272,0.006268814671784639
1783003423785548300,3.83454833984375,-0.006929811555892229,0.0046091326512396336,0.005034972447901964
1783003423795599000,3.84459912109375,-0.004411792848259211,0.0041065942496061325,0.008247011341154575
1783003423805650200,3.854650146484375,-0.004333229269832373,0.00532685499638319,0.00734313391149044
1783003423815702300,3.864702392578125,-0.00469621829688549,0.003510579001158476,0.008153533563017845
1783003423825753000,3.874753173828125,-0.00398755120113492,0.005282113794237375,0.007527158595621586
1783003423835804200,3.88480419921875,-0.0024703482631593943,0.005075186025351286,0.00863050576299429
1783003423845855200,3.894855224609375,-0.006250971462577581,0.002840793924406171,0.0075782909989356995
1783003423855906300,3.90490625,-0.006864564027637243,0.0065292720682919025,0.0062855929136276245
1783003423865957000,3.91495703125,-0.004729241598397493,0.007505054119974375,0.008037153631448746
1783003423876009200,3.92500927734375,-0.005673065781593323,0.0017536915838718414,0.009268333204090595
1783003423886060300,3.935060302734375,-0.004435494542121887,0.004288222175091505,0.0068022459745407104
1783003423896111400,3.945111328125,-0.0031340080313384533,0.005152151454240084,0.007004113402217627
1783003423906162000,3.955161865234375,-0.0041342913173139095,0.0036107138730585575,0.006061621010303497
1783003423916213000,3.965212890625,-0.0054943677969276905,0.004432831425219774,0.006593454163521528
1783003423926261000,3.975260986328125,-0.001484445994719863,0.005768406670540571,0.010157829150557518
1783003423936312800,3.985312744140625,-0.003570766421034932,0.002925216220319271,0.009138370864093304
1783003423946364000,3.995364013671875,-0.004224039614200592,0.003497795667499304,0.008432899601757526
1783003423956415000,4.0054150390625,-0.004247475415468216,0.005575594026595354,0.006038983818143606
1783003423966466000,4.015466064453125,-0.0017089504981413484,0.004532434046268463,0.007626760751008987
1783003423976516900,4.025516845703125,-0.005105279851704836,0.004967061802744865,0.008686965331435204
1783003423986569000,4.03556884765625,-0.005805957596749067,0.00672368286177516,0.005764412228018045
1783003423996620000,4.0456201171875,-0.006619819439947605,0.003734018187969923,0.006898918654769659
1783003424006670800,4.0556708984375,-0.004862132947891951,0.00538544449955225,0.007242200430482626
1783003424016722000,4.065721923828125,-0.004397944081574678,0.003965180367231369,0.007795072626322508
1783003424026773000,4.07577294921875,-0.0035444011446088552,0.0032176312524825335,0.008831574581563473
1783003424036824000,4.085823974609375,-0.005760683678090572,0.0036040558479726315,0.008117315359413624
1783003424046876000,4.0958759765625,-0.00566933723166585,0.0036195022985339165,0.006362025626003742
1783003424056927000,4.105927001953125,-0.0028336034156382084,0.004416320007294416,0.009724532254040241
1783003424066978000,4.11597802734375,-0.0038037928752601147,0.005677592940628529,0.006661897525191307
1783003424077028900,4.12602880859375,-0.0041153826750814915,0.005498362239450216,0.006837932392954826
1783003424087080000,4.136079833984375,-0.003840544493868947,0.005768939387053251,0.004729507956653833
1783003424097131000,4.146131103515625,-0.005338838789612055,0.004315652418881655,0.0059987702406942844
1783003424107183000,4.15618310546875,-0.0036155073903501034,0.003959587775170803,0.007486145943403244
1783003424117234000,4.16623388671875,-0.0033278861083090305,0.007406517397612333,0.008386560715734959
1783003424127285000,4.176284912109375,-0.0023670175578445196,0.005861883983016014,0.0073316823691129684
1783003424137336000,4.186336181640625,-0.005601959303021431,0.00196381495334208,0.009593505412340164
1783003424147387100,4.19638720703125,-0.0037531929556280375,0.001306280493736267,0.006972688250243664
1783003424157439000,4.20643896484375,-0.003448793664574623,0.004347876645624638,0.006251237820833921
1783003424167490000,4.216489990234375,-0.004609399009495974,0.007303186692297459,0.006695453077554703
1783003424177541000,4.226541015625,-0.004263720940798521,0.003400324145331979,0.007631554268300533
1783003424187592000,4.236592041015625,-0.006388124544173479,0.005422462243586779,0.008776979520916939
1783003424197643000,4.24664306640625,-0.005555620416998863,0.0018112158868461847,0.010655040852725506
1783003424207694000,4.256694091796875,-0.0016245282022282481,0.0046570696868002415,0.00694845337420702
1783003424217746000,4.266745849609375,-0.006758570205420256,0.002445580903440714,0.009770339354872704
1783003424227797000,4.276796875,-0.004093811381608248,0.0067841364070773125,0.009898170828819275
1783003424237848000,4.28684814453125,-0.003796069882810116,0.004834436345845461,0.007440339308232069
1783003424247899100,4.296899169921875,-0.004508465528488159,0.005319664254784584,0.006952181924134493
1783003424257950000,4.306949951171875,-0.004860268905758858,0.0027537085115909576,0.00899855513125658
1783003424268002000,4.317001953125,-0.002040247665718198,0.003698065411299467,0.008391886949539185
1783003424278053000,4.32705322265625,-0.006941795814782381,0.006566023454070091,0.006251237820833921
1783003424288104000,4.33710400390625,-0.003963049966841936,0.003885552054271102,0.008580172434449196
1783003424298155000,4.347155029296875,-0.002159024588763714,0.005586246494203806,0.007814513519406319
1783003424308206000,4.3572060546875,-0.0037052559200674295,0.00737349409610033,0.006566556170582771
1783003424318257000,4.3672568359375,-0.0013646037550643086,0.006052033510059118,0.006561229936778545
1783003424328309000,4.37730908203125,-0.0038456046022474766,0.00549356872215867,0.007660316303372383
1783003424338360000,4.387360107421875,-0.00566960358992219,0.006603041663765907,0.008271245285868645
1783003424348411100,4.3974111328125,-0.0021142836194485426,0.004053064621984959,0.008224906399846077
1783003424358462000,4.4074619140625,-0.001675128354690969,0.0043990095146000385,0.006232862360775471
1783003424368512800,4.4175126953125,-0.005282380152493715,0.004592621233314276,0.007438208907842636
1783003424378563800,4.427563720703125,-0.006482134107500315,0.004172374494373798,0.008615858852863312
1783003424388616200,4.4376162109375,-0.006163886282593012,0.006598514039069414,0.00839747954159975
1783003424398666800,4.447666748046875,-0.0032415995374321938,0.0032674323301762342,0.010076070204377174
1783003424408717800,4.4577177734375,-0.0018716695485636592,0.0057468353770673275,0.006941795814782381
1783003424418769000,4.467768798828125,-0.004984638653695583,0.006743656471371651,0.006090383045375347
1783003424428820000,4.477820068359375,-0.0029862024821341038,0.006848851218819618,0.008085090667009354
1783003424438871800,4.487871826171875,-0.003428287338465452,0.006748982705175877,0.007246461231261492
1783003424448923000,4.4979228515625,-0.002662362065166235,0.004403270315378904,0.009082444943487644
1783003424458974000,4.507973876953125,-0.002918025478720665,0.003472495824098587,0.007902664132416248
1783003424469025000,4.51802490234375,-0.006630206014961004,0.00370126124471426,0.005841644015163183
1783003424479075800,4.528075927734375,-0.006392651703208685,0.003427488263696432,0.007959655486047268
1783003424489127000,4.538126953125,-0.0030133668333292007,0.0029824741650372744,0.006986536551266909
1783003424499179000,4.548178955078125,-0.0016548882704228163,0.006998787168413401,0.008642490021884441
1783003424509229800,4.558229736328125,-0.004727643448859453,0.006346312817186117,0.00765871861949563
1783003424519281000,4.568281005859375,-0.003966245800256729,0.007195861078798771,0.010354902595281601
1783003424529332000,4.57833203125,-0.002831206424161792,0.008169513195753098,0.00902571901679039
1783003424539383000,4.588383056640625,-0.006443251855671406,0.005981726106256247,0.008157528936862946
1783003424549433900,4.598433837890625,-0.003762513864785433,0.003216033335775137,0.009752229787409306
1783003424559486000,4.60848583984375,-0.00541260838508606,0.0024985778145492077,0.00746111199259758
1783003424569537000,4.618537109375,-0.004735366906970739,0.002694852650165558,0.007547398563474417
1783003424579587800,4.628587890625,-0.00589517317712307,0.004400873556733131,0.005291434936225414
1783003424589639000,4.638638916015625,-0.004773450084030628,0.003570766421034932,0.006160690449178219
1783003424599690000,4.64868994140625,-0.004031759686768055,0.004116448108106852,0.009505621157586575
1783003424609741800,4.658741943359375,-0.006719155237078667,0.005456816870719194,0.00392736354842782
1783003424619793000,4.66879296875,-0.005199822131544352,0.003969707991927862,0.00768801337108016
1783003424629844000,4.678843994140625,-0.0020722055342048407,0.006841128226369619,0.007967645302414894
1783003424639895000,4.68889501953125,-0.004817658569663763,0.003754258155822754,0.005531385540962219
1783003424649945900,4.69894580078125,-0.0035473306197673082,0.0051966262981295586,0.008881642483174801
1783003424659997000,4.708996826171875,-0.002975017298012972,0.001856755930930376,0.007150321267545223
1783003424670049000,4.719049072265625,-0.004489290527999401,0.0036184368655085564,0.009876066818833351
1783003424680099800,4.729099853515625,-0.005654157139360905,0.0026405241806060076,0.0054664043709635735
1783003424690151000,4.73915087890625,-0.004102333448827267,0.005732986610382795,0.004505802411586046
1783003424700202000,4.749201904296875,-0.0029880667570978403,0.0025502429343760014,0.009011338464915752
1783003424710253000,4.759253173828125,-0.005825132131576538,0.005929794628173113,0.007596134208142757
1783003424720304000,4.76930419921875,-0.004578506574034691,0.007836883887648582,0.00743208359926939
1783003424730356000,4.77935595703125,-0.0032929987646639347,0.005373193882405758,0.009078183211386204
1783003424740407000,4.789406982421875,-0.003412840887904167,0.0054626758210361,0.00821132492274046
1783003424750458000,4.7994580078125,-0.004720453172922134,0.004385161213576794,0.008971923030912876
1783003424760509000,4.809509033203125,-0.005149488337337971,0.005134840961545706,0.006755374372005463
1783003424770560000,4.81956005859375,-0.004609931726008654,0.0032059133518487215,0.00839641410857439
1783003424780612000,4.829612060546875,-0.004393949639052153,0.005570800509303808,0.00620995881035924
1783003424790663000,4.839662841796875,-0.004226702731102705,0.003983289934694767,0.008233162574470043
1783003424800714000,4.8497138671875,-0.0026117621455341578,0.005335110705345869,0.008383897133171558
1783003424810765000,4.85976513671875,-0.005051217507570982,0.0031547807157039642,0.008550344966351986
1783003424820816100,4.869816162109375,-0.0021752698812633753,0.0037358824629336596,0.008592423051595688
1783003424830867000,4.879866943359375,-0.004795554094016552,0.003884752979502082,0.00820972677320242
1783003424840919000,4.8899189453125,-0.003713778220117092,0.004892759490758181,0.006551908794790506
1783003424850970000,4.89997021484375,-0.0036101811565458775,0.004985171370208263,0.007522630970925093
1783003424861021000,4.91002099609375,-0.004009921569377184,0.0037968687247484922,0.00914689339697361
1783003424871072000,4.920072021484375,-0.005251220893114805,0.004040548112243414,0.009994843043386936
1783003424881123000,4.930123046875,-0.002796851797029376,0.0031848743092268705,0.010230266489088535
1783003424891174100,4.940174072265625,-0.004010987002402544,0.0029265477787703276,0.007186539936810732
1783003424901226000,4.95022607421875,-0.003275688039138913,0.004741491749882698,0.009141034446656704
1783003424911277000,4.960277099609375,-0.004810734186321497,0.0051902346312999725,0.0029923277907073498
1783003424921328000,4.970328125,-0.002573678968474269,0.004120975267142057,0.009576727636158466
1783003424931379200,4.980379150390625,-0.004451207350939512,0.0031933963764458895,0.007692008279263973
1783003424941429800,4.9904296875,-0.005784652195870876,0.004307663068175316,0.007142065558582544
1783003424951482000,5.000482177734375,-0.002058623591437936,0.00660410663112998,0.008578307926654816
1783003424961533200,5.010533203125,-0.003123355330899358,0.00893810112029314,0.009820139966905117
1783003424971584000,5.020583984375,-0.0017787253018468618,0.006788664031773806,0.006448578089475632
1783003424981634800,5.030634765625,-0.005108209326863289,0.004180896561592817,0.00948191899806261
1783003424991686000,5.040685791015625,-0.004674113821238279,0.00606534956023097,0.00743341539055109
1783003425001737000,5.050737060546875,-0.0039113848470151424,0.0032916669733822346,0.008450742810964584
1783003425011789000,5.0607890625,-0.0032802154310047626,0.004456001333892345,0.00717721926048398
1783003425021840000,5.07083984375,-0.003373692510649562,0.005831257440149784,0.0057132793590426445
1783003425031891000,5.080890869140625,-0.004622448701411486,0.003570233704522252,0.007184942252933979
1783003425041941800,5.090941650390625,-0.0031017838045954704,0.004689293913543224,0.009003348648548126
1783003425051992800,5.100992919921875,-0.002724946476519108,0.006612362805753946,0.0067937239073216915
1783003425062044000,5.1110439453125,-0.0028005801141262054,0.007767109200358391,0.010936005041003227
1783003425072095700,5.121095703125,-0.004680505488067865,0.004698082339018583,0.007277087774127722
1783003425082146800,5.131146728515625,-0.005047488957643509,0.0030043120495975018,0.010280600748956203
1783003425092198000,5.141197998046875,-0.005784385837614536,0.004319913685321808,0.00947712454944849
1783003425102249000,5.1512490234375,-0.006213687360286713,0.006028331350535154,0.0075876121409237385
1783003425112300000,5.161300048828125,-0.006660832092165947,0.00663366774097085,0.008683769032359123
1783003425122351900,5.171351806640625,-0.005005411338061094,0.002766491612419486,0.008313856087625027
1783003425132403000,5.18140283203125,-0.006521814968436956,0.0017057546647265553,0.004369714763015509
1783003425142454000,5.1914541015625,-0.0050099384970963,0.003204581793397665,0.005260808393359184
1783003425152504800,5.2015048828125,-0.003996339626610279,0.0034296188969165087,0.005750563926994801
1783003425162556000,5.211555908203125,-0.0047031426802277565,0.0051742554642260075,0.009562878869473934
1783003425172607000,5.22160693359375,-0.0037286917213350534,0.006714628078043461,0.010575679130852222
1783003425182658800,5.231658935546875,-0.0035771578550338745,0.0054328483529388905,0.010063020512461662
1783003425192710000,5.2417099609375,-0.005013134330511093,0.004718322306871414,0.007483748719096184
1783003425202761000,5.251760986328125,-0.004473311826586723,0.006472013890743256,0.009886719286441803
1783003425212812000,5.26181201171875,-0.004698881413787603,0.002350772265344858,0.008014516904950142
1783003425222862800,5.27186279296875,-0.003855724586173892,0.00401524780318141,0.0067820060066878796
1783003425232915000,5.2819150390625,-0.0026788737159222364,0.004490089602768421,0.009276589378714561
1783003425242966000,5.291966064453125,-0.0041617220267653465,0.00577719509601593,0.008833705447614193
1783003425253016800,5.302016845703125,-0.0043902210891246796,0.00618119677528739,0.008260326460003853
1783003425263068000,5.31206787109375,-0.003364371368661523,0.0038519962690770626,0.0072898706421256065
1783003425273119000,5.322118896484375,-0.005834985990077257,0.0055063520558178425,0.0051681301556527615
1783003425283170000,5.332170166015625,-0.0024884575977921486,0.004355333745479584,0.005321261938661337
1783003425293222000,5.342221923828125,-0.005110339727252722,0.003043993143364787,0.011323761194944382
1783003425303273000,5.35227294921875,-0.0021457087714225054,0.004488757811486721,0.007153250742703676
1783003425313324000,5.362323974609375,-0.004698082339018583,0.002372077666223049,0.010724017396569252
1783003425323375000,5.372375,-0.005889314226806164,0.000943025341257453,0.007951133884489536
1783003425333426000,5.382426025390625,-0.0027427896857261658,0.0008735168376006186,0.006360960192978382
1783003425343478000,5.39247802734375,-0.0043984767980873585,0.003858920419588685,0.010762899182736874
1783003425353529000,5.402529052734375,-0.0036301547661423683,0.004691424313932657,0.011140535585582256
1783003425363580000,5.412579833984375,-0.004853610880672932,0.006938599981367588,0.010804444551467896
1783003425373631000,5.422630859375,-0.0031406658235937357,0.006293582264333963,0.008174839429557323
1783003425383682000,5.43268212890625,-0.0054845139384269714,0.003841609926894307,0.008411061950027943
1783003425393733000,5.442733154296875,-0.004196343012154102,0.004592088516801596,0.006616357248276472
1783003425403785000,5.452784912109375,-0.0038722362369298935,0.0027089675422757864,0.009856891818344593
1783003425413836000,5.4628359375,-0.0031465247739106417,-0.00031878036679700017,0.010006295517086983
1783003425423887000,5.47288720703125,-0.005538043566048145,0.004728975240141153,0.0065106297843158245
1783003425433938000,5.48293798828125,-0.004181429278105497,-0.00011265171633567661,0.006418750621378422
1783003425443989000,5.492989013671875,-0.0043931505642831326,0.001874332781881094,0.007625961676239967
1783003425454040000,5.5030400390625,-0.004982774145901203,0.010734137147665024,0.018097244203090668
1783003425464092000,5.513091796875,-0.019001919776201248,0.301633358001709,0.1083080992102623
1783003425474143000,5.52314306640625,0.006452839355915785,-0.07904022186994553,0.007871238514780998
1783003425484194000,5.533194091796875,0.008413990959525108,-0.027701135724782944,-0.019232017919421196
1783003425494245000,5.5432451171875,-0.014942464418709278,0.11512552201747894,0.06613907217979431
1783003425504296200,5.553296142578125,-0.006229932885617018,-0.04123851656913757,0.004171309061348438
1783003425514348000,5.56334814453125,-0.001062068622559309,0.04561861604452133,0.019726300612092018
1783003425524399000,5.573399169921875,0.0033127060160040855,-0.025050491094589233,0.0013917679898440838
1783003425534450200,5.5834501953125,-0.007278152741491795,0.02329014241695404,0.011342402547597885
1783003425544501000,5.5935009765625,-0.003718571737408638,-0.005714877508580685,-0.0004777711001224816
1783003425554552000,5.603552001953125,-0.0018988338997587562,-0.027897678315639496,-0.015838617458939552
1783003425564603000,5.613602783203125,-0.0022029669489711523,-0.12421462684869766,-0.04412085562944412
1783003425574655000,5.623655029296875,-0.002864762442186475,-0.11121413856744766,-0.04073038697242737
