time,seconds_elapsed,z,y,x
1783003179498364200,0.0733642578125,-0.8837738037109375,-0.49530029296875,0.0702972412109375
1783003179508416300,0.083416259765625,-0.884033203125,-0.50634765625,0.0642852783203125
1783003179518468400,0.09346826171875,-0.8845367431640625,-0.4926605224609375,0.0879058837890625
1783003179528519400,0.10351953125,-0.8583984375,-0.475372314453125,0.1280364990234375
1783003179538571300,0.1135712890625,-0.8200225830078125,-0.474853515625,0.1424560546875
1783003179548622300,0.123622314453125,-0.82269287109375,-0.475799560546875,0.1539459228515625
1783003179558674400,0.13367431640625,-0.8564453125,-0.4764556884765625,0.1566619873046875
1783003179568726300,0.143726318359375,-0.87493896484375,-0.480133056640625,0.147857666015625
1783003179578777300,0.15377734375,-0.86505126953125,-0.478607177734375,0.1333160400390625
1783003179588829200,0.1638291015625,-0.8343048095703125,-0.47467041015625,0.112762451171875
1783003179598881300,0.17388134765625,-0.8103790283203125,-0.4729156494140625,0.0958251953125
1783003179608932400,0.183932373046875,-0.805145263671875,-0.478271484375,0.082550048828125
1783003179618984200,0.193984130859375,-0.8134307861328125,-0.4848175048828125,0.076629638671875
1783003179629036300,0.204036376953125,-0.812652587890625,-0.48779296875,0.0682525634765625
1783003179639087000,0.214087158203125,-0.7952728271484375,-0.48211669921875,0.051971435546875
1783003179649139200,0.22413916015625,-0.7825469970703125,-0.468597412109375,0.045684814453125
1783003179659190300,0.234190185546875,-0.7815093994140625,-0.4508819580078125,0.067108154296875
1783003179669242400,0.244242431640625,-0.785919189453125,-0.4326629638671875,0.1026611328125
1783003179679300000,0.254300048828125,-0.75921630859375,-0.42529296875,0.1119232177734375
1783003179689351200,0.26435107421875,-0.70849609375,-0.4299468994140625,0.0634918212890625
1783003179699403000,0.274403076171875,-0.6795196533203125,-0.42626953125,0.01727294921875
1783003179709455400,0.284455322265625,-0.69781494140625,-0.4174346923828125,-0.01409912109375
1783003179719506200,0.294506103515625,-0.7592315673828125,-0.3729705810546875,-0.0641021728515625
1783003179729558300,0.304558349609375,-0.8398284912109375,-0.290557861328125,-0.0947113037109375
1783003179739610000,0.314610107421875,-0.7239532470703125,-0.251373291015625,-0.157958984375
1783003179749661200,0.3246611328125,-0.731658935546875,-0.3260955810546875,-0.3427581787109375
1783003179759713300,0.33471337890625,-1.118865966796875,-0.44580078125,-0.4357757568359375
1783003179769764000,0.34476416015625,-1.1428680419921875,-0.460113525390625,-0.502532958984375
1783003179779816200,0.354816162109375,-1.0294342041015625,-0.3729400634765625,-0.5137786865234375
1783003179789868000,0.364867919921875,-0.7488250732421875,-0.259368896484375,-0.445343017578125
1783003179799919000,0.374919189453125,-0.6683502197265625,-0.1867218017578125,-0.33990478515625
1783003179809971200,0.38497119140625,-0.8130950927734375,-0.137847900390625,-0.2844390869140625
1783003179820023000,0.39502294921875,-1.02239990234375,-0.1579437255859375,-0.2277069091796875
1783003179830074000,0.40507421875,-0.92669677734375,-0.257476806640625,0.024383544921875
1783003179840126200,0.415126220703125,-0.76263427734375,-0.3675689697265625,0.469970703125
1783003179850178300,0.42517822265625,-1.3141632080078125,-0.48504638671875,0.4783477783203125
1783003179860229400,0.4352294921875,-1.853729248046875,-0.5393218994140625,0.1556396484375
1783003179870281200,0.44528125,-1.84222412109375,-0.500823974609375,-0.006134033203125
1783003179880332300,0.455332275390625,-1.6487884521484375,-0.4557952880859375,0.0061187744140625
1783003179890384100,0.465384033203125,-1.6405181884765625,-0.48699951171875,0.0843658447265625
1783003179900436200,0.475436279296875,-1.702117919921875,-0.5670166015625,0.1346588134765625
1783003179910487300,0.4854873046875,-1.6750640869140625,-0.6274566650390625,0.148040771484375
1783003179920539100,0.4955390625,-1.576446533203125,-0.6836700439453125,0.1109771728515625
1783003179930591200,0.50559130859375,-1.532470703125,-0.7630767822265625,0.0617523193359375
1783003179940642000,0.51564208984375,-1.5379180908203125,-0.8595428466796875,0.094879150390625
1783003179950694100,0.525694091796875,-1.5103759765625,-0.992431640625,0.1750335693359375
1783003179960746000,0.53574609375,-1.4249114990234375,-1.159881591796875,0.2136077880859375
1783003179970797000,0.545797119140625,-1.3576507568359375,-1.237274169921875,0.1762847900390625
1783003179980849200,0.55584912109375,-1.287384033203125,-1.1953582763671875,0.06689453125
1783003179990900000,0.56589990234375,-1.16888427734375,-1.0723876953125,-0.0178070068359375
1783003180000952300,0.575952392578125,-1.03057861328125,-0.951019287109375,-0.0605621337890625
1783003180011004200,0.586004150390625,-0.9394989013671875,-0.8401031494140625,-0.09967041015625
1783003180021055200,0.59605517578125,-0.8470611572265625,-0.720672607421875,-0.1353912353515625
1783003180031107000,0.606107177734375,-0.7214202880859375,-0.5838470458984375,-0.1554412841796875
1783003180041159200,0.6161591796875,-0.629638671875,-0.450103759765625,-0.187774658203125
1783003180051210200,0.626210205078125,-0.5834808349609375,-0.33343505859375,-0.2432861328125
1783003180061262000,0.636261962890625,-0.5588226318359375,-0.2383575439453125,-0.32196044921875
1783003180071314200,0.646314208984375,-0.576019287109375,-0.1772308349609375,-0.4002685546875
1783003180081365000,0.656364990234375,-0.5916290283203125,-0.1538543701171875,-0.4096832275390625
1783003180091417000,0.6664169921875,-0.562225341796875,-0.13543701171875,-0.3607635498046875
1783003180101468200,0.67646826171875,-0.5236053466796875,-0.1283416748046875,-0.316375732421875
1783003180111520000,0.68652001953125,-0.4654998779296875,-0.1335906982421875,-0.2040252685546875
1783003180121572400,0.696572265625,-0.4228973388671875,-0.1613616943359375,-0.0494232177734375
1783003180131623200,0.706623046875,-0.4437713623046875,-0.1916351318359375,-0.0243682861328125
1783003180141675300,0.71667529296875,-0.4715118408203125,-0.1887969970703125,-0.0460052490234375
1783003180151727000,0.72672705078125,-0.4473724365234375,-0.1509552001953125,-0.03350830078125
1783003180161778200,0.736778076171875,-0.4123992919921875,-0.0798187255859375,-0.053680419921875
1783003180171830300,0.746830322265625,-0.40301513671875,-0.0409698486328125,-0.0932159423828125
1783003180181882000,0.756882080078125,-0.3856201171875,-0.065826416015625,-0.0885467529296875
1783003180191933200,0.76693310546875,-0.371490478515625,-0.1174774169921875,-0.0776519775390625
1783003180201985000,0.776985107421875,-0.357330322265625,-0.1505126953125,-0.080841064453125
1783003180212036000,0.7870361328125,-0.31988525390625,-0.1777801513671875,-0.059844970703125
1783003180222088200,0.797088134765625,-0.2757415771484375,-0.1986236572265625,-0.0602874755859375
1783003180232140000,0.80714013671875,-0.27557373046875,-0.19500732421875,-0.0853729248046875
1783003180242191000,0.817191162109375,-0.279693603515625,-0.17047119140625,-0.1020050048828125
1783003180252243000,0.827242919921875,-0.2527313232421875,-0.1853485107421875,-0.100677490234375
1783003180262295300,0.83729541015625,-0.2386474609375,-0.1878814697265625,-0.0685882568359375
1783003180272346400,0.847346435546875,-0.264190673828125,-0.1738739013671875,-0.021514892578125
1783003180282398200,0.857398193359375,-0.318603515625,-0.1796112060546875,0.0274658203125
1783003180292450300,0.8674501953125,-0.359832763671875,-0.2056121826171875,0.0579071044921875
1783003180302501000,0.877501220703125,-0.3897247314453125,-0.23284912109375,0.0405426025390625
1783003180312553200,0.88755322265625,-0.4062347412109375,-0.2332611083984375,-0.0301055908203125
1783003180322604300,0.897604248046875,-0.449798583984375,-0.212646484375,-0.07305908203125
1783003180332656000,0.90765625,-0.48016357421875,-0.2093505859375,-0.094879150390625
1783003180342708200,0.917708251953125,-0.515838623046875,-0.2158203125,-0.0938720703125
1783003180352759000,0.927759033203125,-0.568634033203125,-0.2376251220703125,-0.0865936279296875
1783003180362811100,0.93781103515625,-0.6680755615234375,-0.2715606689453125,-0.071014404296875
1783003180372863000,0.947863037109375,-0.776031494140625,-0.324371337890625,-0.0471038818359375
1783003180382914000,0.9579140625,-0.9265594482421875,-0.4159698486328125,-0.00274658203125
1783003180392966100,0.967966064453125,-1.0487823486328125,-0.56097412109375,0.055938720703125
1783003180403018200,0.978018310546875,-1.1432952880859375,-0.6837615966796875,0.0705718994140625
1783003180413069300,0.9880693359375,-1.25225830078125,-0.7581787109375,0.0844879150390625
1783003180423121200,0.99812109375,-1.4222564697265625,-0.880706787109375,0.127838134765625
1783003180433172200,1.008172119140625,-1.580230712890625,-0.97613525390625,0.0973968505859375
1783003180443224000,1.01822412109375,-1.7989959716796875,-0.9061279296875,-0.0014190673828125
1783003180453276200,1.028276123046875,-1.8628082275390625,-0.9361572265625,-0.0200347900390625
1783003180463327200,1.0383271484375,-1.8450469970703125,-1.0265350341796875,0.0393218994140625
1783003180473379000,1.048379150390625,-1.8330841064453125,-1.0380859375,0.151214599609375
1783003180483431200,1.05843115234375,-1.770599365234375,-1.069549560546875,0.2468719482421875
1783003180493482200,1.068482177734375,-1.6978912353515625,-1.1642608642578125,0.3107147216796875
1783003180503534000,1.0785341796875,-1.6454315185546875,-1.290496826171875,0.4004974365234375
1783003180513586000,1.0885859375,-1.5487823486328125,-1.43658447265625,0.471221923828125
1783003180523637000,1.098636962890625,-1.4283599853515625,-1.571563720703125,0.3732757568359375
1783003180533689300,1.108689453125,-1.298553466796875,-1.5929107666015625,0.1473236083984375
1783003180543740200,1.118740234375,-1.1311187744140625,-1.551025390625,-0.1145477294921875
1783003180553792300,1.128792236328125,-0.9449920654296875,-1.486602783203125,-0.407562255859375
1783003180563844000,1.138843994140625,-0.8113861083984375,-1.35858154296875,-0.5744476318359375
1783003180573895200,1.148895263671875,-0.6941986083984375,-1.201629638671875,-0.606781005859375
1783003180583947300,1.158947265625,-0.6300048828125,-1.0118865966796875,-0.5358428955078125
1783003180593999000,1.1689990234375,-0.6415557861328125,-0.8044281005859375,-0.3868408203125
1783003180604050200,1.17905029296875,-0.67962646484375,-0.588623046875,-0.2293701171875
1783003180614102000,1.18910205078125,-0.7445068359375,-0.4086151123046875,-0.0948486328125
1783003180624153000,1.199153076171875,-0.763763427734375,-0.2777557373046875,-0.0281219482421875
1783003180634205200,1.209205078125,-0.7595672607421875,-0.15020751953125,-0.0403289794921875
1783003180644257000,1.219257080078125,-0.6966094970703125,-0.0251312255859375,-0.0856170654296875
1783003180654308000,1.22930810546875,-0.6309967041015625,0.0606231689453125,-0.133270263671875
1783003180664360000,1.23935986328125,-0.5960235595703125,0.1039276123046875,-0.13818359375
1783003180674412300,1.249412353515625,-0.5658721923828125,0.0846099853515625,-0.1076812744140625
1783003180684461600,1.259461669921875,-0.5371246337890625,0.03277587890625,-0.0730743408203125
1783003180694514000,1.269513916015625,-0.484405517578125,-0.01605224609375,-0.0408172607421875
1783003180704565800,1.279565673828125,-0.44097900390625,-0.0551910400390625,-0.02099609375
1783003180714616800,1.289616943359375,-0.3977203369140625,-0.08428955078125,0.0086212158203125
1783003180724668700,1.299668701171875,-0.36376953125,-0.088714599609375,0.04278564453125
1783003180734720800,1.309720703125,-0.3496856689453125,-0.0785064697265625,0.0810699462890625
1783003180744771800,1.319771728515625,-0.349029541015625,-0.0697784423828125,0.114715576171875
1783003180754823700,1.32982373046875,-0.345916748046875,-0.061126708984375,0.1026458740234375
1783003180764874800,1.339874755859375,-0.3277740478515625,-0.029205322265625,0.0837554931640625
1783003180774926600,1.349926513671875,-0.3049468994140625,-0.0131988525390625,0.0645294189453125
1783003180784978700,1.359978759765625,-0.31549072265625,-0.0243988037109375,0.0711669921875
1783003180795029800,1.37002978515625,-0.3104705810546875,-0.032073974609375,0.0673370361328125
1783003180805081600,1.38008154296875,-0.2991790771484375,-0.04046630859375,0.0504913330078125
1783003180815133700,1.3901337890625,-0.290130615234375,-0.07073974609375,0.0480804443359375
1783003180825184500,1.4001845703125,-0.3168487548828125,-0.100982666015625,0.05615234375
1783003180835236900,1.41023681640625,-0.3760223388671875,-0.11322021484375,0.05780029296875
1783003180845288700,1.420288818359375,-0.4182281494140625,-0.128387451171875,0.037841796875
1783003180855339800,1.43033984375,-0.4795379638671875,-0.1115264892578125,0.006622314453125
1783003180865391600,1.4403916015625,-0.5579833984375,-0.070465087890625,0.0148773193359375
1783003180875442700,1.450442626953125,-0.6631927490234375,-0.05621337890625,0.06396484375
1783003180885494800,1.460494873046875,-0.7748260498046875,-0.037261962890625,0.0771942138671875
1783003180895546600,1.470546630859375,-0.8783111572265625,-0.007110595703125,0.054168701171875
1783003180905597700,1.48059765625,-0.9791259765625,0.0145111083984375,0.0108489990234375
1783003180915649500,1.4906494140625,-1.10992431640625,0.0016937255859375,0.045501708984375
1783003180925701600,1.50070166015625,-1.281890869140625,-0.060943603515625,0.116973876953125
1783003180935752700,1.510752685546875,-1.4048919677734375,-0.1465606689453125,0.1646270751953125
1783003180945804500,1.520804443359375,-1.48712158203125,-0.2386016845703125,0.1824493408203125
1783003180955855600,1.530855712890625,-1.6256103515625,-0.317108154296875,0.249786376953125
1783003180965907700,1.54090771484375,-1.8079986572265625,-0.428131103515625,0.35943603515625
1783003180975959800,1.550959716796875,-1.9831390380859375,-0.5220794677734375,0.3671875
1783003180986011000,1.561010986328125,-2.0555877685546875,-0.5426788330078125,0.28369140625
1783003180996062700,1.571062744140625,-1.9994049072265625,-0.569976806640625,0.2264556884765625
1783003181006114800,1.58111474609375,-1.885162353515625,-0.6083221435546875,0.181121826171875
1783003181016165600,1.59116552734375,-1.7542572021484375,-0.6767730712890625,0.1597442626953125
1783003181026217700,1.6012177734375,-1.650970458984375,-0.794281005859375,0.1451263427734375
1783003181036269600,1.61126953125,-1.60955810546875,-0.93743896484375,0.2345428466796875
1783003181046320600,1.621320556640625,-1.6122283935546875,-1.1494293212890625,0.37890625
1783003181056372700,1.631372802734375,-1.6085968017578125,-1.3308563232421875,0.432861328125
1783003181066423600,1.641423583984375,-1.5277862548828125,-1.476104736328125,0.3237762451171875
1783003181076475600,1.6514755859375,-1.4244537353515625,-1.5318450927734375,0.11627197265625
1783003181086527500,1.661527587890625,-1.3352813720703125,-1.4785919189453125,-0.0828704833984375
1783003181096578600,1.67157861328125,-1.243408203125,-1.307342529296875,-0.2455596923828125
1783003181106631000,1.681630859375,-1.1484527587890625,-1.1033935546875,-0.3299102783203125
1783003181116682800,1.691682861328125,-1.0724029541015625,-0.8950347900390625,-0.3095855712890625
1783003181126733800,1.70173388671875,-1.0207061767578125,-0.687042236328125,-0.2505645751953125
1783003181136785700,1.71178564453125,-0.9675445556640625,-0.50384521484375,-0.1717529296875
1783003181146837800,1.721837646484375,-0.9285125732421875,-0.3690032958984375,-0.0803375244140625
1783003181156888800,1.731888916015625,-0.9055633544921875,-0.2635498046875,-0.0314483642578125
1783003181166940700,1.741940673828125,-0.8820648193359375,-0.20831298828125,-0.0119476318359375
1783003181176991700,1.75199169921875,-0.831298828125,-0.2066802978515625,-0.027587890625
1783003181187043600,1.762043701171875,-0.7435455322265625,-0.218505859375,-0.0576934814453125
1783003181197095700,1.772095703125,-0.6515655517578125,-0.22760009765625,-0.1208953857421875
1783003181207146800,1.782146728515625,-0.5558624267578125,-0.2191162109375,-0.1970977783203125
1783003181217198600,1.792198486328125,-0.4554901123046875,-0.1967010498046875,-0.2270965576171875
1783003181227250700,1.802250732421875,-0.4069671630859375,-0.191375732421875,-0.197540283203125
1783003181237301500,1.812301513671875,-0.374664306640625,-0.19268798828125,-0.1521453857421875
1783003181247353900,1.822353759765625,-0.3561553955078125,-0.193511962890625,-0.097930908203125
1783003181257405700,1.83240576171875,-0.33782958984375,-0.1931610107421875,-0.04998779296875
1783003181267456800,1.842456787109375,-0.32867431640625,-0.1895599365234375,-0.0185394287109375
1783003181277508600,1.852508544921875,-0.3556060791015625,-0.180755615234375,-0.01605224609375
1783003181287559700,1.8625595703125,-0.3258209228515625,-0.171966552734375,-0.0481109619140625
1783003181297611800,1.87261181640625,-0.2790679931640625,-0.1535186767578125,-0.0854034423828125
1783003181307663600,1.88266357421875,-0.2880859375,-0.1343841552734375,-0.11859130859375
1783003181317714700,1.892714599609375,-0.295379638671875,-0.1314239501953125,-0.1311798095703125
1783003181327766800,1.902766845703125,-0.2496337890625,-0.135650634765625,-0.1453704833984375
1783003181337818600,1.912818603515625,-0.2338714599609375,-0.1335296630859375,-0.1295166015625
1783003181347869700,1.92286962890625,-0.261566162109375,-0.1467132568359375,-0.073028564453125
1783003181357921500,1.932921630859375,-0.2742156982421875,-0.1721343994140625,-0.031005859375
1783003181367974000,1.942973876953125,-0.2772064208984375,-0.1720428466796875,-0.0271148681640625
1783003181378024700,1.953024658203125,-0.284088134765625,-0.1508636474609375,-0.0246124267578125
1783003181388076800,1.963076904296875,-0.2957000732421875,-0.134033203125,-0.0299224853515625
1783003181398127900,1.9731279296875,-0.2921142578125,-0.121063232421875,-0.0726318359375
1783003181408179700,1.9831796875,-0.3096160888671875,-0.1172332763671875,-0.129913330078125
1783003181418231800,1.993231689453125,-0.3589630126953125,-0.114532470703125,-0.1455841064453125
1783003181428282600,2.00328271484375,-0.4146728515625,-0.1062469482421875,-0.14593505859375
1783003181438334700,2.013334716796875,-0.47674560546875,-0.078369140625,-0.1377716064453125
1783003181448386600,2.023386474609375,-0.5041351318359375,-0.0477294921875,-0.1280364990234375
1783003181458437600,2.033437744140625,-0.51446533203125,-0.028564453125,-0.1129302978515625
1783003181468489700,2.04348974609375,-0.5276031494140625,-0.0618743896484375,-0.06500244140625
1783003181478541600,2.05354150390625,-0.567413330078125,-0.1745452880859375,0.0226593017578125
1783003181488592600,2.063592529296875,-0.65643310546875,-0.3810882568359375,0.148193359375
1783003181498644500,2.07364453125,-0.857421875,-0.6546478271484375,0.29119873046875
1783003181508695600,2.083695556640625,-1.0955810546875,-0.8511505126953125,0.3629302978515625
1783003181518748000,2.093747802734375,-1.371307373046875,-0.9025115966796875,0.3920440673828125
1783003181528799700,2.1037998046875,-1.6869659423828125,-0.947265625,0.3000335693359375
1783003181538850800,2.113850830078125,-1.9635772705078125,-0.9949188232421875,0.1205902099609375
1783003181548902700,2.123902587890625,-2.0742950439453125,-0.8349456787109375,-0.0320892333984375
1783003181558954800,2.133954833984375,-2.036041259765625,-0.57916259765625,-0.123260498046875
1783003181569005800,2.144005859375,-1.989837646484375,-0.40509033203125,-0.12896728515625
1783003181579057700,2.1540576171875,-1.96112060546875,-0.3618927001953125,-0.029876708984375
1783003181589108700,2.164108642578125,-1.9302215576171875,-0.4593353271484375,0.17034912109375
1783003181599160600,2.17416064453125,-1.872772216796875,-0.670013427734375,0.4021148681640625
1783003181609212700,2.184212646484375,-1.7865142822265625,-0.858062744140625,0.56085205078125
1783003181619263700,2.194263671875,-1.7355499267578125,-0.9727325439453125,0.5879669189453125
1783003181629315600,2.204315673828125,-1.7481689453125,-1.04132080078125,0.49249267578125
1783003181639368000,2.214367919921875,-1.791259765625,-1.0688018798828125,0.300048828125
1783003181649418500,2.22441845703125,-1.76800537109375,-1.0391387939453125,0.074066162109375
1783003181659470800,2.234470947265625,-1.69482421875,-0.935150146484375,-0.1209259033203125
1783003181669522700,2.244522705078125,-1.6531829833984375,-0.7813262939453125,-0.2283935546875
1783003181679573000,2.254572998046875,-1.532867431640625,-0.6353302001953125,-0.2899017333984375
1783003181689625000,2.264625,-1.3697052001953125,-0.4891357421875,-0.3597869873046875
1783003181699676200,2.27467626953125,-1.2881317138671875,-0.4021453857421875,-0.4041900634765625
1783003181709728000,2.28472802734375,-1.2357330322265625,-0.339874267578125,-0.37603759765625
1783003181719780000,2.294780029296875,-1.1698760986328125,-0.2935791015625,-0.3690338134765625
1783003181729831000,2.304830810546875,-1.1019287109375,-0.2610931396484375,-0.4075164794921875
1783003181739883000,2.314883056640625,-1.0589141845703125,-0.232940673828125,-0.388885498046875
1783003181749935000,2.32493505859375,-1.0219268798828125,-0.203216552734375,-0.344207763671875
1783003181759986000,2.33498583984375,-0.9570770263671875,-0.1755523681640625,-0.360137939453125
1783003181770038000,2.3450380859375,-0.864959716796875,-0.1383209228515625,-0.4038848876953125
1783003181780090000,2.355090087890625,-0.7703704833984375,-0.096710205078125,-0.427764892578125
1783003181790141200,2.36514111328125,-0.6719512939453125,-0.0929412841796875,-0.395111083984375
1783003181800193000,2.375193115234375,-0.5933685302734375,-0.1134490966796875,-0.2923583984375
1783003181810244000,2.385244140625,-0.526031494140625,-0.144866943359375,-0.184600830078125
1783003181820296000,2.3952958984375,-0.4606781005859375,-0.178924560546875,-0.10797119140625
1783003181830348000,2.40534814453125,-0.399810791015625,-0.2104949951171875,-0.0498046875
1783003181840399000,2.415399169921875,-0.33642578125,-0.2418212890625,-0.0159912109375
1783003181850451000,2.425450927734375,-0.2933197021484375,-0.2643585205078125,0.0063323974609375
1783003181860503000,2.4355029296875,-0.2500152587890625,-0.275970458984375,0.000946044921875
1783003181870553900,2.445553955078125,-0.220855712890625,-0.2711181640625,-0.022796630859375
1783003181880606000,2.45560595703125,-0.210235595703125,-0.26177978515625,-0.052154541015625
1783003181890658000,2.465657958984375,-0.199432373046875,-0.2585296630859375,-0.0690765380859375
1783003181900709000,2.475709228515625,-0.189178466796875,-0.2481536865234375,-0.076507568359375
1783003181910761200,2.48576123046875,-0.19158935546875,-0.206695556640625,-0.0831146240234375
1783003181920812000,2.49581201171875,-0.216583251953125,-0.1767730712890625,-0.050445556640625
1783003181930864000,2.505864013671875,-0.2138519287109375,-0.168853759765625,-0.0186614990234375
1783003181940916000,2.515916015625,-0.217498779296875,-0.149993896484375,0.011322021484375
1783003181950967000,2.525967041015625,-0.25469970703125,-0.1299285888671875,0.039794921875
1783003181961019100,2.53601904296875,-0.286895751953125,-0.1099853515625,0.0342559814453125
1783003181971071000,2.546071044921875,-0.3037872314453125,-0.1075897216796875,0.01251220703125
1783003181981122000,2.5561220703125,-0.37261962890625,-0.0931854248046875,-0.0142364501953125
1783003181991174000,2.566173828125,-0.461883544921875,-0.0904388427734375,-0.064666748046875
1783003182001226000,2.57622607421875,-0.5602569580078125,-0.11309814453125,-0.112548828125
1783003182011277000,2.586277099609375,-0.6670989990234375,-0.134674072265625,-0.11529541015625
1783003182021329000,2.596328857421875,-0.7287139892578125,-0.15863037109375,-0.0838165283203125
1783003182031381200,2.60638134765625,-0.7847747802734375,-0.182342529296875,-0.02691650390625
1783003182041432000,2.61643212890625,-0.8294677734375,-0.2457275390625,0.06890869140625
1783003182051484200,2.626484130859375,-0.8915557861328125,-0.4147796630859375,0.1900634765625
1783003182061535200,2.63653515625,-1.03106689453125,-0.6576690673828125,0.298614501953125
1783003182071587000,2.646587158203125,-1.2043914794921875,-0.9083709716796875,0.33203125
1783003182081639200,2.65663916015625,-1.4800262451171875,-1.055938720703125,0.3192138671875
1783003182091690000,2.66668994140625,-1.8678741455078125,-1.098968505859375,0.224639892578125
1783003182101742000,2.6767421875,-2.040802001953125,-1.0921783447265625,0.049163818359375
1783003182111794000,2.6867939453125,-2.0828399658203125,-0.899383544921875,-0.1261138916015625
1783003182121845000,2.696844970703125,-2.022186279296875,-0.6916656494140625,-0.252349853515625
1783003182131897000,2.70689697265625,-1.95477294921875,-0.67340087890625,-0.29498291015625
1783003182141949000,2.716948974609375,-1.9385223388671875,-0.8124237060546875,-0.1805877685546875
1783003182152000000,2.727,-1.875946044921875,-1.0843963623046875,0.05120849609375
1783003182162051800,2.7370517578125,-1.7410736083984375,-1.3482513427734375,0.2021331787109375
1783003182172103000,2.74710302734375,-1.5818634033203125,-1.5315704345703125,0.21429443359375
1783003182182155000,2.757155029296875,-1.4471282958984375,-1.6524505615234375,0.1251678466796875
1783003182192207000,2.76720703125,-1.314300537109375,-1.67535400390625,-0.02630615234375
1783003182202258200,2.777258056640625,-1.1780548095703125,-1.523284912109375,-0.2360687255859375
1783003182212310000,2.78731005859375,-1.052734375,-1.2902374267578125,-0.4390106201171875
1783003182222362000,2.797362060546875,-0.9962615966796875,-1.090972900390625,-0.5786590576171875
1783003182232413000,2.807412841796875,-1.0320892333984375,-0.901397705078125,-0.6128692626953125
1783003182242465000,2.817465087890625,-1.109466552734375,-0.7000885009765625,-0.5296630859375
1783003182252516900,2.827516845703125,-1.1385345458984375,-0.528564453125,-0.4094696044921875
1783003182262568000,2.83756787109375,-1.1211090087890625,-0.42901611328125,-0.2743682861328125
1783003182272620000,2.8476201171875,-1.051422119140625,-0.337005615234375,-0.1485595703125
1783003182282670800,2.8576708984375,-0.95513916015625,-0.256256103515625,-0.0534515380859375
1783003182292723000,2.867722900390625,-0.8556365966796875,-0.2255706787109375,-0.02313232421875
1783003182302775000,2.877775146484375,-0.770904541015625,-0.217681884765625,-0.02105712890625
1783003182312825900,2.887825927734375,-0.6877899169921875,-0.2386474609375,-0.055816650390625
1783003182322878200,2.897878173828125,-0.6067352294921875,-0.233856201171875,-0.099578857421875
1783003182332930000,2.907929931640625,-0.5454559326171875,-0.1941070556640625,-0.1202392578125
1783003182342981000,2.917981201171875,-0.4931488037109375,-0.1798248291015625,-0.120330810546875
1783003182353033000,2.928032958984375,-0.4500885009765625,-0.2040252685546875,-0.1217041015625
1783003182363085000,2.9380849609375,-0.40460205078125,-0.1966705322265625,-0.15673828125
1783003182373136100,2.94813623046875,-0.3518218994140625,-0.134918212890625,-0.1663055419921875
1783003182383188000,2.95818798828125,-0.349761962890625,-0.106964111328125,-0.11041259765625
1783003182393239000,2.968239013671875,-0.348602294921875,-0.112457275390625,-0.066375732421875
1783003182403291000,2.978290771484375,-0.3419189453125,-0.0899505615234375,-0.0279541015625
1783003182413343000,2.988343017578125,-0.3306427001953125,-0.0744476318359375,-0.01885986328125
1783003182423394000,2.99839404296875,-0.299713134765625,-0.0828399658203125,-0.031951904296875
1783003182433446000,3.00844580078125,-0.284637451171875,-0.0870819091796875,-0.041778564453125
1783003182443498200,3.018498291015625,-0.2732696533203125,-0.0867156982421875,-0.05865478515625
1783003182453549000,3.028549072265625,-0.2246856689453125,-0.0943450927734375,-0.1101226806640625
1783003182463601200,3.03860107421875,-0.192596435546875,-0.091094970703125,-0.11431884765625
1783003182473653000,3.048653076171875,-0.2211761474609375,-0.0989227294921875,-0.097869873046875
1783003182483704000,3.0587041015625,-0.251922607421875,-0.1095733642578125,-0.0768280029296875
1783003182493756200,3.068756103515625,-0.2830352783203125,-0.11053466796875,-0.0751800537109375
1783003182503807000,3.078806884765625,-0.323150634765625,-0.09234619140625,-0.11517333984375
1783003182513859000,3.088859130859375,-0.38568115234375,-0.0757904052734375,-0.1337738037109375
1783003182523911000,3.098910888671875,-0.4323272705078125,-0.0879058837890625,-0.1311492919921875
1783003182533962000,3.1089619140625,-0.48095703125,-0.0930023193359375,-0.1324615478515625
1783003182544014000,3.11901416015625,-0.5489044189453125,-0.082977294921875,-0.1134490966796875
1783003182554066000,3.12906591796875,-0.6056365966796875,-0.069671630859375,-0.07989501953125
1783003182564117000,3.139116943359375,-0.6516265869140625,-0.0573577880859375,-0.040130615234375
1783003182574168800,3.1491689453125,-0.69427490234375,-0.061431884765625,-0.0215301513671875
1783003182584221200,3.15922119140625,-0.728607177734375,-0.0917816162109375,-0.0131378173828125
1783003182594272300,3.169272216796875,-0.7623748779296875,-0.183349609375,0.0012359619140625
1783003182604324000,3.179323974609375,-0.7936859130859375,-0.2802886962890625,-0.0361175537109375
1783003182614375200,3.189375244140625,-0.858245849609375,-0.41815185546875,-0.046905517578125
1783003182624427000,3.199427001953125,-1.006500244140625,-0.640289306640625,-0.048614501953125
1783003182634479000,3.20947900390625,-1.2765350341796875,-0.83428955078125,-0.00616455078125
1783003182644530200,3.2195302734375,-1.536712646484375,-0.8970947265625,0.1380462646484375
1783003182654582000,3.22958203125,-1.7386474609375,-0.9578399658203125,0.2162322998046875
1783003182664634000,3.239634033203125,-1.9292144775390625,-1.0056304931640625,0.2108306884765625
1783003182674685000,3.249684814453125,-2.15545654296875,-0.9105224609375,0.20550537109375
1783003182684734200,3.259734130859375,-2.2787017822265625,-0.6996307373046875,0.18194580078125
1783003182694786300,3.269786376953125,-2.3301239013671875,-0.5623626708984375,0.1358184814453125
1783003182704837000,3.279837158203125,-2.3316497802734375,-0.5629730224609375,0.147430419921875
1783003182714889200,3.28988916015625,-2.30340576171875,-0.7197265625,0.170318603515625
1783003182724941300,3.29994140625,-2.1975555419921875,-0.89849853515625,0.1793212890625
1783003182734992400,3.309992431640625,-2.0410003662109375,-1.039947509765625,0.1297149658203125
1783003182745044200,3.320044189453125,-1.8446807861328125,-1.147003173828125,0.0218658447265625
1783003182755095300,3.33009521484375,-1.643798828125,-1.2251434326171875,-0.102752685546875
1783003182765147100,3.340147216796875,-1.5224456787109375,-1.2252349853515625,-0.245147705078125
1783003182775199200,3.35019921875,-1.4237060546875,-1.106353759765625,-0.4000701904296875
1783003182785250300,3.360250244140625,-1.2132415771484375,-0.903900146484375,-0.4841766357421875
1783003182795302100,3.37030224609375,-1.03692626953125,-0.7372283935546875,-0.4601287841796875
1783003182805354200,3.380354248046875,-0.925872802734375,-0.6148529052734375,-0.34307861328125
1783003182815405000,3.390405029296875,-0.8389892578125,-0.5538177490234375,-0.1682281494140625
1783003182825457200,3.40045703125,-0.7419281005859375,-0.5218658447265625,-0.0315704345703125
1783003182835509200,3.41050927734375,-0.651763916015625,-0.451202392578125,0.055419921875
1783003182845560300,3.420560302734375,-0.5695037841796875,-0.3950042724609375,0.07208251953125
1783003182855612200,3.430612060546875,-0.50445556640625,-0.345184326171875,0.0567626953125
1783003182865663200,3.440663330078125,-0.4199371337890625,-0.2921600341796875,-0.0009918212890625
1783003182875715300,3.45071533203125,-0.3508148193359375,-0.241729736328125,-0.102783203125
1783003182885767200,3.46076708984375,-0.285491943359375,-0.1841583251953125,-0.1680450439453125
1783003182895818200,3.470818359375,-0.2653656005859375,-0.11700439453125,-0.1638031005859375
1783003182905870000,3.4808701171875,-0.2467193603515625,-0.0879364013671875,-0.1244659423828125
1783003182915922200,3.490922119140625,-0.227325439453125,-0.0798187255859375,-0.068084716796875
1783003182925973200,3.50097314453125,-0.2222900390625,-0.0590362548828125,-0.019561767578125
1783003182936025000,3.511025146484375,-0.2111968994140625,-0.038360595703125,0.040618896484375
1783003182946077200,3.5210771484375,-0.206756591796875,-0.02630615234375,0.0749359130859375
1783003182956128000,3.5311279296875,-0.190673828125,-0.0254058837890625,0.095916748046875
1783003182966180000,3.54118017578125,-0.180389404296875,-0.0333099365234375,0.1103057861328125
1783003182976231200,3.551231201171875,-0.174560546875,-0.0481109619140625,0.0756988525390625
1783003182986283300,3.561283203125,-0.171844482421875,-0.0293731689453125,0.0241546630859375
1783003182996335400,3.57133544921875,-0.1450347900390625,-0.01434326171875,-0.0233917236328125
1783003183006386200,3.58138623046875,-0.1324615478515625,-0.0202789306640625,-0.0592498779296875
1783003183016438300,3.591438232421875,-0.1398773193359375,-0.0281982421875,-0.025421142578125
1783003183026490000,3.601489990234375,-0.159393310546875,-0.05706787109375,0.011993408203125
1783003183036541200,3.611541259765625,-0.1720123291015625,-0.0827484130859375,0.0377960205078125
1783003183046593300,3.62159326171875,-0.178375244140625,-0.0867767333984375,0.0645294189453125
1783003183056645000,3.63164501953125,-0.197540283203125,-0.098907470703125,0.0801544189453125
1783003183066696200,3.6416962890625,-0.2341766357421875,-0.1225433349609375,0.0690460205078125
1783003183076748000,3.651748046875,-0.284912109375,-0.1483306884765625,0.0179443359375
1783003183086800100,3.661800048828125,-0.345306396484375,-0.1468963623046875,-0.04559326171875
1783003183096851200,3.671851318359375,-0.3552093505859375,-0.1447601318359375,-0.11541748046875
1783003183106903300,3.6819033203125,-0.3765411376953125,-0.145599365234375,-0.1714630126953125
1783003183116954000,3.6919541015625,-0.4253387451171875,-0.1367950439453125,-0.1743011474609375
1783003183127006200,3.702006103515625,-0.469085693359375,-0.1502532958984375,-0.1421051025390625
1783003183137058300,3.712058349609375,-0.5454864501953125,-0.17315673828125,-0.08587646484375
1783003183147109400,3.722109375,-0.62347412109375,-0.18994140625,-0.0308990478515625
1783003183157161200,3.7321611328125,-0.730438232421875,-0.226959228515625,0.0337677001953125
1783003183167213300,3.74221337890625,-0.8461761474609375,-0.31890869140625,0.041900634765625
1783003183177264000,3.75226416015625,-0.9193572998046875,-0.462799072265625,0.043975830078125
1783003183187316200,3.762316162109375,-0.9486846923828125,-0.6920928955078125,0.037078857421875
1783003183197368000,3.7723681640625,-1.0368499755859375,-0.921966552734375,0.0184173583984375
1783003183207419100,3.782419189453125,-1.1672821044921875,-1.0280303955078125,0.01007080078125
1783003183217471200,3.79247119140625,-1.33544921875,-1.0389251708984375,-0.0168609619140625
1783003183227522000,3.80252197265625,-1.522857666015625,-1.0053253173828125,-0.0756683349609375
1783003183237574100,3.81257421875,-1.6352386474609375,-1.0122833251953125,-0.0870513916015625
1783003183247626200,3.822626220703125,-1.7321624755859375,-1.00543212890625,-0.11004638671875
1783003183257677300,3.83267724609375,-1.7781829833984375,-0.98345947265625,-0.118682861328125
1783003183267729400,3.8427294921875,-1.8137054443359375,-0.980438232421875,-0.060028076171875
1783003183277781200,3.85278125,-1.82763671875,-0.977508544921875,0.042633056640625
1783003183287832300,3.862832275390625,-1.839019775390625,-1.0247344970703125,0.164459228515625
1783003183297884200,3.87288427734375,-1.7924652099609375,-1.0785064697265625,0.1524810791015625
1783003183307936300,3.882936279296875,-1.6662750244140625,-1.139068603515625,-0.018096923828125
1783003183317987300,3.8929873046875,-1.5097503662109375,-1.224334716796875,-0.226348876953125
1783003183328039200,3.9030390625,-1.3419342041015625,-1.2518310546875,-0.407989501953125
1783003183338090200,3.91309033203125,-1.1890106201171875,-1.201934814453125,-0.4583740234375
1783003183348142000,3.92314208984375,-1.0561370849609375,-1.0695343017578125,-0.3588104248046875
1783003183358194200,3.933194091796875,-1.0699310302734375,-0.88482666015625,-0.167388916015625
1783003183368245200,3.943245361328125,-1.10498046875,-0.6500091552734375,0.115631103515625
1783003183378297000,3.953297119140625,-1.0912628173828125,-0.4117889404296875,0.26837158203125
1783003183388349200,3.96334912109375,-1.0909881591796875,-0.234222412109375,0.3359222412109375
1783003183398400300,3.973400146484375,-1.1106414794921875,-0.1362457275390625,0.3146514892578125
1783003183408452400,3.983452392578125,-1.1566009521484375,-0.034088134765625,0.216339111328125
1783003183418504200,3.993504150390625,-1.1810302734375,0.047698974609375,0.02459716796875
1783003183428555300,4.00355517578125,-1.2032318115234375,0.110595703125,-0.1717529296875
1783003183438607000,4.013607177734375,-1.1918792724609375,0.1312255859375,-0.2792510986328125
1783003183448658200,4.023658203125,-1.172088623046875,0.1548919677734375,-0.282135009765625
1783003183458710300,4.033710205078125,-1.1245880126953125,0.1427459716796875,-0.1979522705078125
1783003183468762000,4.04376220703125,-1.0528106689453125,0.08758544921875,-0.123565673828125
1783003183478813200,4.053813232421875,-0.966064453125,0.0668792724609375,-0.0981903076171875
1783003183488865000,4.063864990234375,-0.8731536865234375,-0.0087432861328125,-0.100494384765625
1783003183498917000,4.073917236328125,-0.7965240478515625,-0.080902099609375,-0.10467529296875
1783003183508968200,4.08396826171875,-0.749053955078125,-0.091705322265625,-0.104461669921875
1783003183519020300,4.094020263671875,-0.6931610107421875,-0.094451904296875,-0.1156158447265625
1783003183529072400,4.104072265625,-0.655975341796875,-0.0941925048828125,-0.1098785400390625
1783003183539123200,4.114123291015625,-0.644622802734375,-0.0623016357421875,-0.0851593017578125
1783003183549175300,4.12417529296875,-0.62017822265625,-0.0358734130859375,-0.05572509765625
1783003183559226400,4.134226318359375,-0.6097564697265625,-0.031829833984375,-0.04290771484375
1783003183569278200,4.1442783203125,-0.58050537109375,-0.0114593505859375,-0.0561981201171875
1783003183579330300,4.154330322265625,-0.5353546142578125,-0.0120697021484375,-0.0761566162109375
1783003183589381000,4.164381103515625,-0.511016845703125,-0.0235595703125,-0.1014556884765625
1783003183599433200,4.17443310546875,-0.47894287109375,-0.0325164794921875,-0.100006103515625
1783003183609485000,4.184485107421875,-0.450408935546875,-0.061981201171875,-0.0982666015625
1783003183619536100,4.1945361328125,-0.43115234375,-0.0792083740234375,-0.085845947265625
1783003183629588200,4.204588134765625,-0.4315032958984375,-0.0861663818359375,-0.0689544677734375
1783003183639640000,4.21464013671875,-0.414703369140625,-0.1012420654296875,-0.07220458984375
1783003183649691100,4.224691162109375,-0.3881683349609375,-0.12225341796875,-0.0852508544921875
1783003183659743200,4.2347431640625,-0.40386962890625,-0.128753662109375,-0.1050262451171875
1783003183669794000,4.2447939453125,-0.438507080078125,-0.1235504150390625,-0.145965576171875
1783003183679846400,4.254846435546875,-0.50433349609375,-0.083709716796875,-0.1923980712890625
1783003183689901600,4.264901611328125,-0.5382843017578125,-0.0882415771484375,-0.2240142822265625
1783003183699952600,4.27495263671875,-0.6588592529296875,-0.0653533935546875,-0.239349365234375
1783003183710004700,4.285004638671875,-0.7374420166015625,-0.007965087890625,-0.24273681640625
1783003183720056800,4.295056884765625,-0.7936248779296875,0.011444091796875,-0.2129669189453125
1783003183730108000,4.30510791015625,-0.8329315185546875,-0.0083160400390625,-0.1494140625
1783003183740159700,4.31515966796875,-0.7857513427734375,-0.066314697265625,-0.0732421875
1783003183750211800,4.3252119140625,-0.7518768310546875,-0.23211669921875,0.0083465576171875
1783003183760262700,4.3352626953125,-0.7518310546875,-0.4715423583984375,0.1414794921875
1783003183770314800,4.345314697265625,-0.805023193359375,-0.722442626953125,0.2201385498046875
1783003183780365800,4.35536572265625,-0.9919891357421875,-0.8752593994140625,0.225860595703125
1783003183790417700,4.365417724609375,-1.219085693359375,-0.9207763671875,0.2295989990234375
1783003183800469800,4.3754697265625,-1.39056396484375,-0.8977203369140625,0.13189697265625
1783003183810520600,4.3855205078125,-1.5053253173828125,-0.885498046875,0.002777099609375
1783003183820572700,4.39557275390625,-1.577392578125,-0.8148193359375,-0.035552978515625
1783003183830624800,4.405624755859375,-1.5490875244140625,-0.760528564453125,-0.0983123779296875
1783003183840675600,4.415675537109375,-1.4457244873046875,-0.7800750732421875,-0.0905914306640625
1783003183850727700,4.425727783203125,-1.382293701171875,-0.876068115234375,0.068328857421875
1783003183860779800,4.43577978515625,-1.4001617431640625,-1.041717529296875,0.2265472412109375
1783003183870830800,4.445830810546875,-1.4107513427734375,-1.207763671875,0.3087310791015625
1783003183880882700,4.455882568359375,-1.3170623779296875,-1.3029632568359375,0.3052978515625
1783003183890933800,4.465933837890625,-1.1876373291015625,-1.204315185546875,0.2108306884765625
1783003183900985600,4.475985595703125,-1.0988616943359375,-1.0966644287109375,0.0168304443359375
1783003183911037700,4.48603759765625,-1.081512451171875,-0.988128662109375,-0.1900177001953125
1783003183921088800,4.4960888671875,-1.1617584228515625,-0.7710418701171875,-0.345306396484375
1783003183931140600,4.506140625,-1.3062286376953125,-0.533660888671875,-0.4511871337890625
1783003183941192700,4.516192626953125,-1.486541748046875,-0.245758056640625,-0.5439605712890625
1783003183951243500,4.526243408203125,-1.60382080078125,-0.010040283203125,-0.5615234375
1783003183961295600,4.536295654296875,-1.6731414794921875,0.1366119384765625,-0.476959228515625
1783003183971347700,4.54634765625,-1.6488494873046875,0.2165069580078125,-0.3210601806640625
1783003183981398500,4.5563984375,-1.5395050048828125,0.1623382568359375,-0.1794586181640625
1783003183991451000,4.566450927734375,-1.38739013671875,0.0560455322265625,-0.108245849609375
1783003184001501700,4.576501708984375,-1.18389892578125,-0.0618896484375,-0.1188812255859375
1783003184011553800,4.5865537109375,-1.0172271728515625,-0.17626953125,-0.2098846435546875
1783003184021605600,4.596605712890625,-0.8443603515625,-0.251495361328125,-0.324981689453125
1783003184031656700,4.60665673828125,-0.7009429931640625,-0.2669525146484375,-0.4006195068359375
1783003184041708800,4.616708740234375,-0.636138916015625,-0.251068115234375,-0.4130096435546875
1783003184051760600,4.6267607421875,-0.5832977294921875,-0.2450103759765625,-0.3514404296875
1783003184061811700,4.636811767578125,-0.55657958984375,-0.233123779296875,-0.2772674560546875
1783003184071863600,4.646863525390625,-0.538909912109375,-0.2083740234375,-0.2030181884765625
1783003184081915600,4.65691552734375,-0.5388336181640625,-0.1619415283203125,-0.1475067138671875
1783003184091966700,4.666966796875,-0.505859375,-0.1277618408203125,-0.1014404296875
1783003184102018600,4.6770185546875,-0.49334716796875,-0.1252899169921875,-0.0888214111328125
1783003184112071000,4.68707080078125,-0.465911865234375,-0.1573028564453125,-0.1208038330078125
1783003184122121700,4.697121826171875,-0.4415130615234375,-0.1737518310546875,-0.1696014404296875
1783003184132173800,4.707173828125,-0.38983154296875,-0.18316650390625,-0.2440643310546875
1783003184142225000,4.717224853515625,-0.3445281982421875,-0.211334228515625,-0.2828826904296875
1783003184152276700,4.72727685546875,-0.36212158203125,-0.232940673828125,-0.2468414306640625
1783003184162328800,4.737328857421875,-0.3611602783203125,-0.25732421875,-0.1765594482421875
1783003184172379600,4.747379638671875,-0.3964080810546875,-0.2554473876953125,-0.1208953857421875
1783003184182431700,4.757431640625,-0.411468505859375,-0.2180328369140625,-0.0931396484375
1783003184192483600,4.767483642578125,-0.4224395751953125,-0.180389404296875,-0.0609588623046875
1783003184202534700,4.77753466796875,-0.4406585693359375,-0.1537628173828125,-0.0628204345703125
1783003184212586800,4.787586669921875,-0.44805908203125,-0.1245269775390625,-0.1029052734375
1783003184222637600,4.797637451171875,-0.4598236083984375,-0.0815277099609375,-0.108306884765625
1783003184232689700,4.807689697265625,-0.477325439453125,-0.0930633544921875,-0.14117431640625
1783003184242741500,4.817741455078125,-0.4763031005859375,-0.1295166015625,-0.2138824462890625
1783003184252792600,4.82779248046875,-0.478057861328125,-0.1355133056640625,-0.2731475830078125
1783003184262845000,4.837844970703125,-0.519500732421875,-0.1568450927734375,-0.31439208984375
1783003184272896800,4.847896728515625,-0.5969085693359375,-0.1884002685546875,-0.326812744140625
1783003184282947800,4.85794775390625,-0.6991729736328125,-0.19580078125,-0.3288116455078125
1783003184292999700,4.867999755859375,-0.8589019775390625,-0.1815643310546875,-0.33624267578125
1783003184303051800,4.8780517578125,-1.021453857421875,-0.129974365234375,-0.329620361328125
1783003184313102800,4.888102783203125,-1.125335693359375,-0.0574188232421875,-0.2827301025390625
1783003184323154700,4.89815478515625,-1.234954833984375,-0.02825927734375,-0.255950927734375
1783003184333205800,4.908205810546875,-1.3022308349609375,-0.055938720703125,-0.2191162109375
1783003184343257600,4.918257568359375,-1.458282470703125,-0.2546539306640625,-0.1266326904296875
1783003184353309700,4.928309814453125,-1.8138427734375,-0.5199737548828125,-0.0263519287109375
1783003184363360800,4.93836083984375,-2.233551025390625,-0.7578277587890625,0.064117431640625
1783003184373412600,4.94841259765625,-2.4360809326171875,-0.9211578369140625,-0.0236663818359375
1783003184383464700,4.958464599609375,-2.341796875,-0.7967376708984375,-0.2998504638671875
1783003184393515500,4.968515625,-2.1464080810546875,-0.542266845703125,-0.6014862060546875
1783003184403567900,4.97856787109375,-1.996002197265625,-0.4959716796875,-0.711517333984375
1783003184413619700,4.98861962890625,-1.8751220703125,-0.6326751708984375,-0.590545654296875
1783003184423670800,4.9986708984375,-1.75018310546875,-0.8068084716796875,-0.3728179931640625
1783003184433722600,5.00872265625,-1.6282958984375,-0.98480224609375,-0.1905975341796875
1783003184443773700,5.018773681640625,-1.5182647705078125,-1.13909912109375,-0.070648193359375
1783003184453825800,5.02882568359375,-1.3348388671875,-1.2440643310546875,-0.0107269287109375
1783003184463877600,5.038877685546875,-1.16845703125,-1.272247314453125,-0.0615692138671875
1783003184473928700,5.0489287109375,-1.0365447998046875,-1.23638916015625,-0.2034454345703125
1783003184483980500,5.05898046875,-0.8890533447265625,-1.13232421875,-0.3633880615234375
1783003184494032600,5.06903271484375,-0.7411041259765625,-0.9685211181640625,-0.4789886474609375
1783003184504083700,5.079083740234375,-0.60943603515625,-0.777069091796875,-0.552459716796875
1783003184514135600,5.089135498046875,-0.5442657470703125,-0.6061553955078125,-0.618194580078125
1783003184524188000,5.09918798828125,-0.4976348876953125,-0.4643402099609375,-0.579925537109375
1783003184534238700,5.10923876953125,-0.5208282470703125,-0.3485260009765625,-0.4940185546875
1783003184544290800,5.119290771484375,-0.5604095458984375,-0.2305145263671875,-0.4041900634765625
1783003184554342000,5.129341796875,-0.5826416015625,-0.1422882080078125,-0.3336029052734375
1783003184564393700,5.139393798828125,-0.6109771728515625,-0.074737548828125,-0.262725830078125
1783003184574445800,5.14944580078125,-0.6405181884765625,-0.053863525390625,-0.210723876953125
1783003184584496600,5.15949658203125,-0.6439971923828125,-0.070648193359375,-0.185394287109375
1783003184594548700,5.169548828125,-0.5899505615234375,-0.0809326171875,-0.207122802734375
1783003184604600600,5.1796005859375,-0.544464111328125,-0.070159912109375,-0.2321319580078125
1783003184614651600,5.189651611328125,-0.4980926513671875,-0.057861328125,-0.2520599365234375
1783003184624703700,5.199703857421875,-0.4672088623046875,-0.0565032958984375,-0.2570343017578125
1783003184634755600,5.209755615234375,-0.4434051513671875,-0.075286865234375,-0.2307891845703125
1783003184644806700,5.219806640625,-0.4332275390625,-0.0856170654296875,-0.213348388671875
1783003184654858500,5.2298583984375,-0.42803955078125,-0.0699310302734375,-0.2118682861328125
1783003184664909600,5.23990966796875,-0.4317169189453125,-0.0578155517578125,-0.1874847412109375
1783003184674962000,5.2499619140625,-0.470001220703125,-0.053955078125,-0.1638641357421875
1783003184685015300,5.260015380859375,-0.4591064453125,-0.0519561767578125,-0.157135009765625
1783003184695066000,5.270066162109375,-0.4523773193359375,-0.052093505859375,-0.160888671875
1783003184705118200,5.2801181640625,-0.468597412109375,-0.0559844970703125,-0.1602325439453125
1783003184715170300,5.29017041015625,-0.447052001953125,-0.0750274658203125,-0.159637451171875
1783003184725221400,5.300221435546875,-0.4429779052734375,-0.0750885009765625,-0.1524810791015625
1783003184735273500,5.3102734375,-0.4432830810546875,-0.0693817138671875,-0.1324310302734375
1783003184745325300,5.3203251953125,-0.45819091796875,-0.0763092041015625,-0.126953125
1783003184755376400,5.33037646484375,-0.4406890869140625,-0.0821990966796875,-0.1228179931640625
1783003184765428200,5.34042822265625,-0.4495086669921875,-0.0874481201171875,-0.130859375
1783003184775479300,5.350479248046875,-0.4894866943359375,-0.0986785888671875,-0.1441650390625
1783003184785531400,5.360531494140625,-0.528076171875,-0.0940093994140625,-0.1390228271484375
1783003184795583200,5.370583251953125,-0.571624755859375,-0.08575439453125,-0.1299896240234375
1783003184805634300,5.38063427734375,-0.6380767822265625,-0.072113037109375,-0.12078857421875
1783003184815686100,5.39068603515625,-0.7088623046875,-0.0532989501953125,-0.1143035888671875
1783003184825738200,5.40073828125,-0.7777557373046875,-0.0233154296875,-0.13116455078125
1783003184835789300,5.410789306640625,-0.811767578125,-0.0022430419921875,-0.1541900634765625
1783003184845841200,5.420841064453125,-0.836334228515625,0.0005645751953125,-0.19873046875
1783003184855892200,5.430892333984375,-0.91534423828125,-0.0128936767578125,-0.264129638671875
1783003184865944300,5.4409443359375,-1.068206787109375,-0.018707275390625,-0.32110595703125
1783003184875996400,5.450996337890625,-1.2382965087890625,0.0125274658203125,-0.3755950927734375
1783003184886047500,5.461047607421875,-1.308837890625,0.0651702880859375,-0.405975341796875
1783003184896099300,5.471099365234375,-1.3566436767578125,0.0902862548828125,-0.4322662353515625
1783003184906151200,5.481151123046875,-1.4321136474609375,0.0723876953125,-0.4389801025390625
1783003184916202200,5.4912021484375,-1.522552490234375,-0.0381622314453125,-0.4052581787109375
1783003184926254300,5.50125439453125,-1.70703125,-0.213043212890625,-0.3707275390625
1783003184936306200,5.51130615234375,-1.8465118408203125,-0.376708984375,-0.361083984375
1783003184946357200,5.521357177734375,-1.98712158203125,-0.5265045166015625,-0.3910980224609375
1783003184956409000,5.5314091796875,-2.20220947265625,-0.5336151123046875,-0.4923248291015625
1783003184966460200,5.541460205078125,-2.0937652587890625,-0.4499053955078125,-0.7068328857421875
1783003184976512300,5.55151220703125,-2.0190582275390625,-0.365631103515625,-0.9091033935546875
1783003184986564400,5.561564453125,-1.901031494140625,-0.3948822021484375,-1.0453643798828125
1783003184996615200,5.571615234375,-1.826995849609375,-0.582794189453125,-1.075653076171875
1783003185006667300,5.581667236328125,-1.711700439453125,-0.8370513916015625,-1.0386962890625
1783003185016719400,5.59171923828125,-1.5594329833984375,-1.0760345458984375,-0.9286041259765625
1783003185026770400,5.6017705078125,-1.416351318359375,-1.25146484375,-0.8027801513671875
1783003185036822300,5.611822265625,-1.276336669921875,-1.3309326171875,-0.722747802734375
1783003185046874400,5.621874267578125,-1.1187744140625,-1.3624267578125,-0.6472015380859375
1783003185056925200,5.63192529296875,-0.9942169189453125,-1.34991455078125,-0.6390380859375
1783003185066977300,5.641977294921875,-0.8684844970703125,-1.2393951416015625,-0.6191558837890625
1783003185077028400,5.6520283203125,-0.6325531005859375,-1.136444091796875,-0.6046142578125
1783003185087080200,5.662080078125,-0.461395263671875,-1.05322265625,-0.5910491943359375
1783003185097132300,5.67213232421875,-0.3794097900390625,-0.9506988525390625,-0.55548095703125
1783003185107183000,5.68218310546875,-0.3011016845703125,-0.8372039794921875,-0.4873504638671875
1783003185117235200,5.692235107421875,-0.28765869140625,-0.69146728515625,-0.4043731689453125
1783003185127287300,5.702287353515625,-0.3626251220703125,-0.5293731689453125,-0.3535003662109375
1783003185137338400,5.71233837890625,-0.4525299072265625,-0.393218994140625,-0.2954559326171875
1783003185147390500,5.722390380859375,-0.549652099609375,-0.3114471435546875,-0.305389404296875
1783003185157442300,5.7324423828125,-0.679779052734375,-0.2157440185546875,-0.336639404296875
1783003185167493400,5.742493408203125,-0.71240234375,-0.071502685546875,-0.32275390625
1783003185177545200,5.752545166015625,-0.7205963134765625,0.003997802734375,-0.3564300537109375
1783003185187596300,5.76259619140625,-0.7274627685546875,0.0173187255859375,-0.390655517578125
1783003185197648400,5.7726484375,-0.6630096435546875,0.0465087890625,-0.3968963623046875
1783003185207700200,5.7827001953125,-0.5932464599609375,0.0800628662109375,-0.3767547607421875
1783003185217751300,5.792751220703125,-0.478424072265625,0.0565643310546875,-0.3144989013671875
1783003185227803100,5.80280322265625,-0.3882904052734375,-0.0111236572265625,-0.2578887939453125
1783003185237855200,5.812855224609375,-0.3119354248046875,-0.0937652587890625,-0.181976318359375
1783003185247906300,5.82290625,-0.2422332763671875,-0.179901123046875,-0.145904541015625
1783003185257958100,5.832958251953125,-0.221710205078125,-0.2400665283203125,-0.158233642578125
1783003185268009200,5.84300927734375,-0.2418365478515625,-0.262298583984375,-0.17620849609375
1783003185278061300,5.853061279296875,-0.2087249755859375,-0.2599639892578125,-0.1708221435546875
1783003185288113400,5.863113525390625,-0.1776580810546875,-0.2383880615234375,-0.17388916015625
1783003185298164500,5.87316455078125,-0.2274322509765625,-0.1982269287109375,-0.1591949462890625
1783003185308216300,5.88321630859375,-0.2457427978515625,-0.1889801025390625,-0.1215667724609375
1783003185318268400,5.893268310546875,-0.2700347900390625,-0.1913909912109375,-0.1264801025390625
1783003185328319200,5.9033193359375,-0.326202392578125,-0.18695068359375,-0.1071624755859375
1783003185338371300,5.913371337890625,-0.355010986328125,-0.1859130859375,-0.07318115234375
1783003185348423200,5.923423095703125,-0.394500732421875,-0.17926025390625,-0.0956878662109375
1783003185358474200,5.93347412109375,-0.4248809814453125,-0.175567626953125,-0.162109375
1783003185368526300,5.9435263671875,-0.4166107177734375,-0.1275634765625,-0.2407684326171875
1783003185378577200,5.9535771484375,-0.416534423828125,-0.0848541259765625,-0.2550811767578125
1783003185388629200,5.963629150390625,-0.4111175537109375,-0.110321044921875,-0.2207489013671875
1783003185398681300,5.973681396484375,-0.45611572265625,-0.1274566650390625,-0.2191009521484375
1783003185408732200,5.983732177734375,-0.51739501953125,-0.1412811279296875,-0.1796417236328125
1783003185418784300,5.9937841796875,-0.5501708984375,-0.150970458984375,-0.138946533203125
1783003185428836400,6.00383642578125,-0.578643798828125,-0.157867431640625,-0.1264801025390625
1783003185438887400,6.013887451171875,-0.704742431640625,-0.15679931640625,-0.162384033203125
1783003185448939300,6.023939208984375,-0.8253326416015625,-0.139556884765625,-0.2382049560546875
1783003185458990300,6.033990234375,-0.8989410400390625,-0.0816192626953125,-0.31353759765625
1783003185469042200,6.044042236328125,-1.0321197509765625,-0.0081634521484375,-0.35479736328125
1783003185479094300,6.05409423828125,-1.0879669189453125,0.0999603271484375,-0.287689208984375
1783003185489145300,6.064145263671875,-1.0030517578125,0.235137939453125,-0.1767730712890625
1783003185499197200,6.074197265625,-0.977691650390625,0.23046875,-0.1247100830078125
1783003185509249300,6.084249267578125,-0.964447021484375,0.1190338134765625,-0.0908050537109375
1783003185519300000,6.094300048828125,-1.0345306396484375,0.004302978515625,-0.0679931640625
1783003185529352200,6.104352294921875,-1.215789794921875,-0.1108856201171875,-0.069915771484375
1783003185539404300,6.114404296875,-1.34722900390625,-0.2123870849609375,-0.118408203125
1783003185549455000,6.124455078125,-1.4234466552734375,-0.3143768310546875,-0.1952362060546875
1783003185559507500,6.134507568359375,-1.5882415771484375,-0.4276123046875,-0.25128173828125
1783003185569558300,6.144558349609375,-1.7987823486328125,-0.52191162109375,-0.2758941650390625
1783003185579610400,6.1546103515625,-1.9923858642578125,-0.587432861328125,-0.2954559326171875
1783003185589662200,6.164662109375,-2.1959228515625,-0.6434783935546875,-0.2944488525390625
1783003185599713300,6.17471337890625,-2.2181243896484375,-0.6824798583984375,-0.31719970703125
1783003185609765400,6.184765380859375,-2.090545654296875,-0.63238525390625,-0.3906097412109375
1783003185619817200,6.194817138671875,-1.929473876953125,-0.576934814453125,-0.41094970703125
1783003185629868300,6.204868408203125,-1.780487060546875,-0.6192779541015625,-0.41766357421875
1783003185639920000,6.214920166015625,-1.6461639404296875,-0.6738433837890625,-0.4380340576171875
1783003185649971200,6.22497119140625,-1.619415283203125,-0.72955322265625,-0.4149627685546875
1783003185660023300,6.235023193359375,-1.6959075927734375,-0.77032470703125,-0.3521728515625
1783003185670075100,6.2450751953125,-1.7374267578125,-0.78155517578125,-0.3024139404296875
1783003185680126200,6.255126220703125,-1.528411865234375,-0.748443603515625,-0.2963104248046875
1783003185690173000,6.2651728515625,-1.3979034423828125,-0.60015869140625,-0.2674102783203125
1783003185700224800,6.275224853515625,-1.3789215087890625,-0.4764404296875,-0.2158355712890625
1783003185710275800,6.28527587890625,-1.261260986328125,-0.38653564453125,-0.2000885009765625
1783003185720328000,6.295327880859375,-1.0543670654296875,-0.271331787109375,-0.18121337890625
1783003185730378800,6.305378662109375,-0.801788330078125,-0.1830291748046875,-0.1829071044921875
1783003185740430800,6.315430908203125,-0.69091796875,-0.1215362548828125,-0.2061309814453125
1783003185750482700,6.325482666015625,-0.8000335693359375,-0.032135009765625,-0.194305419921875
1783003185760533800,6.33553369140625,-1.0544586181640625,0.043243408203125,-0.1361236572265625
1783003185770586000,6.345586181640625,-1.2470703125,0.049163818359375,-0.046417236328125
1783003185780638000,6.355637939453125,-1.11907958984375,0.0174713134765625,0.0241851806640625
1783003185790689000,6.36568896484375,-0.8876800537109375,-0.062286376953125,0.063751220703125
1783003185800740900,6.375740966796875,-0.782379150390625,-0.10546875,0.0955352783203125
1783003185810793000,6.38579296875,-0.655517578125,-0.1110687255859375,0.090576171875
1783003185820844000,6.395843994140625,-0.507049560546875,-0.114898681640625,0.027496337890625
1783003185830895900,6.405895751953125,-0.4026947021484375,-0.1074981689453125,-0.028076171875
1783003185840947000,6.415947021484375,-0.3463592529296875,-0.1290130615234375,-0.0582427978515625
1783003185850998800,6.425998779296875,-0.3300323486328125,-0.1746063232421875,-0.0585174560546875
1783003185861051000,6.43605078125,-0.30645751953125,-0.19073486328125,-0.0405426025390625
1783003185871102000,6.44610205078125,0.135528564453125,-0.203155517578125,0.12158203125
1783003185881153800,6.45615380859375,-0.093994140625,-0.2873687744140625,0.2874755859375
1783003185891206100,6.4662060546875,-0.67877197265625,-0.3466644287109375,0.242645263671875
1783003185901256700,6.476256591796875,-0.700836181640625,-0.30126953125,0.202117919921875
1783003185911309000,6.48630908203125,-0.5876007080078125,-0.1870574951171875,0.123687744140625
1783003185921360100,6.496360107421875,-0.535980224609375,-0.1412506103515625,0.0917205810546875
1783003185931412000,6.506411865234375,-0.468475341796875,-0.2083587646484375,0.069610595703125
1783003185941464000,6.516464111328125,-0.31488037109375,-0.2683258056640625,0.0286712646484375
1783003185951515000,6.526514892578125,-0.1586151123046875,-0.213348388671875,0.015411376953125
