time,seconds_elapsed,z,y,x
1783003179512184300,0.087184326171875,-0.0223603003680706,-0.3898015738800168,-0.08330372163057327
1783003179522236400,0.097236328125,-0.0001397007316350937,-0.21156974379867313,0.22054434676244852
1783003179532287200,0.107287353515625,0.3274368876427412,-0.0697609339684248,0.5576706345748156
1783003179542339300,0.11733935546875,0.628516514235735,-0.0636500498726964,0.6684303722772746
1783003179552390400,0.127390380859375,0.4771054710626602,-0.04167290360331535,0.8083060951530933
1783003179562442200,0.137442138671875,0.14088205037415027,-0.043866614255309105,0.841067378026247
1783003179572494300,0.147494384765625,0.03205225782096386,-0.05734685807526111,0.800946526170522
1783003179582545400,0.15754541015625,0.19208441434502602,-0.02662760242372751,0.7061633060831576
1783003179592597200,0.16759716796875,0.5049883342444896,0.020921791997551918,0.5689783931938931
1783003179602649000,0.177649169921875,0.6899626243233681,0.03353197498470545,0.4609942942172289
1783003179612700200,0.1877001953125,0.6974234617233276,-0.023699440017342567,0.3867890211258083
1783003179622752300,0.197752197265625,0.614970803964138,-0.08219313004016876,0.351991410119459
1783003179632804400,0.207804443359375,0.6757482210099697,-0.10066869792938232,0.2827718895513564
1783003179642855200,0.217855224609375,0.8649988732337951,-0.047259763824939724,0.11402378099970518
1783003179652907300,0.2279072265625,0.9714987615346908,0.08582242645323276,0.1409098882291466
1783003179662958300,0.237958251953125,0.9666098204493522,0.24015023385584353,0.4292150811839848
1783003179673010400,0.248010498046875,0.972832055965066,0.39545857672840357,0.8034646464712918
1783003179683068200,0.258068115234375,1.3342062845230103,0.4233253655582666,0.816584532546252
1783003179693119000,0.268118896484375,1.7960265081703661,0.40919337983131404,0.34279980340413746
1783003179703171300,0.27817138671875,1.9861404992252587,0.47394642250984903,0.06773784890929237
1783003179713223200,0.28822314453125,1.632133584564924,0.660430240368843,-0.18142450690912082
1783003179723274200,0.298274169921875,0.9658394205987453,1.2399676196411251,-0.5352484479516745
1783003179733326000,0.308326171875,0.3309533713310957,2.0786212145239116,-0.6527131631854921
1783003179743378200,0.318378173828125,1.9318132812321185,2.2324875418946144,-1.5431258060738444
1783003179753429200,0.32842919921875,0.37623219047188755,1.1802081474661827,-3.2547569979846473
1783003179763481000,0.338481201171875,-2.628841606158018,0.14444412676990032,-3.84053151808083
1783003179773532200,0.3485322265625,-2.433655718666315,0.0965674000903964,-4.430950941373408
1783003179783584000,0.358583984375,-0.6486831039518117,0.9530620643511414,-4.2534906801864505
1783003179793636000,0.368635986328125,2.0354197861790655,1.7613614375025033,-3.4892069743722676
1783003179803687200,0.378687255859375,2.1959505398750303,2.20181709382087,-2.608357913316786
1783003179813739000,0.388739013671875,0.6275719268620014,2.373756545759737,-2.2576386420249936
1783003179823791400,0.398791259765625,-1.2014058337956666,1.7494927205324171,-1.583614614459127
1783003179833842200,0.40884228515625,0.9624737435579299,0.6710363900572062,1.6390853033989667
1783003179843894300,0.418894287109375,0.8449024261444806,-0.3288730579257011,5.338620789337158
1783003179853946000,0.428946044921875,-5.524337422215938,-1.2362886388674377,4.035727050183713
1783003179863997200,0.4389970703125,-9.655986560323834,-1.318930389457941,0.9850648570071905
1783003179874049300,0.44904931640625,-8.609813373816014,-0.68397244399786,-0.011620404764823615
1783003179884100000,0.45910009765625,-7.129969953346252,-0.23450199883580206,0.4505489611137658
1783003179894152200,0.469152099609375,-7.471901814809441,-0.6025862464264035,1.313600426606834
1783003179904204000,0.4792041015625,-8.04123724128008,-1.22986883495301,1.8268202903628348
1783003179914255000,0.489255126953125,-7.585048886039853,-1.6226806965649128,1.9886530665680764
1783003179924307200,0.49930712890625,-6.763131029641628,-2.0606910055577754,1.6987559282466769
1783003179934359000,0.509359130859375,-6.6188581677854055,-2.7568215048611164,1.5381203990019856
1783003179944410000,0.51941015625,-6.735001498222351,-3.649348436489701,2.2562872274160384
1783003179954462000,0.5294619140625,-6.373243823304772,-5.05286089695096,3.1624826189130544
1783003179964514300,0.539514404296875,-5.536245886674523,-6.547250144645571,3.4837603994041677
1783003179974565400,0.5495654296875,-4.925829092752934,-7.031355849859118,2.990796264952421
1783003179984617200,0.5596171875,-4.144298191800713,-6.3917503708541386,1.962151282481104
1783003179994668300,0.569668212890625,-2.838835771203041,-5.179653047174215,1.3458068520762025
1783003180004720000,0.57972021484375,-1.544118616503477,-4.10644396970272,1.0196180647984145
1783003180014772200,0.589772216796875,-0.6891530615061521,-3.0910189726799726,0.6561027325585485
1783003180024823300,0.5998232421875,0.37214170628786086,-1.9635683096721768,0.34186142657548185
1783003180034875100,0.609875244140625,1.6551251685738562,-0.6944026525974273,0.0884893075749278
1783003180044927200,0.61992724609375,2.482213121086359,0.48120852246731516,-0.38235987957194445
1783003180054978000,0.62997802734375,2.9527041424453255,1.483364288072288,-1.093067039629817
1783003180065030100,0.640030029296875,3.194659964418411,2.230397876138985,-2.031147077295929
1783003180075082000,0.65008203125,3.0252848100095986,2.5947169259771705,-2.764119845175743
1783003180085133000,0.660133056640625,3.0697938138216734,2.631327577754855,-2.7609961601972577
1783003180095185200,0.67018505859375,3.492819319650531,2.64636907954216,-2.3137561044357717
1783003180105236000,0.680236083984375,3.976894045203924,2.5134564006119966,-1.917647685496509
1783003180115288300,0.690288330078125,4.645974040496349,2.2863950731709597,-0.6180561296936125
1783003180125340200,0.700340087890625,4.96466589614749,1.8535162818476556,0.5651482039138674
1783003180135391200,0.71039111328125,4.697038457301259,1.5409356025531886,0.4540609878227114
1783003180145443300,0.720443359375,4.565207728388906,1.6183558191031218,0.23089221084080636
1783003180155495200,0.7304951171875,4.883116909229755,2.0840946774989364,0.2685529927259311
1783003180165546200,0.740546142578125,5.159932447659969,2.8341166337266563,-0.12401073934379965
1783003180175598000,0.75059814453125,5.19592496753931,3.1511461091235278,-0.457742124020867
1783003180185650200,0.760650146484375,5.340473139205574,2.92012376909703,-0.3415684349782765
1783003180195701200,0.770701171875,5.385846650892495,2.595965172472596,-0.2660687016295269
1783003180205753000,0.780753173828125,5.496581400284171,2.4543688363492486,-0.19630122832246125
1783003180215804200,0.79080419921875,5.862353571540117,2.336494152075052,0.042056715289130804
1783003180225856000,0.80085595703125,6.144222886228561,2.2915765674620867,-0.04921776602491736
1783003180235908400,0.810908447265625,6.041777241754532,2.4970386420354247,-0.32361637950651345
1783003180245959200,0.820959228515625,6.032016895240545,2.7627178694233296,-0.5194669049194083
1783003180256011300,0.83101123046875,6.312446532514691,2.606336344361305,-0.5464735332559794
1783003180266063000,0.84106298828125,6.32333968245089,2.7303452936068178,-0.29511465377397833
1783003180276114200,0.8511142578125,5.96279664402008,2.8728353636994957,0.0668534124912694
1783003180286166300,0.861166259765625,5.399879267898202,2.8291899909794327,0.45964949201215055
1783003180296218000,0.871218017578125,4.984124045333266,2.611454125766456,0.6603297756690532
1783003180306269200,0.881269287109375,4.7092947122842075,2.4717028329879045,0.33609584878608584
1783003180316321000,0.891321044921875,4.42060461166501,2.6497891171187162,-0.30831564226113256
1783003180326372000,0.9013720703125,3.9541801090925928,2.9192104536443946,-0.6292964856322855
1783003180336424200,0.911424072265625,3.6040836458742618,3.0016794780164955,-0.7967918907091021
1783003180346476000,0.92147607421875,3.192953745022416,2.995995587161183,-0.7855145637609064
1783003180356527000,0.931527099609375,2.5172253977566954,2.806594128289819,-0.7708183682799339
1783003180366579000,0.941578857421875,1.4474848731786012,2.5300007081776856,-0.6359395038433373
1783003180376631300,0.95163134765625,0.285455941003561,1.9780150604367255,-0.46294122703392054
1783003180386682400,0.961682373046875,-1.2660457714885474,1.0099182163000107,0.023106890084827317
1783003180396734200,0.971734130859375,-2.352498361414671,-0.4257517159223556,0.48414362607114014
1783003180406786300,0.981786376953125,-3.346944867816567,-1.3925170191943645,0.5991434124961496
1783003180416837000,0.991837158203125,-4.554404594823718,-2.1030343557685613,0.8357276244334876
1783003180426889200,1.00188916015625,-6.313892055147886,-3.3882407548010347,1.2964701358467339
1783003180436940300,1.011940185546875,-7.947305158129334,-3.887006853529811,0.6948970119856298
1783003180446992100,1.0219921875,-9.959368034118413,-3.1945641028285023,-0.1533045653020963
1783003180457044200,1.032044189453125,-10.076003531986474,-3.967811159560084,-0.2464878759121522
1783003180467095000,1.042094970703125,-9.913070393323897,-4.734724921616912,0.35995310971364375
1783003180477147100,1.052147216796875,-9.648300681996345,-4.87838988070786,1.2931646645605563
1783003180487199000,1.062198974609375,-8.936280539643764,-5.367796614938974,2.0388902387686074
1783003180497250000,1.07225,-8.287071950513123,-6.415842025059461,2.648497031481564
1783003180507302100,1.08230224609375,-7.757561753952503,-7.640432919609546,3.704632224555313
1783003180517354200,1.092354248046875,-6.71902008523643,-9.044265698066352,4.273208649352193
1783003180527405300,1.1024052734375,-5.615768336200714,-10.057328057610988,3.176508221656084
1783003180537457200,1.11245703125,-4.347001030793786,-9.900648134124278,1.1828174531817435
1783003180547508200,1.12250830078125,-2.6414924134165045,-9.409025477409362,-1.2253056917559355
1783003180557560300,1.132560302734375,-0.9739560915589331,-8.605432382252811,-3.7393212606206534
1783003180567612200,1.142612060546875,0.30391105062663554,-7.309568395605683,-4.908600894576311
1783003180577663200,1.152663330078125,1.5060200642555952,-5.842487426075339,-5.030674784106016
1783003180587715000,1.162715087890625,2.067115485647321,-4.151374998319149,-4.248232029005885
1783003180597767200,1.17276708984375,2.0892706188321113,-2.3829314936012027,-2.9164506335422393
1783003180607818200,1.182818359375,1.82981362695992,-0.6738587540015578,-1.6610485672734676
1783003180617870000,1.1928701171875,1.4483733464509247,0.5602823514431715,-0.6599445757437497
1783003180627921200,1.202921142578125,1.540970381605625,1.400069042009115,-0.431710441663675
1783003180637973000,1.212972900390625,1.8072791390687226,2.3038065189599988,-0.811313533340767
1783003180648025300,1.223025390625,2.65347452763319,3.1338208803132175,-1.4313624442867934
1783003180658076200,1.233076171875,3.2606875570774077,3.6322380194738506,-1.9430412160806356
1783003180668128300,1.243128173828125,3.635943011471629,3.744821611602604,-1.9654566076368092
1783003180678180000,1.25318017578125,3.925887496066093,3.352920727355778,-1.6991086872071026
1783003180688230000,1.26322998046875,4.267978932005167,2.8034391713902354,-1.4051596431463955
1783003180698281700,1.27328173828125,4.780188449674845,2.390065875525772,-1.128692845088616
1783003180708333800,1.283333740234375,5.176275095173716,2.0585253519564866,-0.9224432733993977
1783003180718384600,1.293384521484375,5.5871367004781956,1.8874954160779713,-0.5841066599491983
1783003180728436700,1.303436767578125,5.854232224404812,1.9297218619108198,-0.21652838911935685
1783003180738488600,1.313488525390625,5.954613337564468,2.0829238801538943,0.2395761602949351
1783003180748539600,1.32353955078125,5.945532790008187,2.154150502760708,0.523919573479332
1783003180758591700,1.333591796875,6.000089140582085,2.3107681746661664,0.42500878860056396
1783003180768642600,1.343642578125,6.227628899189829,2.6418141927167773,0.28958390765376385
1783003180778694700,1.353694580078125,6.368077818843722,2.751640887352824,0.22365911778211592
1783003180788746500,1.36374658203125,6.23361498786211,2.6855615645065902,0.37060923602357504
1783003180798797600,1.373797607421875,6.310522870975732,2.7069258395746347,0.33966267442218956
1783003180808850000,1.383849853515625,6.390104357212781,2.6735782812461255,0.2522095049619675
1783003180818901800,1.39390185546875,6.396604825147986,2.4346464832693337,0.3249754294326529
1783003180828952800,1.403952880859375,5.9918988198637955,2.273844803677499,0.4801828326813876
1783003180839004700,1.414004638671875,5.402759791770577,2.213223161715269,0.5024760226299986
1783003180849056800,1.424056884765625,4.981237091720104,2.122360110746324,0.30727292827516794
1783003180859107800,1.43410791015625,4.318861562502384,2.4144541745901105,0.03947781384498812
1783003180869159700,1.44415966796875,3.4959599557638166,2.7502880114391446,0.27221652020215986
1783003180879210800,1.454210693359375,2.423750995245576,2.858854476881027,0.6746816146917641
1783003180889262600,1.4642626953125,1.3399977274060249,3.0911005134835836,0.6821493202239275
1783003180899314700,1.474314697265625,0.3445166172593832,3.409113154698908,0.3397925113469362
1783003180909365800,1.48436572265625,-0.7145365090876817,3.639230362579226,0.03830241339006461
1783003180919417600,1.49441748046875,-2.1573411154955626,3.4726483460202813,0.5673100215902551
1783003180929469700,1.5044697265625,-3.8689217462629077,2.9188021651044487,1.256318450461328
1783003180939520500,1.5145205078125,-4.955296010255814,2.170042191636562,1.607923856937885
1783003180949572900,1.52457275390625,-5.889636715263128,1.4577292038172482,1.813591683216393
1783003180959624000,1.5346240234375,-7.47734955882132,0.7689610499754548,2.6352561493754387
1783003180969675800,1.54467578125,-9.316216845330596,-0.29156770188212394,3.6221433264389633
1783003180979728000,1.554727783203125,-10.927477737736702,-0.9815221428990364,3.358817968700826
1783003180989778700,1.56477880859375,-11.25372629237771,-1.1375967939689755,2.5827874187305566
1783003180999830800,1.574830810546875,-10.508462052071094,-1.47127520634979,2.0369062253445387
1783003181009882600,1.584882568359375,-9.312909620478749,-1.8594135231927036,1.5805067115716636
1783003181019933700,1.59493359375,-8.078246244725584,-2.6336916765376923,1.3220645958304404
1783003181029985800,1.60498583984375,-7.264214173141122,-3.6979438328325744,1.2784613086864351
1783003181040037600,1.61503759765625,-7.063077268290519,-5.1597828100562095,2.4487321456365287
1783003181050088700,1.625088623046875,-7.225445758807659,-7.082392209613323,3.8052234733343124
1783003181060140500,1.635140625,-7.079752508759499,-8.672857566750048,4.112325428956747
1783003181070191600,1.645191650390625,-6.191904674857854,-9.877700973778962,2.9013325593873858
1783003181080243700,1.65524365234375,-5.215298361051082,-10.16917047598362,1.0303135732706636
1783003181090295800,1.6652958984375,-4.311474374860525,-9.437729593846202,-0.607511573999375
1783003181100347000,1.675346923828125,-3.334255482113361,-7.724569000411033,-1.9623972200661897
1783003181110398700,1.685398681640625,-2.3150006976693867,-5.910889931172132,-2.469087097531557
1783003181120450800,1.695450927734375,-1.5511393089205026,-4.070499672879278,-2.183803444354981
1783003181130501600,1.705501708984375,-0.9368301837354898,-2.2623507652387023,-1.6889667940296231
1783003181140553700,1.7155537109375,-0.3577525309294462,-0.7542211614832282,-0.9733443894013762
1783003181150605600,1.72560546875,0.05092471607327461,0.3436564932987094,-0.28213549134396015
1783003181160656600,1.73565673828125,0.28304595725238324,1.1959274023845792,0.07756329654874279
1783003181170708700,1.745708740234375,0.5941992340922355,1.5104276515647768,0.17847506425268947
1783003181180759600,1.755759521484375,1.1979109774172305,1.4101064518988131,0.03765943017825484
1783003181190811600,1.765811767578125,2.133428909510374,1.2430235000804066,-0.263314544083178
1783003181200863500,1.775863525390625,3.0201912862628695,1.1316656503543256,-0.9272753697309642
1783003181210914600,1.78591455078125,4.042150068968534,1.208453121958673,-1.6289508628755807
1783003181220967000,1.795966796875,4.946506554600596,1.3416910873204468,-1.815761574601382
1783003181231018800,1.806018798828125,5.3633998412847514,1.2807342220544815,-1.5538751636251806
1783003181241069800,1.81606982421875,5.697259455451369,1.2046022917494177,-1.1999755087316035
1783003181251121700,1.82612158203125,5.862262386125326,1.1291162581324576,-0.7678497277326881
1783003181261173800,1.836173828125,6.0923337090373035,1.079304763998091,-0.4194522504519671
1783003181271224800,1.846224853515625,6.078153207993507,1.0815984278932214,-0.2021504110083915
1783003181281276700,1.856276611328125,5.890249294203519,1.1207932509452103,-0.29474552820064126
1783003181291327700,1.86632763671875,6.335738560774922,1.1874915824726224,-0.6250899738531559
1783003181301379600,1.876379638671875,6.682346597355604,1.36546417709589,-0.9771285841152071
1783003181311431700,1.886431640625,6.514568356749415,1.5017770198583602,-1.2449090215660632
1783003181321482800,1.896482666015625,6.581138970243931,1.4903367574334143,-1.3591126161120832
1783003181331534600,1.90653466796875,7.054317623251676,1.4672811682775615,-1.5110830467335878
1783003181341586700,1.916586669921875,7.0408443936944005,1.4906500611662863,-1.2597139381185174
1783003181351637500,1.926637451171875,6.773107649254799,1.3347162798717618,-0.7233814943224192
1783003181361689900,1.93668994140625,6.671082276019454,1.1563561472356318,-0.4319173258800059
1783003181371741700,1.94674169921875,6.634252136272192,1.2961413422837853,-0.42440585427135225
1783003181381792800,1.956792724609375,6.509253883728385,1.5754422677889466,-0.3576499473378062
1783003181391844900,1.966844970703125,6.405547425538301,1.822478169505298,-0.43712242024242876
1783003181401895700,1.976895751953125,6.401397904643416,2.0268053948298097,-0.8917477639496326
1783003181411947800,1.98694775390625,6.085880002853274,2.1686016374394295,-1.3150260754957794
1783003181421999600,1.99699951171875,5.5397015800863505,2.317318619222939,-1.3381097217023372
1783003181432050700,2.00705078125,4.9171495272129775,2.551757489694655,-1.2896885128825901
1783003181442102800,2.017102783203125,4.318424924650788,2.9680668390110134,-1.153742676801607
1783003181452154600,2.027154541015625,4.075928419929743,3.3651281747609376,-1.0556040088064969
1783003181462205700,2.037205810546875,3.935937765437364,3.589920095965266,-0.8556835670735686
1783003181472257500,2.047257568359375,3.6968309031546114,3.220870802734792,-0.28137393238693476
1783003181482310000,2.057309814453125,3.154945209145546,2.0609809284150598,0.662726973003894
1783003181492360700,2.067360595703125,1.9463357275813817,-0.012754559893906116,2.042247440242022
1783003181502412800,2.077412841796875,-0.31587562918663026,-2.4739903594031927,3.3988357985734936
1783003181512464000,2.0874638671875,-2.787616456097364,-3.845321382705867,4.134282116959989
1783003181522515700,2.097515625,-5.6939949006974695,-4.076055553440749,4.408488934196532
1783003181532567800,2.10756787109375,-8.815182801669836,-4.650477489395439,3.3827038712009787
1783003181542618600,2.11761865234375,-11.176116982996463,-4.852434770718217,1.714617514245212
1783003181552670700,2.127670654296875,-11.698464448320864,-2.9947756899774074,0.30625666390471157
1783003181562722600,2.13772265625,-11.063690042734146,-0.7873851799383759,-0.6560062133815139
1783003181572773600,2.147773681640625,-10.575903018659353,0.4499743030309677,-0.8031397984310984
1783003181582825700,2.15782568359375,-10.245801295721531,0.4183490384504199,0.053456992763560265
1783003181592876800,2.167876708984375,-9.870963774478435,-0.9723156308755277,1.893777272826433
1783003181602928600,2.1779287109375,-9.203210643875599,-3.156235541217029,3.8299274142190813
1783003181612980500,2.18798046875,-8.376631225407124,-4.850542965622246,4.970584764802456
1783003181623031600,2.198031494140625,-8.001701349705458,-5.878268933552503,4.905998603123426
1783003181633083600,2.208083740234375,-8.232608538919687,-6.554599338364601,3.8255642505735157
1783003181643135700,2.2181357421875,-8.486092301601172,-6.841370453619956,1.967751878967136
1783003181653186800,2.228186767578125,-7.970937962651252,-6.621052462959289,-0.010384177500754594
1783003181663238700,2.23823876953125,-7.204971126055717,-5.639476544046402,-1.5466703468129037
1783003181673290800,2.248290771484375,-6.671874887701868,-4.431653828945755,-2.251802775478363
1783003181683341000,2.258341064453125,-5.151920406118035,-3.1991075914770364,-2.7056632722929117
1783003181693393000,2.268392822265625,-3.671715751120448,-2.0928546147987244,-3.3075565680190917
1783003181703444000,2.27844384765625,-2.978981908518076,-1.5059733025044202,-3.3984634581297635
1783003181713496000,2.28849609375,-2.4161603939861056,-1.0856577862866221,-2.9752450600773095
1783003181723548000,2.2985478515625,-1.7281898202627897,-0.8102161665581167,-2.9065532166451216
1783003181733599000,2.308598876953125,-1.0830921735823154,-0.6609013650119304,-3.093369042937457
1783003181743651000,2.318651123046875,-0.7205547464638948,-0.4963960085965693,-2.570459559816122
1783003181753703200,2.328703125,-0.300049699023366,-0.31571912345066666,-2.100376388605684
1783003181763754200,2.338754150390625,0.4053279365748167,-0.09826645909324287,-2.2360890735179186
1783003181773806000,2.34880615234375,1.3251748368054628,0.2831039710499346,-2.58285639231354
1783003181783858200,2.358858154296875,2.2495167103677987,0.6463602139621972,-2.65593711835444
1783003181793909000,2.368908935546875,3.1825632839113474,0.6670211630664765,-2.1585198038861155
1783003181803961000,2.378961181640625,3.880087283399701,0.5383567892305553,-1.078943529470265
1783003181814012200,2.38901220703125,4.5294577850937845,0.3467695107527077,-0.13927256935089827
1783003181824064000,2.39906396484375,5.126569107240438,0.1632872127972543,0.5265455015361309
1783003181834116000,2.4091162109375,5.709371918049454,-0.013203618835657835,1.00423140283525
1783003181844167000,2.4191669921875,6.269131706923246,-0.17731164649650452,1.288950261735916
1783003181854219000,2.429218994140625,6.637588002696633,-0.2615282451882958,1.4509478731140493
1783003181864270800,2.439270751953125,7.036626483738422,-0.24376667078733444,1.3369983994595707
1783003181874322000,2.449322021484375,7.231604281437397,-0.07553484119474888,1.1191754404850303
1783003181884374000,2.4593740234375,7.30515291725099,0.07972849349230528,0.8323335980810225
1783003181894426000,2.469426025390625,7.38249568465054,0.1876665979027748,0.7371006614647805
1783003181904477200,2.479477294921875,7.458485283875465,0.4473167742595076,0.5898701188467442
1783003181914529000,2.489529052734375,7.337525493067503,0.9874848506957292,0.5718062004983425
1783003181924580000,2.499580078125,7.085628122794628,1.3109215627864002,0.8687287074118852
1783003181934632000,2.5096318359375,7.13970867255032,1.5316446271166204,1.0761208001997322
1783003181944684000,2.51968408203125,6.959669500786066,1.8694377813398837,1.3410887375131249
1783003181954735000,2.529735107421875,6.521431812778115,2.2227993838340043,1.509996566671133
1783003181964787000,2.539786865234375,6.208224526017904,2.5339511993691324,1.3940158794499933
1783003181974839000,2.549839111328125,5.904225212585926,2.7145073807448146,1.1832041144117713
1783003181984890000,2.55989013671875,5.0396378427624695,3.032085429935157,0.9016576019369065
1783003181994942000,2.56994189453125,4.123998915615678,3.1106501403450966,0.3636116322211921
1783003182004993800,2.579993896484375,3.031971740427613,2.9828739475205537,-0.0596953939627856
1783003182015044900,2.590044921875,2.0575632289260626,2.8603809557959434,-0.06337101373560726
1783003182025097200,2.60009716796875,1.4839613771826028,2.713150997699797,0.15728402685970067
1783003182035149000,2.610149169921875,0.8927274226367473,2.564817462275922,0.6113353700712323
1783003182045200100,2.6202001953125,0.4214309301137924,1.860475599466264,1.4822707937471569
1783003182055252000,2.630251953125,-0.4609709133416414,0.15066256289333105,2.5300220432266594
1783003182065303000,2.640302978515625,-2.061849527943134,-2.1272914296686647,3.4226772774100302
1783003182075355100,2.650355224609375,-3.988734705123305,-4.277198011249304,3.6036133980140086
1783003182085407000,2.660406982421875,-7.165446340397,-5.28320811419487,3.499851410244405
1783003182095458000,2.6704580078125,-10.738408287298679,-5.6510611833781,2.4746008925169707
1783003182105510000,2.680510009765625,-11.808139459526538,-5.312063621801138,0.8537908121295272
1783003182115562000,2.69056201171875,-12.020236734330654,-3.185589938256144,-0.7445502468183636
1783003182125613000,2.700613037109375,-11.145102251529693,-1.6411223621845243,-1.8623302874222396
1783003182135665000,2.710664794921875,-10.691602112460135,-1.842441053342819,-2.058307471422106
1783003182145717200,2.72071728515625,-10.528045873463153,-3.53435427608788,-0.6279504047855734
1783003182155767800,2.730767822265625,-9.789384392422438,-6.19838410000503,1.6196726007901132
1783003182165820200,2.740820068359375,-8.442801441407203,-8.469563776126503,2.7553742286622525
1783003182175871200,2.750871337890625,-6.977993092983961,-10.004290879428385,2.726565482807159
1783003182185923000,2.760923095703125,-5.760231752192974,-10.974716458773612,1.8665458592906594
1783003182195975200,2.77097509765625,-4.423057265514135,-10.860524262404441,0.46923831788413223
1783003182206026000,2.78102587890625,-3.08182911953032,-9.086530137822031,-1.4456401220947503
1783003182216078000,2.791078125,-1.8837135594516992,-7.017952762928605,-3.155679953160882
1783003182226130000,2.8011298828125,-1.4572937350094317,-5.284956419166922,-4.247890375961363
1783003182236181000,2.811180908203125,-1.9071499646186827,-3.6027605805769563,-4.266632193571329
1783003182246233000,2.821233154296875,-2.4691981566905974,-1.7913319206133484,-3.3747704478532072
1783003182256285000,2.831284912109375,-2.5303046595603225,-0.46268677734881636,-2.2720485679104923
1783003182266336000,2.8413359375,-2.1494524080723525,0.3087058836877346,-1.0737373391292988
1783003182276387800,2.851387939453125,-1.3090689206570385,1.1207497040644288,0.022938757843151688
1783003182286439000,2.86143896484375,-0.2872077531069517,1.7281170472875236,0.7690997277937829
1783003182296491300,2.8714912109375,0.6657394526928663,1.8791303233146666,0.9928455009460448
1783003182306543000,2.881543212890625,1.5104828888833521,1.849763359054923,0.977414123058319
1783003182316594200,2.89159423828125,2.3401357234477995,1.5628689096808432,0.6590282646164297
1783003182326646000,2.90164599609375,3.129183575901389,1.670638964048028,0.2955693387389183
1783003182336698000,2.911697998046875,3.6960020511150358,1.9895763188928364,0.21745704827159643
1783003182346749200,2.921749267578125,4.2557010497123,1.9392823019385337,0.2218793947584927
1783003182356801000,2.931801025390625,4.639257299461961,1.6373673935651778,0.14367474983260034
1783003182366853000,2.94185302734375,5.209332146123051,1.8365008496388793,-0.29570158681645986
1783003182376904000,2.951904052734375,5.615059311148524,2.418806816841662,-0.2519463239811361
1783003182386956000,2.9619560546875,5.595456785055995,2.54410142198354,0.25089191955737766
1783003182397007000,2.972007080078125,5.638816618832945,2.558743403059244,0.597029854408279
1783003182407059000,2.982058837890625,5.678291135609149,2.85733822709918,0.9144839849580079
1783003182417111000,2.992111083984375,5.829097198626399,2.9904814999148246,0.918784970087558
1783003182427161900,3.002161865234375,6.087177056926489,2.964169539311528,0.815122716365382
1783003182437214200,3.012214111328125,6.147755152007937,3.025648967146873,0.7628228394813835
1783003182447266000,3.02226611328125,6.290949570977688,3.0867288742706176,0.5675745542779564
1783003182457317000,3.032317138671875,6.76512308024168,3.1230878893747924,0.13492284970879553
1783003182467369000,3.042368896484375,6.871944455581903,3.234889975737035,0.2736966757573187
1783003182477421000,3.052421142578125,6.484872306665777,3.2173408750429746,0.4694290912158787
1783003182487472000,3.06247216796875,6.169409934455156,3.199736537030339,0.7036644019395113
1783003182497524000,3.07252392578125,5.800866544920206,3.303233736383915,0.6365605583511292
1783003182507575000,3.082574951171875,5.325750201848149,3.581718377070129,0.2173955273427069
1783003182517627000,3.092626953125,4.676076917815208,3.744883570922911,0.12098127198740839
1783003182527679000,3.102678955078125,4.232274581417441,3.668017481124401,0.07058379465863109
1783003182537730000,3.11272998046875,3.6650621384501454,3.7448037836849686,0.04165376051142811
1783003182547782000,3.122781982421875,2.9685885247975587,3.930838104210794,0.19901260617300867
1783003182557834200,3.132834228515625,2.4245681568473576,4.129419479359687,0.5039059458352625
1783003182567884800,3.142884765625,1.943912299826741,4.304013537460565,0.8375419803790748
1783003182577937200,3.152937255859375,1.5186305395036934,4.254854662016034,0.9177643948681652
1783003182587989000,3.162989013671875,1.131930146509409,3.9305771151870488,1.0696414481177925
1783003182598040000,3.1730400390625,0.7950216661661863,2.993236059319973,1.008551457991451
1783003182608092200,3.183092041015625,0.36433833906054497,2.1826514978408813,0.636736864766106
1783003182618143000,3.19314306640625,-0.4548714274227619,0.6663485245019197,0.4638341938182711
1783003182628195000,3.203195068359375,-2.2537170846670866,-1.5046183807641267,0.4102856320474297
1783003182638247000,3.213246826171875,-5.02012942469418,-3.137380326360464,0.9799407919917255
1783003182648298000,3.223298095703125,-7.275801150560379,-3.731162796345353,2.264221819807589
1783003182658350000,3.23335009765625,-9.03513371258378,-4.653121574163436,2.6020927154421805
1783003182668402000,3.24340185546875,-10.838256316494942,-5.162209160420298,2.2567706270188093
1783003182678453000,3.253452880859375,-12.758347595751285,-4.108277907131612,2.0048403773896397
1783003182688502300,3.263502197265625,-13.629025683665274,-2.2946946994826196,1.407634654957801
1783003182698554400,3.273554443359375,-13.931610454124211,-1.3751117108851671,0.8443836629673838
1783003182708605200,3.283605224609375,-13.897811060374975,-1.823009792163968,0.9490021214358508
1783003182718657300,3.2936572265625,-13.500642464858293,-3.4603891684278842,1.1010039701089263
1783003182728709000,3.303709228515625,-12.344952672576904,-4.998832369643449,1.2164869369409979
1783003182738760200,3.31376025390625,-10.793494799226522,-6.1313832783997055,0.7028549121875316
1783003182748812300,3.323812255859375,-8.83430894242227,-7.021294474571943,-0.21454170881416648
1783003182758863000,3.333863037109375,-7.031547573038935,-7.582504462254047,-1.2515788547188043
1783003182768915200,3.343915283203125,-6.019709202331304,-7.3633572689384215,-2.572686295954883
1783003182778967000,3.353967041015625,-4.776995791113376,-5.9729065346241,-3.8990851215973494
1783003182789018000,3.36401806640625,-2.5681997981905935,-4.093746400693059,-4.506173940140009
1783003182799070200,3.3740703125,-1.0170482143104076,-2.6588825241565703,-4.119126633404195
1783003182809122000,3.3841220703125,0.0053343467652797695,-1.617314493356645,-2.8996593654781577
1783003182819173000,3.394173095703125,0.8832768727242946,-1.2094482704758642,-1.3232732409678398
1783003182829225200,3.40422509765625,1.8465888206720351,-0.8407479368135332,-0.1794239442090504
1783003182839277300,3.41427734375,2.7294816625148055,-0.14595394681096077,0.5255391740377993
1783003182849328400,3.424328369140625,3.490148054614663,0.32829175090640783,0.6464006921030581
1783003182859380200,3.434380126953125,4.1772056051462885,0.8080453983902931,0.5880973370205611
1783003182869431300,3.444431396484375,4.994055072239041,1.2983005661442875,0.030756336258910593
1783003182879483100,3.454483154296875,5.684122910502553,1.7520359752744434,-0.832552793789655
1783003182889535200,3.46453515625,6.2429837047100065,2.3310180587515235,-1.194808627487719
1783003182899586300,3.47458642578125,6.403229796245694,2.87979380453527,-1.0211927667692302
1783003182909638100,3.48463818359375,6.644281362855434,3.0194135798886417,-0.5795205377353355
1783003182919690200,3.494690185546875,6.809665401801467,3.0573361910477277,-0.12390855761095881
1783003182929741000,3.504740966796875,6.905460356214642,3.2303613923966883,0.31526637471448626
1783003182939793200,3.514793212890625,7.010826272049546,3.3704584298729894,0.8055019244525581
1783003182949845200,3.52484521484375,7.0926078986793755,3.4266701464384792,1.0391512519817798
1783003182959896000,3.53489599609375,7.254315294939279,3.412235670633614,1.254464347027242
1783003182969948400,3.544948486328125,7.3393480323195455,3.2923514001026746,1.3524541811361908
1783003182979999200,3.554999267578125,7.376048992729187,3.2106650505408645,0.9762526780635118
1783003182990051300,3.56505126953125,7.440873639339208,3.4486095910459755,0.5650612562827766
1783003183000103200,3.575103271484375,7.728134583938122,3.522032262392342,0.11826262414585799
1783003183010154200,3.585154296875,7.756811227846145,3.474959253311157,-0.06007927871383726
1783003183020206300,3.595206298828125,7.674864766043424,3.3667449623078105,0.3346779448121786
1783003183030258200,3.605258056640625,7.44424574612081,3.0746693109035492,0.614646102054417
1783003183040309200,3.615309326171875,7.367087687638402,2.905250025092065,0.8453335841033607
1783003183050361000,3.625361083984375,7.262485741913318,2.9026629312083125,1.0777512509457767
1783003183060413200,3.6354130859375,7.024747829896211,2.7713156018987295,1.2181195065788923
1783003183070464300,3.64546435546875,6.614180239102244,2.5358926888257263,1.0763527823247014
1783003183080516000,3.65551611328125,6.0663610633909695,2.336898641222715,0.6200822286937385
1783003183090568200,3.665568115234375,5.537023885309696,2.3997996262937784,0.07907602093294262
1783003183100619300,3.675619384765625,5.520443921908736,2.38773889388293,-0.5513499071206898
1783003183110671400,3.68567138671875,5.168550053879619,2.4466911413282153,-0.9654775284837931
1783003183120722200,3.69572216796875,4.706923306977749,2.5330276547834276,-0.8937269550681114
1783003183130774300,3.705774169921875,4.190809183084965,2.399266542330384,-0.552718272864446
1783003183140826000,3.715826171875,3.401181484916806,2.241920263889432,-0.02682297886535525
1783003183150877200,3.725877197265625,2.5656524517953394,2.1242425634920594,0.5144955097150057
1783003183160929300,3.73592919921875,1.434109258776903,1.6837267014190553,1.062913235841319
1783003183170981000,3.745981201171875,0.31863398798406123,0.7274483053699136,1.0902759476065635
1783003183181032200,3.7560322265625,-0.27565117082595825,-0.7848048080563544,1.1797444754771889
1783003183191084000,3.766083984375,-0.6886772606879472,-3.0753759978681803,1.1049656402815133
1783003183201136000,3.77613623046875,-1.7750468485057354,-4.971462716680765,0.958542614654079
1783003183211187200,3.786187255859375,-3.1330794142961502,-5.656819893035292,0.9397925406724214
1783003183221239000,3.796239013671875,-4.955225867629051,-5.56374238088727,0.49872547445744275
1783003183231290000,3.8062900390625,-6.578423866066336,-5.3454380681365725,0.024855405119433998
1783003183241342200,3.81634228515625,-7.552350731530785,-5.5552960395812985,-0.15693704005293546
1783003183251394300,3.826394287109375,-8.356828208306432,-5.495429892161488,-0.4968397337760776
1783003183261445400,3.8364453125,-8.691876155474782,-5.4109506970107555,-0.5823463357457891
1783003183271497200,3.846497314453125,-8.977275397855044,-5.395185557124019,-0.006845153187029063
1783003183281549300,3.85654931640625,-9.120969583040475,-5.413936434823274,1.0364901430137454
1783003183291600100,3.86660009765625,-9.199956025993824,-5.889770570775866,2.058684634171426
1783003183301652200,3.87665234375,-8.579423496249317,-6.27348931761086,1.56711809155792
1783003183311704000,3.8867041015625,-7.284997433450818,-6.870593040972948,-0.15806761498544364
1783003183321755100,3.896755126953125,-5.7323518116205925,-7.586348278200626,-2.082636149253696
1783003183331807200,3.90680712890625,-4.144479978108405,-7.6299664706528185,-3.6106539641752837
1783003183341858000,3.916858154296875,-2.621282569080591,-6.964450889843702,-3.740052497504651
1783003183351910100,3.92691015625,-1.529875571617484,-5.58397619062066,-2.733686712989211
1783003183361962200,3.936962158203125,-1.8727876762896776,-3.781594175943732,-0.6936353945519774
1783003183372013000,3.947012939453125,-1.9226450553923844,-1.588833956542611,1.7166916901707647
1783003183382065400,3.9570654296875,-1.7392857992947102,0.44899464434385294,2.8332679079428313
1783003183392117200,3.9671171875,-1.6395669494360685,1.7639102452024817,3.3388980472221967
1783003183402168300,3.977168212890625,-1.8915221873760222,2.4530305734828115,3.066131491921842
1783003183412220200,3.98722021484375,-2.169772727045417,3.208949771055579,2.044589765584469
1783003183422272300,3.997272216796875,-2.3475422003120183,3.6987902205288408,0.1985057891620323
1783003183432323300,4.0073232421875,-2.427325931122899,3.981147903256118,-1.458468039485812
1783003183442375200,4.017375244140625,-2.1927613884449,3.8856329348281022,-2.227991984041035
1783003183452426200,4.02742626953125,-1.937911013585329,3.9629011756867167,-1.9688763529524207
1783003183462478000,4.03747802734375,-1.3377689454406498,3.5231109975397583,-1.0449228211205452
1783003183472530200,4.0475302734375,-0.6230266846477985,3.037641602757573,-0.3592228957429528
1783003183482581200,4.057581298828125,0.28910452663898467,2.7412089251875877,-0.12224793092235922
1783003183492633000,4.067633056640625,1.149119766241312,1.9033153548918664,-0.0695462683044374
1783003183502685200,4.077685302734375,1.82893684412539,1.3118718492485582,-0.01836633536107838
1783003183512736000,4.087736083984375,2.2999480899661777,1.2329234002180396,0.008274053478986024
1783003183522788400,4.097788330078125,2.8520348599940535,1.1021161691345274,-0.08637706466130912
1783003183532840200,4.107840087890625,3.1616432454794645,1.075640104010701,0.038437574943900106
1783003183542891300,4.117891357421875,3.290498757973313,1.3391349730968474,0.2865967085365206
1783003183552943000,4.127943115234375,3.5591257292509075,1.4402614977963268,0.5845797573536634
1783003183562994200,4.137994140625,3.6352246340692043,1.4520648944452403,0.6388697120763361
1783003183573046300,4.14804638671875,4.02692210469842,1.6338837892331182,0.5398636866621673
1783003183583098000,4.15809814453125,4.399205849805474,1.565262965210527,0.3294432590290904
1783003183593149200,4.168149169921875,4.63554675450623,1.536864553721994,0.15578363223411143
1783003183603201000,4.178200927734375,4.948969729843736,1.4536765674255787,0.18933708839826285
1783003183613253000,4.188253173828125,5.183208109307289,1.254182899737358,0.17398615533560513
1783003183623304200,4.19830419921875,5.3354620330452915,1.2063709088571368,0.30485826834887264
1783003183633356000,4.20835595703125,5.279969278404116,1.234594986692071,0.4087345301479101
1783003183643408400,4.218408447265625,5.535410020372272,1.129887827026844,0.3189233263194561
1783003183653459200,4.228459228515625,5.661085149264335,1.0473280556313693,0.1760937220741063
1783003183663511300,4.23851123046875,5.442800710257887,1.0929941205240785,-0.046508068674802776
1783003183673562400,4.248562255859375,4.96873066136837,1.3164568389512599,-0.4929390000104904
1783003183683617500,4.258617431640625,4.4022973860800265,1.7552824098497628,-0.9197419785514473
1783003183693670000,4.268669921875,3.874109378033876,1.7543822461396454,-1.2577414690017699
1783003183703720700,4.278720703125,2.6575685189485547,2.2305393304362893,-1.4468012748286128
1783003183713772800,4.288772705078125,1.9885148271411657,2.856631832395494,-1.5478246314145623
1783003183723824600,4.29882470703125,1.4012491917043923,3.03694748301357,-1.268332713381946
1783003183733875700,4.308875732421875,1.1593868932336568,2.936429591731727,-0.7532539238862693
1783003183743927800,4.318927734375,1.6752169394880532,2.3310236117094756,-0.15208828484751283
1783003183753979600,4.328979736328125,1.7815385486125945,0.6998626715689897,0.6346680226027965
1783003183764030700,4.33903076171875,1.6399620862334965,-1.4943778495177626,1.8958363973133265
1783003183774082600,4.34908251953125,0.6905167510747909,-3.5223905743107196,2.3755367071747777
1783003183784133600,4.359133544921875,-1.4554495684474706,-4.55787986971885,2.519376438310742
1783003183794185700,4.369185791015625,-3.673191084370017,-4.625318498219549,2.459485740971565
1783003183804237600,4.379237548828125,-5.191574371114373,-4.386916569335758,1.3320403386607766
1783003183814288600,4.38928857421875,-6.230569628816843,-4.210113895274699,0.25559637092128396
1783003183824340500,4.399340576171875,-6.71284636503756,-3.4247876936927435,-0.14740507720103488
1783003183834392800,4.409392822265625,-6.214826700761914,-3.091667207455635,-0.9257837429337203
1783003183844444000,4.41944384765625,-5.145649655285477,-3.378316742157936,-0.5552127930939197
1783003183854495700,4.429495849609375,-4.856618778404593,-4.473299260020256,1.0169910772956907
1783003183864547800,4.4395478515625,-5.09853602193296,-6.133225691395998,2.3540708714284
1783003183874598700,4.4495986328125,-4.999802675980329,-7.682077766162156,2.962713495284319
1783003183884650800,4.459650634765625,-3.8359173022836446,-8.261125023829937,2.8041148786947128
1783003183894701800,4.469701904296875,-2.5804975542277098,-7.142028639930486,1.7782304469779133
1783003183904753700,4.479753662109375,-1.7791601290434598,-6.415255165082216,-0.035920842882618306
1783003183914805800,4.4898056640625,-1.742943152758479,-5.298872131794691,-1.7027597570605575
1783003183924856600,4.499856689453125,-2.6443296826690434,-3.3661852825984355,-2.822979153640568
1783003183934908700,4.50990869140625,-4.044129844608903,-1.3188453415229915,-3.651469081905484
1783003183944960500,4.51996044921875,-5.624390618595481,1.0970797824025154,-4.392938898365199
1783003183955011600,4.530011474609375,-6.502172401034832,2.776822674882412,-4.253048489376902
1783003183965064000,4.54006396484375,-6.972964451166987,3.7904061356917023,-3.2142288805022834
1783003183975115800,4.55011572265625,-6.415087991821766,4.119551873078942,-1.526190453363955
1783003183985166800,4.560166748046875,-5.262352373170852,3.2553388895258304,-0.1545446650236845
1783003183995218700,4.57021875,-3.638936348068714,2.1897268430545926,0.5775592110671103
1783003184005269800,4.580269775390625,-1.7185323496013878,0.9994092433758079,0.5344485297456384
1783003184015321900,4.59032177734375,-0.19880057085752487,-0.0529816486030817,-0.22763415889292954
1783003184025373700,4.600373779296875,1.4810206475555896,-0.6871164411120116,-1.0623270334511994
1783003184035424800,4.6104248046875,2.635797416645288,-0.7695477638222277,-1.5458222055509685
1783003184045476600,4.6204765625,3.212762022820115,-0.7100019343979657,-1.3889602034956217
1783003184055528700,4.63052880859375,3.6709856832802292,-0.7328430040203034,-0.6729813866451382
1783003184065579800,4.640579833984375,3.946936713835597,-0.6832970289543271,0.029580607010424136
1783003184075631600,4.650631591796875,4.042057714509964,-0.4392581170968711,0.7547554144904017
1783003184085683700,4.66068359375,4.118687949725985,-0.02181976375058293,1.2698615303844212
1783003184095734500,4.670734619140625,4.419165518772602,0.23722996249496936,1.758437659010291
1783003184105787000,4.680786865234375,4.485846606904268,0.20096374024078248,1.8601114423289895
1783003184115838700,4.690838623046875,4.754636659789085,-0.0748038965716958,1.600439638662338
1783003184125889800,4.700889892578125,4.923965636968612,-0.08453399407789111,1.201862053130567
1783003184135941600,4.710941650390625,5.515220634302497,-0.1757560876175761,0.5055819162234664
1783003184145992700,4.72099267578125,5.743188262933493,-0.38558877849057316,0.3481087965324521
1783003184156044800,4.731044921875,5.586993492615223,-0.5523036276489496,0.7593716761142015
1783003184166096600,4.7410966796875,5.589374834793806,-0.7477874751739203,1.401212659086287
1783003184176147700,4.751147705078125,5.21134816212058,-0.5779977486148477,1.7764195981636641
1783003184186199600,4.761199462890625,5.176103245738148,-0.16798399231135844,1.9861501438364386
1783003184196251600,4.771251708984375,4.984571204578876,0.24080431385040282,2.264676577837765
1783003184206302700,4.781302734375,4.861849080273509,0.5268379086114466,2.0835054794341326
1783003184216354600,4.7913544921875,4.716147646918893,0.9935773223519324,1.793766454283893
1783003184226405600,4.801405517578125,4.574961645162105,1.4500044547840951,1.780265459936857
1783003184236457500,4.81145751953125,4.340893946090341,1.3688584957093,1.3630959866598247
1783003184246509800,4.821509765625,4.373581579205394,1.2350804321214557,0.655698827932775
1783003184256561000,4.831560791015625,4.197959054839611,1.3657427017763257,0.11463555622249841
1783003184266612700,4.84161279296875,3.6857746716111897,1.2326195949658751,-0.2841097870916128
1783003184276664800,4.851664794921875,2.8305875828176736,1.0910776193782687,-0.4172790711313486
1783003184286715600,4.861715576171875,1.7321207299709318,1.1803630457669496,-0.5375201922759414
1783003184296767700,4.871767822265625,0.035114568001031875,1.4573469265013932,-0.7210743864238262
1783003184306819600,4.881819580078125,-1.3779337825685738,2.1374653254196048,-0.6506392064556479
1783003184316870700,4.89187060546875,-2.357561490023136,2.830387384070456,-0.3329281785354018
1783003184326922800,4.9019228515625,-3.396139983618259,3.161237587288022,-0.3092414518691599
1783003184336973600,4.9119736328125,-4.048100501805544,2.6977491381675005,0.05684548442438245
1783003184347025700,4.922025634765625,-6.174925483006239,0.6000327625513077,0.8795240960620343
1783003184357077500,4.932077392578125,-10.05055578699708,-1.76748488881886,1.9669551756314931
1783003184367128600,4.942128662109375,-14.02262635756731,-3.9684903739959,2.6798428945988415
1783003184377181000,4.952180908203125,-15.205550193732977,-4.981367440101504,1.4395672319218515
1783003184387232800,4.962232666015625,-13.878649263787269,-3.0738939426168796,-1.4571576875396073
1783003184397283800,4.972283935546875,-12.01729658922553,-0.8559156953290105,-4.125665972045064
1783003184407335700,4.982335693359375,-10.649899982762337,-0.9368170319929718,-4.6826285314157605
1783003184417387800,4.9923876953125,-9.531680381697416,-2.357677225357294,-3.21762056876719
1783003184427438800,5.00243896484375,-8.24983673709631,-3.993626861079037,-1.2086121119126676
1783003184437490700,5.01249072265625,-7.221157706224918,-5.600609345513582,0.3955420172281563
1783003184447541800,5.022541748046875,-5.99036211181581,-6.978493443721533,1.4133292133376
1783003184457593600,5.032593505859375,-4.198553513601422,-7.7631515367835755,1.8995640395343303
1783003184467645700,5.042645751953125,-2.6926462620705363,-7.911537679177522,1.233190672852099
1783003184477696800,5.05269677734375,-1.4429974986314773,-7.425995219159126,-0.03097133071646094
1783003184487748600,5.06274853515625,0.06696633481383324,-6.410835595074295,-1.3795511546373367
1783003184497800700,5.07280078125,1.5488362926751373,-4.840639703506231,-2.172963339780271
1783003184507851500,5.0828515625,2.745731371048093,-3.2190289742603895,-2.8341464443430304
1783003184517904000,5.09290380859375,3.4507220531553027,-1.8543460106700658,-3.2778383061036465
1783003184527955700,5.102955810546875,3.8770834254086015,-0.8040531138837337,-2.7077134828209877
1783003184538006800,5.1130068359375,3.643469899845123,0.06755173348635435,-1.9409183787077664
1783003184548058600,5.12305859375,3.421821537363529,0.9497183068811893,-1.1272013644218444
1783003184558109700,5.133109619140625,3.2766187011808157,1.5086173872724176,-0.5263780360147357
1783003184568161800,5.143161865234375,3.063140201151371,1.9178399931982157,0.14992957244366406
1783003184578213600,5.153213623046875,2.795804438728094,1.8114425423584877,0.6439592903003096
1783003184588264700,5.1632646484375,2.959962150749564,1.5007061757564544,0.8614853121548891
1783003184598316500,5.173316650390625,3.4813346335619686,1.3387690623939037,0.7066179910480975
1783003184608368600,5.18336865234375,3.9345372509896754,1.3549715707845984,0.5819675290286541
1783003184618419700,5.193419677734375,4.328099930968881,1.3600225705638527,0.49228784262537956
1783003184628471600,5.203471435546875,4.642648110944032,1.2083604752391577,0.5739151554763317
1783003184638524000,5.21352392578125,4.8311985059440135,0.9016410891935229,0.8960930996775627
1783003184648574500,5.223574462890625,4.938126848790049,0.7478833367638289,1.0048585948228836
1783003184658626800,5.233626708984375,4.994595754987001,0.8260068792775273,1.086649573802948
1783003184668678000,5.243677978515625,4.868153148853779,0.8279279104679822,1.4004928203791378
1783003184678729700,5.253729736328125,4.510782310718298,0.8134678618304431,1.6445470759361982
1783003184688783000,5.263783203125,4.723131514456868,0.8032254308879375,1.7374641368255017
1783003184698834200,5.273834228515625,4.618600295880436,0.7964775640629231,1.7676722280845045
1783003184708886300,5.28388623046875,4.5553427524566645,0.7269207743644714,1.8331880718290805
1783003184718938400,5.2939384765625,4.722203878217935,0.5697947145454585,1.8751088127136228
1783003184728989400,5.303989501953125,4.749821368461847,0.6340636269688605,2.0210180436000225
1783003184739041300,5.314041259765625,4.672067682173848,0.684294807820022,2.2080194555923343
1783003184749093400,5.32409326171875,4.5836090619981285,0.6207343359269202,2.2559148869723082
1783003184759144200,5.334144287109375,4.754771684345602,0.6136265497483313,2.2971917769953607
1783003184769196300,5.3441962890625,4.540551426038146,0.5783768110603094,2.2071946952059864
1783003184779247400,5.354247314453125,4.115604596757889,0.5300576013103128,2.1173136410117146
1783003184789299200,5.36429931640625,3.7468262294232844,0.6445278839685022,2.2253058136969806
1783003184799351300,5.374351318359375,3.2366298051416873,0.7684013702660799,2.2994386791393158
1783003184809402000,5.384402099609375,2.5630975066155193,0.9493953585371374,2.426042028792202
1783003184819454200,5.3944541015625,1.8308827174961566,1.2228922739386558,2.4461878679811955
1783003184829506300,5.40450634765625,1.1833897001117468,1.5972566247120499,2.3138600032016634
1783003184839557000,5.41455712890625,0.8784545671343803,1.8776001911379396,2.1056910077571867
1783003184849609500,5.424609375,0.49797640965580936,1.9979218301728368,1.6945356802031397
1783003184859660300,5.434660400390625,-0.5632160668075085,2.011623315528035,1.1379907617226241
1783003184869712400,5.44471240234375,-2.2419103270173073,2.14090099895671,0.7127221531420945
1783003184879764200,5.45476416015625,-3.8649680402010675,2.6529379365384576,0.298255509082973
1783003184889815300,5.464815185546875,-4.3535622890055174,3.213473970481753,0.12785948719382284
1783003184899867400,5.474867431640625,-5.0358583242237565,3.4962113001763817,-0.1341638480350375
1783003184909919200,5.484919189453125,-5.75684444784224,3.2750413688614963,-0.048121056829392904
1783003184919970300,5.49497021484375,-6.973897348102927,2.133952933384478,0.3415884548529982
1783003184930022100,5.505022216796875,-8.906666907146572,0.5649748931735754,0.729028852559626
1783003184940074200,5.51507421875,-10.220097530144452,-0.9170891259551047,0.8534723938301205
1783003184950125300,5.525125244140625,-12.067923199135064,-2.1209248172461987,0.6657429598242044
1783003184960177200,5.53517724609375,-13.723319585865735,-1.7877935173541306,-0.4808420272424817
1783003184970228200,5.545228271484375,-12.451522703504562,-0.8423954117596149,-2.504813075429201
1783003184980280300,5.5552802734375,-11.887143438136578,-0.02841916201561689,-4.3431876099854705
1783003184990332400,5.56533251953125,-10.798650282293558,-0.5448232087656856,-5.435611091014742
1783003185000383500,5.575383544921875,-10.151994884777068,-2.468423372925818,-5.57653464244306
1783003185010435300,5.585435302734375,-8.924987576735019,-4.7879471009776,-5.126502471745014
1783003185020487400,5.5954873046875,-7.441723534166813,-6.8901511434018605,-3.997030239781737
1783003185030538200,5.605538330078125,-6.060857789799571,-8.262676344925165,-2.993684972131252
1783003185040590300,5.61559033203125,-4.612277522599697,-8.816967931520939,-2.340836272932589
1783003185050642200,5.62564208984375,-3.006076836192608,-9.056472268688678,-1.8289388899520038
1783003185060693200,5.635693359375,-1.8561650427907703,-8.735880716896057,-1.93662214281857
1783003185070745300,5.645745361328125,-0.22078093199729917,-7.610234180700779,-1.7837357663959263
1783003185080796200,5.655796142578125,2.196923184299469,-6.773825442135333,-1.8016127838701008
1783003185090848300,5.66584814453125,3.69246920081377,-5.991128420013189,-1.776393879200518
1783003185100900000,5.675900146484375,4.556505951017141,-5.031404851946235,-1.4727952555239199
1783003185110951200,5.685951171875,5.357679125550389,-3.9684167242377995,-0.8604957165956497
1783003185121003300,5.696003173828125,5.333135051402449,-2.5695465366244314,-0.19805793579667805
1783003185131055400,5.706055419921875,4.603478130072355,-1.1700216844946145,0.2016524531573057
1783003185141106400,5.7161064453125,3.833506734010577,-0.1323424778267741,0.6559498800843954
1783003185151158300,5.726158203125,2.9008143807321787,0.3431321771636605,0.30941987717598674
1783003185161210400,5.73621044921875,1.8431190987348556,1.2039800681978463,0.09764262810647487
1783003185171261200,5.74626123046875,1.871218235015869,2.2894001002058384,0.10710603750050067
1783003185181313300,5.756313232421875,1.7712533014416694,2.5925050951465964,-0.38215982695519923
1783003185191364400,5.7663642578125,1.9796435384213924,2.541099902079999,-0.7141700138628483
1783003185201416200,5.776416259765625,2.699525500190258,2.8110388327389955,-0.8243772322490811
1783003185211468300,5.78646826171875,3.5196231554239987,2.9931062954604624,-0.6229384218424558
1783003185221519000,5.79651904296875,4.701614679175615,2.6488264095664023,-0.11408113721013069
1783003185231571200,5.8065712890625,5.498834147647023,1.9874952748350798,0.38083442357033487
1783003185241623300,5.816623291015625,6.27643530793488,1.2330636854715644,1.0455416106060147
1783003185251674000,5.826674072265625,6.849727363076806,0.4789592822358012,1.2058256960645317
1783003185261726500,5.8367265625,6.920616424292326,0.015963000546395777,1.0031406849890947
1783003185271777300,5.84677734375,6.7771817668259136,-0.15720613931789992,0.8429545069471002
1783003185281829400,5.856829345703125,7.289977559950947,-0.17924173777624963,0.8373623860284686
1783003185291881200,5.866881103515625,7.413639595454931,-0.005932312658429146,0.7043814641676843
1783003185301932300,5.876932373046875,6.963605671191215,0.22632059207633137,0.8559962132193147
1783003185311984400,5.886984375,6.920844972351193,0.1191214694648981,1.0729830136306584
1783003185322036200,5.8970361328125,6.573138034617901,0.03623714229017496,0.9518715393923223
1783003185332087300,5.90708740234375,6.0924202182769776,-0.0020632161401212216,1.2650440471000968
1783003185342139100,5.91713916015625,5.806401382693648,-0.001469634161144495,1.5653775315009058
1783003185352191200,5.927191162109375,5.366102085980772,0.042419776447862385,1.3187370588429272
1783003185362242300,5.9372421875,5.13421348451376,0.13612170410454272,0.7351552264854312
1783003185372294100,5.947294189453125,5.195687651652097,0.7036101875342429,0.13235036887228488
1783003185382345200,5.95734521484375,5.19819992673397,0.9242907278969883,0.29811025539338587
1783003185392397000,5.96739697265625,5.164233359724283,0.6202120656184852,0.5551020261958242
1783003185402449400,5.977449462890625,4.65028079777956,0.43167102296873927,0.5845651443064213
1783003185412500500,5.98750048828125,4.106174505111575,0.2513125561222434,0.9831564661026
1783003185422552300,5.99755224609375,3.912972484913468,0.08412760523408651,1.2434896562874316
1783003185432604400,6.0076044921875,3.4710043782055378,-0.047857437457144256,1.1984960838288068
1783003185442655200,6.0176552734375,2.1379484327614304,-0.08046864433512091,0.6282958572223782
1783003185452707300,6.027707275390625,1.1459639325588942,0.0890691532894969,-0.247459241694957
1783003185462758400,6.03775830078125,0.42105858967006204,0.8230718487389386,-0.9940959393985569
1783003185472810200,6.047810302734375,-1.0503870048105717,1.4764039475403725,-1.357302059558779
1783003185482862300,6.0578623046875,-0.9728390702277422,2.944258970183134,-0.45212812006399034
1783003185492913200,6.0679130859375,-0.297311798492074,4.167996462774276,0.3986095881052315
1783003185502965200,6.07796533203125,-0.1290466511517763,4.053503237631917,0.7607486635558307
1783003185513017000,6.08801708984375,-0.15017127224504948,3.204540722441673,0.9918117739841341
1783003185523068200,6.098068115234375,-1.2661398795127867,2.4445161353766918,1.0958037711173296
1783003185533120500,6.10812060546875,-3.1523575307399034,1.6528966788694262,0.9024510904021561
1783003185543172400,6.11817236328125,-4.291592447304725,0.9640598437055945,0.2304483395308256
1783003185553223400,6.128223388671875,-5.220298361295462,0.15082418319582938,-0.6191967510960996
1783003185563275300,6.138275146484375,-7.097042666256427,-0.790001792177558,-1.2000672786682844
1783003185573326300,6.148326416015625,-9.133076784941554,-1.5479171320036054,-1.5443394196473061
1783003185583378400,6.15837841796875,-11.084679054749012,-2.1075734605029224,-1.820592501889169
1783003185593430300,6.16843017578125,-12.851267871510982,-2.6410712653949857,-1.8281673210576175
1783003185603481300,6.1784814453125,-12.499762126016616,-2.888821745121479,-2.2727695756614206
1783003185613533200,6.188533203125,-11.127879898571967,-2.2414000394076106,-2.9098192327037453
1783003185623585300,6.198585205078125,-9.509920969831944,-1.988840405833721,-2.9834175528779623
1783003185633636400,6.20863623046875,-8.067981455820798,-2.568318163873255,-3.0631989456012843
1783003185643688200,6.218688232421875,-6.888396993210911,-3.144178023676574,-3.195307322411239
1783003185653739300,6.2287392578125,-6.907064284279942,-3.787606860361993,-2.8053555264055725
1783003185663791000,6.238791015625,-7.742920065137744,-4.21073670334816,-2.1605559858888386
1783003185673843500,6.248843505859375,-7.54148739221096,-4.429927735805511,-1.7949632628530263
1783003185683894300,6.258894287109375,-5.199569461521506,-3.9537688979431986,-1.8316300287321208
1783003185693941000,6.26894091796875,-4.387580293941498,-2.5392335236862302,-1.5183961462259292
1783003185703992800,6.278992919921875,-3.994827761301398,-1.6041133587390184,-1.1958784486763179
1783003185714044000,6.2890439453125,-2.568682613271475,-0.7468512172371149,-1.1295326569136233
1783003185724095700,6.299095703125,-0.32375206165015696,0.34676439618617294,-1.0305090958427636
1783003185734146800,6.309146728515625,2.0074767172425982,1.0987152746498585,-1.1972449147239326
1783003185744199000,6.319198974609375,2.526738491511345,1.7771043655574321,-1.4615674668058751
1783003185754251000,6.3292509765625,1.0099404281318187,2.6941438071519137,-1.2823841812185943
1783003185764302000,6.339302001953125,-1.5755658941686153,3.225981277616322,-0.6190194217678159
1783003185774354000,6.34935400390625,-2.827780124181509,3.0620103203386067,0.24401867278702555
1783003185784406000,6.359406005859375,-0.8383744856804609,2.4877342225953933,0.9043145461864769
1783003185794456800,6.369456787109375,1.1303332327067852,1.584433529626578,1.2420944025367497
1783003185804509000,6.379509033203125,2.0951988398373125,1.2257035319671035,1.539029915062338
1783003185814560800,6.389560791015625,3.4981063201427456,1.1443955141983926,1.253827364297956
1783003185824611800,6.39961181640625,4.836446343469619,1.1784686103224753,0.5152301441324875
1783003185834664000,6.409663818359375,5.754467781838774,1.3353808812603354,-0.10176032909099011
1783003185844714800,6.41971484375,6.127320266744494,1.1629974849462508,-0.5089464972857386
1783003185854766800,6.429766845703125,6.207931096029281,0.9579474983051419,-0.6582753273572772
1783003185864818700,6.439818603515625,6.7947448960453265,1.0787582360312342,-0.5557974245814606
1783003185874869800,6.449869873046875,11.180732367837429,1.0837018299132586,1.2205780056469142
1783003185884922000,6.459922119140625,6.504873476687074,0.478607107797265,2.0881110735334456
1783003185894974000,6.469973876953125,1.8245868322223424,0.30448242077380416,1.4084551775604486
1783003185905025000,6.48002490234375,2.4773686036646363,1.1226061455860734,0.8443450114574282
1783003185915076900,6.490076904296875,3.3217817849874494,2.2546233858570455,0.06491393232867121
1783003185925128000,6.5001279296875,3.8452719906061885,2.3830203409284354,-0.23849779047369957
1783003185935180000,6.510179931640625,4.605583577919006,1.5853504983410238,-0.5676307414446026
1783003185945232000,6.52023193359375,6.359437416270375,1.243000411465764,-0.9508127510543912
1783003185955283000,6.530282958984375,7.449217689314485,2.005174870041013,-1.1963086567871273
