time,seconds_elapsed,z,y,x
1783003179512184300,0.087184326171875,0.03056773915886879,0.23858891427516937,-0.04085633158683777
1783003179522236400,0.097236328125,-0.03556771203875542,0.13265621662139893,0.07674499601125717
1783003179532287200,0.107287353515625,-0.06960371136665344,-0.02878248132765293,0.20521296560764313
1783003179542339300,0.11733935546875,-0.07584578543901443,-0.20881231129169464,0.27125534415245056
1783003179552390400,0.127390380859375,-0.06064339354634285,-0.4254136085510254,0.24215340614318848
1783003179562442200,0.137442138671875,-0.023690730333328247,-0.6387410163879395,0.16585204005241394
1783003179572494300,0.147494384765625,0.028910962864756584,-0.7463194131851196,0.10228132456541061
1783003179582545400,0.15754541015625,0.08551301062107086,-0.7151532173156738,0.08816543966531754
1783003179592597200,0.16759716796875,0.13678871095180511,-0.5768872499465942,0.101656474173069
1783003179602649000,0.177649169921875,0.17681775987148285,-0.40263649821281433,0.09753383696079254
1783003179612700200,0.1877001953125,0.1925509124994278,-0.25614506006240845,0.037749599665403366
1783003179622752300,0.197752197265625,0.18751798570156097,-0.14779505133628845,-0.058614157140254974
1783003179632804400,0.207804443359375,0.1665375977754593,-0.056062743067741394,-0.15909922122955322
1783003179642855200,0.217855224609375,0.13465335965156555,-0.04430563375353813,-0.23241384327411652
1783003179652907300,0.2279072265625,0.07460574805736542,-0.15283530950546265,-0.2558230459690094
1783003179662958300,0.237958251953125,-0.006795661989599466,-0.38936686515808105,-0.199611097574234
1783003179673010400,0.248010498046875,-0.09738628566265106,-0.660666823387146,-0.07295647263526917
1783003179683068200,0.258068115234375,-0.13320641219615936,-0.867663562297821,0.10352955013513565
1783003179693119000,0.268118896484375,-0.12426085770130157,-1.04488205909729,0.2674678564071655
1783003179703171300,0.27817138671875,-0.09886681288480759,-1.232944369316101,0.36259251832962036
1783003179713223200,0.28822314453125,-0.10316808521747589,-1.4434690475463867,0.40001821517944336
1783003179723274200,0.298274169921875,-0.12917764484882355,-1.6213985681533813,0.4231097996234894
1783003179733326000,0.308326171875,-0.0810130387544632,-1.2412307262420654,0.2901538908481598
1783003179743378200,0.318378173828125,0.2345770299434662,-0.6398912072181702,-0.06080999970436096
1783003179753429200,0.32842919921875,0.7369581460952759,-0.48053431510925293,-0.6787259578704834
1783003179763481000,0.338481201171875,1.2884986400604248,-0.26026251912117004,-1.319209337234497
1783003179773532200,0.3485322265625,1.7137564420700073,0.1787816733121872,-1.830721139907837
1783003179783584000,0.358583984375,1.9267209768295288,0.9667081236839294,-2.1187891960144043
1783003179793636000,0.368635986328125,1.9233174324035645,1.680155634880066,-2.2088072299957275
1783003179803687200,0.378687255859375,1.8703409433364868,2.0472633838653564,-2.2136571407318115
1783003179813739000,0.388739013671875,1.9574037790298462,1.807736873626709,-2.1140193939208984
1783003179823791400,0.398791259765625,2.061948537826538,1.575592041015625,-1.3394578695297241
1783003179833842200,0.40884228515625,1.722153902053833,1.7930858135223389,0.4451718032360077
1783003179843894300,0.418894287109375,1.222291350364685,1.6018130779266357,1.8603622913360596
1783003179853946000,0.428946044921875,1.0711042881011963,0.8787682056427002,2.1097443103790283
1783003179863997200,0.4389970703125,1.0546677112579346,0.09245642274618149,1.8516120910644531
1783003179874049300,0.44904931640625,0.835189163684845,-0.44554659724235535,1.6354789733886719
1783003179884100000,0.45910009765625,0.4338458180427551,-0.8648006916046143,1.5288665294647217
1783003179894152200,0.469152099609375,0.056271638721227646,-1.2152763605117798,1.5419222116470337
1783003179904204000,0.4792041015625,-0.13582202792167664,-1.5451443195343018,1.6721645593643188
1783003179914255000,0.489255126953125,-0.07519438117742538,-1.8453028202056885,1.8347748517990112
1783003179924307200,0.49930712890625,0.17222988605499268,-2.083972215652466,1.8045125007629395
1783003179934359000,0.509359130859375,0.46410781145095825,-2.041929244995117,1.4992332458496094
1783003179944410000,0.51941015625,0.7190601825714111,-1.661840796470642,1.0189558267593384
1783003179954462000,0.5294619140625,0.8983529806137085,-1.0596715211868286,0.55498206615448
1783003179964514300,0.539514404296875,0.915728747844696,-0.5894427299499512,0.13699188828468323
1783003179974565400,0.5495654296875,0.7710874080657959,-0.5072232484817505,-0.21337224543094635
1783003179984617200,0.5596171875,0.4954012334346771,-0.6479859948158264,-0.4658970832824707
1783003179994668300,0.569668212890625,0.1358470767736435,-0.7477477192878723,-0.6873652935028076
1783003180004720000,0.57972021484375,-0.26813989877700806,-0.7314708828926086,-0.9479473829269409
1783003180014772200,0.589772216796875,-0.6662651896476746,-0.5608517527580261,-1.1725211143493652
1783003180024823300,0.5998232421875,-1.0222235918045044,-0.1931895762681961,-1.2865991592407227
1783003180034875100,0.609875244140625,-1.2832106351852417,0.2156703621149063,-1.328024983406067
1783003180044927200,0.61992724609375,-1.4084538221359253,0.5086321234703064,-1.3785309791564941
1783003180054978000,0.62997802734375,-1.351775050163269,0.6375226974487305,-1.4585880041122437
1783003180065030100,0.640030029296875,-1.112632393836975,0.6393284797668457,-1.5780644416809082
1783003180075082000,0.65008203125,-0.742279052734375,0.6298100352287292,-1.72400963306427
1783003180085133000,0.660133056640625,-0.36493268609046936,0.6863842010498047,-1.8264414072036743
1783003180095185200,0.67018505859375,-0.001019453164190054,0.8046684861183167,-1.8257721662521362
1783003180105236000,0.680236083984375,0.22982950508594513,0.8984906077384949,-1.6740354299545288
1783003180115288300,0.690288330078125,0.2508269250392914,1.028214931488037,-1.351455807685852
1783003180125340200,0.700340087890625,0.18685351312160492,1.1239224672317505,-0.9931798577308655
1783003180135391200,0.71039111328125,0.11704699695110321,1.0661060810089111,-0.6499367952346802
1783003180145443300,0.720443359375,0.01381696481257677,0.9565627574920654,-0.23857107758522034
1783003180155495200,0.7304951171875,-0.14287784695625305,0.8088782429695129,0.27284106612205505
1783003180165546200,0.740546142578125,-0.27578917145729065,0.472003698348999,0.811745822429657
1783003180175598000,0.75059814453125,-0.36114856600761414,0.08298350870609283,1.2830864191055298
1783003180185650200,0.760650146484375,-0.42190611362457275,-0.3341226875782013,1.5873533487319946
1783003180195701200,0.770701171875,-0.4582665264606476,-0.6690011024475098,1.6772056818008423
1783003180205753000,0.780753173828125,-0.47572216391563416,-0.7245176434516907,1.6235133409500122
1783003180215804200,0.79080419921875,-0.4379012882709503,-0.4455869495868683,1.4695181846618652
1783003180225856000,0.80085595703125,-0.32432255148887634,-0.01831441931426525,1.1990656852722168
1783003180235908400,0.810908447265625,-0.17197881639003754,0.4637206494808197,0.8744564056396484
1783003180245959200,0.820959228515625,0.02124745026230812,1.0305120944976807,0.6657665371894836
1783003180256011300,0.83101123046875,0.21688193082809448,1.5101114511489868,0.5819720029830933
1783003180266063000,0.84106298828125,0.3747239112854004,1.6247448921203613,0.5697747468948364
1783003180276114200,0.8511142578125,0.4577186703681946,1.2881602048873901,0.6146804690361023
1783003180286166300,0.861166259765625,0.4729877710342407,0.7144089937210083,0.74847412109375
1783003180296218000,0.871218017578125,0.37512674927711487,0.1306893229484558,0.9271871447563171
1783003180306269200,0.881269287109375,0.24084144830703735,-0.25523850321769714,1.0649670362472534
1783003180316321000,0.891321044921875,0.09908565878868103,-0.371701717376709,1.1098884344100952
1783003180326372000,0.9013720703125,0.01181828323751688,-0.1243053749203682,1.066552758216858
1783003180336424200,0.911424072265625,0.009729299694299698,0.2850451171398163,0.9920175671577454
1783003180346476000,0.92147607421875,0.1169276311993599,0.6319743394851685,0.933266282081604
1783003180356527000,0.931527099609375,0.2971903681755066,0.9030524492263794,0.8557363152503967
1783003180366579000,0.941578857421875,0.4579576849937439,1.0903656482696533,0.7610875368118286
1783003180376631300,0.95163134765625,0.5682229399681091,1.0718376636505127,0.6431297063827515
1783003180386682400,0.961682373046875,0.6390511989593506,0.8457236289978027,0.5945972204208374
1783003180396734200,0.971734130859375,0.7018980979919434,0.4609608054161072,0.632876455783844
1783003180406786300,0.981786376953125,0.7170891761779785,0.046350691467523575,0.6942024827003479
1783003180416837000,0.991837158203125,0.6104956269264221,-0.2502135932445526,0.6721128821372986
1783003180426889200,1.00188916015625,0.36195799708366394,-0.22216704487800598,0.44642922282218933
1783003180436940300,1.011940185546875,-0.0011783931404352188,-0.1160115897655487,-0.19339920580387115
1783003180446992100,1.0219921875,-0.36321714520454407,0.4833565652370453,-0.8342474102973938
1783003180457044200,1.032044189453125,-0.541517436504364,1.3875117301940918,-1.1121735572814941
1783003180467095000,1.042094970703125,-0.43625470995903015,1.8889880180358887,-1.0529417991638184
1783003180477147100,1.052147216796875,-0.06751368939876556,1.7442010641098022,-0.6801119446754456
1783003180487199000,1.062198974609375,0.37356504797935486,1.0051171779632568,-0.16873358190059662
1783003180497250000,1.07225,0.6154229640960693,-0.05727740749716759,0.27536237239837646
1783003180507302100,1.08230224609375,0.6134541034698486,-1.3403009176254272,0.7276169061660767
1783003180517354200,1.092354248046875,0.5621048808097839,-2.695765495300293,1.1433086395263672
1783003180527405300,1.1024052734375,0.5091683268547058,-3.658963918685913,1.2898824214935303
1783003180537457200,1.11245703125,0.4321819841861725,-3.728625774383545,1.0857117176055908
1783003180547508200,1.12250830078125,0.3987511694431305,-2.871046781539917,0.5975203514099121
1783003180557560300,1.132560302734375,0.3741896152496338,-1.4505668878555298,-0.1917218118906021
1783003180567612200,1.142612060546875,0.3298105299472809,0.1621704250574112,-1.2086488008499146
1783003180577663200,1.152663330078125,0.24967122077941895,1.5513176918029785,-2.2796545028686523
1783003180587715000,1.162715087890625,0.13533338904380798,2.42459774017334,-3.258429765701294
1783003180597767200,1.17276708984375,0.020954342558979988,2.766570806503296,-3.9858524799346924
1783003180607818200,1.182818359375,-0.024236224591732025,2.6825733184814453,-4.402795791625977
1783003180617870000,1.1928701171875,0.01870138943195343,2.357797861099243,-4.483392238616943
1783003180627921200,1.202921142578125,0.1168564185500145,1.899785041809082,-4.27004861831665
1783003180637973000,1.212972900390625,0.2386251986026764,1.6086959838867188,-3.795078754425049
1783003180648025300,1.223025390625,0.31460899114608765,1.429011583328247,-3.0908114910125732
1783003180658076200,1.233076171875,0.25350597500801086,1.1922885179519653,-2.2288272380828857
1783003180668128300,1.243128173828125,0.06264671683311462,0.8610853552818298,-1.298976182937622
1783003180678180000,1.25318017578125,-0.20721618831157684,0.47896596789360046,-0.47376081347465515
1783003180688230000,1.26322998046875,-0.4717440605163574,0.14826321601867676,0.12926559150218964
1783003180698281700,1.27328173828125,-0.6382036209106445,-0.15466897189617157,0.48052963614463806
1783003180708333800,1.283333740234375,-0.6796753406524658,-0.36345207691192627,0.6092186570167542
1783003180718384600,1.293384521484375,-0.6332955956459045,-0.5006168484687805,0.5747429728507996
1783003180728436700,1.303436767578125,-0.5448765158653259,-0.62147057056427,0.43663275241851807
1783003180738488600,1.313488525390625,-0.4545338749885559,-0.7572161555290222,0.27842608094215393
1783003180748539600,1.32353955078125,-0.3266342282295227,-0.7963044047355652,0.14205676317214966
1783003180758591700,1.333591796875,-0.16577717661857605,-0.7427030205726624,0.11983535438776016
1783003180768642600,1.343642578125,-0.013044716790318489,-0.6959361433982849,0.25896236300468445
1783003180778694700,1.353694580078125,0.06945069879293442,-0.6779710054397583,0.4773855209350586
1783003180788746500,1.36374658203125,0.08332983404397964,-0.6491735577583313,0.7252703309059143
1783003180798797600,1.373797607421875,0.059334222227334976,-0.6330214738845825,0.9323167204856873
1783003180808850000,1.383849853515625,0.01742171309888363,-0.6375582218170166,1.0427758693695068
1783003180818901800,1.39390185546875,-0.04907981678843498,-0.6961655616760254,0.9921031594276428
1783003180828952800,1.403952880859375,-0.11998938769102097,-0.7657159566879272,0.7760747075080872
1783003180839004700,1.414004638671875,-0.13426712155342102,-0.630113422870636,0.4778425097465515
1783003180849056800,1.424056884765625,-0.047796040773391724,-0.3079032301902771,0.17407158017158508
1783003180859107800,1.43410791015625,0.05281658470630646,0.05361500009894371,-0.040703583508729935
1783003180869159700,1.44415966796875,0.15045295655727386,0.35817670822143555,-0.12055294960737228
1783003180879210800,1.454210693359375,0.23592737317085266,0.44878703355789185,-0.05356939136981964
1783003180889262600,1.4642626953125,0.2977502942085266,0.3598230481147766,0.16272668540477753
1783003180899314700,1.474314697265625,0.33530089259147644,0.1779046505689621,0.4917922019958496
1783003180909365800,1.48436572265625,0.3235708177089691,0.032513778656721115,0.8939477205276489
1783003180919417600,1.49441748046875,0.3077188730239868,-0.020198164507746696,1.2461539506912231
1783003180929469700,1.5044697265625,0.3527279794216156,0.1277427226305008,1.4867242574691772
1783003180939520500,1.5145205078125,0.49922847747802734,0.3745783567428589,1.6170305013656616
1783003180949572900,1.52457275390625,0.6254333853721619,0.4525710642337799,1.5468190908432007
1783003180959624000,1.5346240234375,0.5954560041427612,0.29783502221107483,1.2132432460784912
1783003180969675800,1.54467578125,0.37347036600112915,-0.033912017941474915,0.6659370064735413
1783003180979728000,1.554727783203125,0.015011819079518318,-0.27286627888679504,0.09046168625354767
1783003180989778700,1.56477880859375,-0.2686304748058319,-0.06571449339389801,-0.21068638563156128
1783003180999830800,1.574830810546875,-0.2563415765762329,0.39595142006874084,-0.09393578767776489
1783003181009882600,1.584882568359375,0.10021395981311798,0.8476614952087402,0.323762983083725
1783003181019933700,1.59493359375,0.6836888790130615,0.9839882254600525,0.9361661672592163
1783003181029985800,1.60498583984375,1.232190728187561,0.8505989909172058,1.4763972759246826
1783003181040037600,1.61503759765625,1.5629992485046387,0.4810015559196472,1.674591064453125
1783003181050088700,1.625088623046875,1.5067881345748901,-0.3938989043235779,1.4857220649719238
1783003181060140500,1.635140625,1.2101572751998901,-1.4044561386108398,1.000988245010376
1783003181070191600,1.645191650390625,0.9042474031448364,-2.1615030765533447,0.2925626039505005
1783003181080243700,1.65524365234375,0.7190901041030884,-2.321204423904419,-0.5456793308258057
1783003181090295800,1.6652958984375,0.4897712767124176,-1.7729097604751587,-1.3325046300888062
1783003181100347000,1.675346923828125,0.19674445688724518,-0.8105524778366089,-1.959179162979126
1783003181110398700,1.685398681640625,-0.12423881143331528,0.1969664990901947,-2.3400163650512695
1783003181120450800,1.695450927734375,-0.41176727414131165,0.9377444982528687,-2.414473056793213
1783003181130501600,1.705501708984375,-0.6247561573982239,1.2375588417053223,-2.1925272941589355
1783003181140553700,1.7155537109375,-0.7516640424728394,1.1283080577850342,-1.7561014890670776
1783003181150605600,1.72560546875,-0.800462007522583,0.6187052726745605,-1.286300778388977
1783003181160656600,1.73565673828125,-0.7887083888053894,-0.10787197202444077,-0.8990352749824524
1783003181170708700,1.745708740234375,-0.7726953029632568,-0.70245361328125,-0.6578382253646851
1783003181180759600,1.755759521484375,-0.7833825349807739,-0.9508298635482788,-0.5515623688697815
1783003181190811600,1.765811767578125,-0.7804356217384338,-0.8347190618515015,-0.5539883971214294
1783003181200863500,1.775863525390625,-0.7416810393333435,-0.3933861553668976,-0.6409643292427063
1783003181210914600,1.78591455078125,-0.6512359380722046,0.18864937126636505,-0.7188292145729065
1783003181220967000,1.795966796875,-0.533510148525238,0.7166053056716919,-0.7704348564147949
1783003181231018800,1.806018798828125,-0.4106055200099945,1.045116901397705,-0.7841578125953674
1783003181241069800,1.81606982421875,-0.3143378496170044,1.1032439470291138,-0.7491103410720825
1783003181251121700,1.82612158203125,-0.24312719702720642,0.9445151090621948,-0.6599414944648743
1783003181261173800,1.836173828125,-0.1898123025894165,0.6243980526924133,-0.5691676735877991
1783003181271224800,1.846224853515625,-0.14524701237678528,0.22228799760341644,-0.5186881422996521
1783003181281276700,1.856276611328125,-0.0709133967757225,-0.06658055633306503,-0.4370132386684418
1783003181291327700,1.86632763671875,0.04434794932603836,-0.15943008661270142,-0.31986066699028015
1783003181301379600,1.876379638671875,0.17732171714305878,-0.11528073996305466,-0.22427980601787567
1783003181311431700,1.886431640625,0.2963247299194336,0.05084545537829399,-0.13234136998653412
1783003181321482800,1.896482666015625,0.40402403473854065,0.32086148858070374,-0.013330559246242046
1783003181331534600,1.90653466796875,0.4873647093772888,0.5256742835044861,0.11511815339326859
1783003181341586700,1.916586669921875,0.5188472867012024,0.5622163414955139,0.2205103635787964
1783003181351637500,1.926637451171875,0.4901151955127716,0.44417813420295715,0.34183141589164734
1783003181361689900,1.93668994140625,0.41140493750572205,0.18517695367336273,0.5089048147201538
1783003181371741700,1.94674169921875,0.29321199655532837,-0.12678737938404083,0.6980737447738647
1783003181381792800,1.956792724609375,0.13430331647396088,-0.3801767826080322,0.8609028458595276
1783003181391844900,1.966844970703125,0.015208279713988304,-0.5337691307067871,1.0161367654800415
1783003181401895700,1.976895751953125,-0.02567150816321373,-0.636888325214386,1.1593202352523804
1783003181411947800,1.98694775390625,0.008050181902945042,-0.6382390260696411,1.2582868337631226
1783003181421999600,1.99699951171875,0.09343884885311127,-0.5131953358650208,1.2772703170776367
1783003181432050700,2.00705078125,0.21547573804855347,-0.32910507917404175,1.2301656007766724
1783003181442102800,2.017102783203125,0.3784920871257782,-0.08065720647573471,1.2005597352981567
1783003181452154600,2.027154541015625,0.5317687392234802,0.18701548874378204,1.252545952796936
1783003181462205700,2.037205810546875,0.6110920310020447,0.32836809754371643,1.4223155975341797
1783003181472257500,2.047257568359375,0.618976354598999,0.30339503288269043,1.6929384469985962
1783003181482310000,2.057309814453125,0.5987523198127747,0.10712192952632904,1.9779634475708008
1783003181492360700,2.067360595703125,0.5507311820983887,-0.38357284665107727,2.1820216178894043
1783003181502412800,2.077412841796875,0.5101768374443054,-1.1345818042755127,2.144334077835083
1783003181512464000,2.0874638671875,0.3328189551830292,-1.9391556978225708,1.6654692888259888
1783003181522515700,2.097515625,-0.039966877549886703,-2.4685535430908203,0.6648983955383301
1783003181532567800,2.10756787109375,-0.5144982933998108,-2.305115222930908,-0.655989944934845
1783003181542618600,2.11761865234375,-1.1217594146728516,-1.0510872602462769,-1.8649787902832031
1783003181552670700,2.127670654296875,-1.7245192527770996,0.8882099986076355,-2.4433956146240234
1783003181562722600,2.13772265625,-2.0195300579071045,2.540250062942505,-2.2740159034729004
1783003181572773600,2.147773681640625,-1.8610241413116455,3.3129994869232178,-1.7125006914138794
1783003181582825700,2.15782568359375,-1.3939144611358643,3.2560224533081055,-1.1241894960403442
1783003181592876800,2.167876708984375,-0.8489071130752563,2.6911613941192627,-0.6602301001548767
1783003181602928600,2.1779287109375,-0.4170563519001007,1.8506461381912231,-0.37764817476272583
1783003181612980500,2.18798046875,-0.1535864919424057,0.6625484824180603,-0.3600861132144928
1783003181623031600,2.198031494140625,-0.05280129238963127,-0.7134170532226562,-0.6692428588867188
1783003181633083600,2.208083740234375,-0.06260877847671509,-1.8448166847229004,-1.3053390979766846
1783003181643135700,2.2181357421875,-0.14797401428222656,-2.3584909439086914,-2.0312137603759766
1783003181653186800,2.228186767578125,-0.254081130027771,-2.3171801567077637,-2.5886404514312744
1783003181663238700,2.23823876953125,-0.34066423773765564,-2.0977492332458496,-2.8580234050750732
1783003181673290800,2.248290771484375,-0.36077600717544556,-1.6827583312988281,-2.7525441646575928
1783003181683341000,2.258341064453125,-0.2001437097787857,-1.3154096603393555,-2.345823049545288
1783003181693393000,2.268392822265625,0.2092098891735077,-1.1622202396392822,-1.9086662530899048
1783003181703444000,2.27844384765625,0.7109185457229614,-1.126671314239502,-1.6131722927093506
1783003181713496000,2.28849609375,1.1282089948654175,-1.1020036935806274,-1.4637223482131958
1783003181723548000,2.2985478515625,1.3327655792236328,-1.230463981628418,-1.3709887266159058
1783003181733599000,2.308598876953125,1.2763805389404297,-1.4187043905258179,-1.2522785663604736
1783003181743651000,2.318651123046875,0.9082403182983398,-1.5422090291976929,-1.086661696434021
1783003181753703200,2.328703125,0.37733888626098633,-1.477891445159912,-0.8216139078140259
1783003181763754200,2.338754150390625,-0.0889582559466362,-1.1372889280319214,-0.46669358015060425
1783003181773806000,2.34880615234375,-0.3581346571445465,-0.7090315818786621,-0.0693783238530159
1783003181783858200,2.358858154296875,-0.4120865762233734,-0.2829505205154419,0.40722763538360596
1783003181793909000,2.368908935546875,-0.31116917729377747,0.09338756650686264,0.8795816898345947
1783003181803961000,2.378961181640625,-0.13572996854782104,0.31428906321525574,1.2548242807388306
1783003181814012200,2.38901220703125,0.07381244748830795,0.39938199520111084,1.474584698677063
1783003181824064000,2.39906396484375,0.2633320391178131,0.41053691506385803,1.5282316207885742
1783003181834116000,2.4091162109375,0.40062910318374634,0.35301217436790466,1.4591714143753052
1783003181844167000,2.4191669921875,0.43464699387550354,0.2304428368806839,1.3118082284927368
1783003181854219000,2.429218994140625,0.38579118251800537,0.058857642114162445,1.1635197401046753
1783003181864270800,2.439270751953125,0.29343461990356445,-0.09992534667253494,1.0197007656097412
1783003181874322000,2.449322021484375,0.17464178800582886,-0.17171472311019897,0.8900722861289978
1783003181884374000,2.4593740234375,0.03575634956359863,-0.07472611963748932,0.8288697004318237
1783003181894426000,2.469426025390625,-0.11399449408054352,0.15166862308979034,0.8773134350776672
1783003181904477200,2.479477294921875,-0.20239654183387756,0.3848118484020233,1.0011941194534302
1783003181914529000,2.489529052734375,-0.22965016961097717,0.549366295337677,1.1486048698425293
1783003181924580000,2.499580078125,-0.21930591762065887,0.6901633739471436,1.3022040128707886
1783003181934632000,2.5096318359375,-0.21267268061637878,0.6695662140846252,1.4295555353164673
1783003181944684000,2.51968408203125,-0.24704530835151672,0.43066519498825073,1.5186183452606201
1783003181954735000,2.529735107421875,-0.33839109539985657,0.03903849795460701,1.6022193431854248
1783003181964787000,2.539786865234375,-0.45601335167884827,-0.2767535448074341,1.6882754564285278
1783003181974839000,2.549839111328125,-0.5686004757881165,-0.4647521376609802,1.6836202144622803
1783003181984890000,2.55989013671875,-0.6065340042114258,-0.42412427067756653,1.5553364753723145
1783003181994942000,2.56994189453125,-0.5426421761512756,-0.07281516492366791,1.3049566745758057
1783003182004993800,2.579993896484375,-0.41210973262786865,0.5230279564857483,1.0203332901000977
1783003182015044900,2.590044921875,-0.254842609167099,1.2396068572998047,0.907482385635376
1783003182025097200,2.60009716796875,-0.09949031472206116,1.8430078029632568,1.0599656105041504
1783003182035149000,2.610149169921875,0.05688398331403732,2.1280674934387207,1.4619314670562744
1783003182045200100,2.6202001953125,0.2217847853899002,1.985449194908142,1.946502447128296
1783003182055252000,2.630251953125,0.3489091098308563,1.3445338010787964,2.2788965702056885
1783003182065303000,2.640302978515625,0.44402095675468445,0.3728802502155304,2.2693676948547363
1783003182075355100,2.650355224609375,0.402055948972702,-0.7445557713508606,1.649717092514038
1783003182085407000,2.660406982421875,0.15158431231975555,-1.944042682647705,0.4293197691440582
1783003182095458000,2.6704580078125,-0.178922638297081,-2.2972400188446045,-0.7537327408790588
1783003182105510000,2.680510009765625,-0.4472360908985138,-1.5457284450531006,-1.419370412826538
1783003182115562000,2.69056201171875,-0.4778040051460266,-0.18004177510738373,-1.2221028804779053
1783003182125613000,2.700613037109375,-0.11573314666748047,0.9946548342704773,-0.3472073972225189
1783003182135665000,2.710664794921875,0.4660201370716095,1.459275722503662,0.6200526356697083
1783003182145717200,2.72071728515625,0.9481897354125977,1.3132075071334839,1.304866075515747
1783003182155767800,2.730767822265625,1.1557033061981201,0.7185248732566833,1.6272310018539429
1783003182165820200,2.740820068359375,1.1128556728363037,-0.26556482911109924,1.5279254913330078
1783003182175871200,2.750871337890625,0.9557529091835022,-1.4132403135299683,0.9807071685791016
1783003182185923000,2.760923095703125,0.8492754697799683,-2.2001755237579346,0.14033523201942444
1783003182195975200,2.77097509765625,0.8090588450431824,-2.3125104904174805,-0.7382903099060059
1783003182206026000,2.78102587890625,0.7814043164253235,-1.8030450344085693,-1.4636512994766235
1783003182216078000,2.791078125,0.7582671046257019,-0.8975626230239868,-1.8996089696884155
1783003182226130000,2.8011298828125,0.7266678810119629,0.08888716250658035,-2.0448989868164062
1783003182236181000,2.811180908203125,0.6063843369483948,0.9239380955696106,-2.015176296234131
1783003182246233000,2.821233154296875,0.39015480875968933,1.453376054763794,-1.8745781183242798
1783003182256285000,2.831284912109375,0.14031021296977997,1.5661723613739014,-1.649669885635376
1783003182266336000,2.8413359375,-0.07673581689596176,1.2713966369628906,-1.3576710224151611
1783003182276387800,2.851387939453125,-0.21710751950740814,0.6497228145599365,-1.0314728021621704
1783003182286439000,2.86143896484375,-0.290061891078949,-0.08841221034526825,-0.7560755610466003
1783003182296491300,2.8714912109375,-0.3911305069923401,-0.672838032245636,-0.6784965395927429
1783003182306543000,2.881543212890625,-0.43256238102912903,-0.922170877456665,-0.7197158932685852
1783003182316594200,2.89159423828125,-0.38390958309173584,-0.8586020469665527,-0.7671878337860107
1783003182326646000,2.90164599609375,-0.3268454968929291,-0.6329495310783386,-0.79348224401474
1783003182336698000,2.911697998046875,-0.30108967423439026,-0.3579845726490021,-0.7966812252998352
1783003182346749200,2.921749267578125,-0.3108408451080322,-0.07180982083082199,-0.776448130607605
1783003182356801000,2.931801025390625,-0.3165275752544403,0.2423151731491089,-0.6638414859771729
1783003182366853000,2.94185302734375,-0.24347521364688873,0.5561642050743103,-0.4459403157234192
1783003182376904000,2.951904052734375,-0.09308703988790512,0.7359275221824646,-0.17014268040657043
1783003182386956000,2.9619560546875,0.0833231508731842,0.7063273191452026,0.13666598498821259
1783003182397007000,2.972007080078125,0.19238199293613434,0.5089724659919739,0.38276204466819763
1783003182407059000,2.982058837890625,0.2500639259815216,0.21717120707035065,0.5666918754577637
1783003182417111000,2.992111083984375,0.28197550773620605,-0.05108824744820595,0.7285072207450867
1783003182427161900,3.002161865234375,0.2911362648010254,-0.262058824300766,0.84907066822052
1783003182437214200,3.012214111328125,0.25913116335868835,-0.40079718828201294,0.9301160573959351
1783003182447266000,3.02226611328125,0.2533683478832245,-0.46885907649993896,1.0061345100402832
1783003182457317000,3.032317138671875,0.31900686025619507,-0.40148311853408813,1.0581190586090088
1783003182467369000,3.042368896484375,0.42989981174468994,-0.3173607885837555,1.0303635597229004
1783003182477421000,3.052421142578125,0.4962710738182068,-0.2112385332584381,0.9608088135719299
1783003182487472000,3.06247216796875,0.4774259924888611,-0.0800032764673233,0.8996714353561401
1783003182497524000,3.07252392578125,0.3886534571647644,0.07324729114770889,0.8504117131233215
1783003182507575000,3.082574951171875,0.20249821245670319,0.22977112233638763,0.7975618243217468
1783003182517627000,3.092626953125,-0.02595638856291771,0.3880176842212677,0.7939339280128479
1783003182527679000,3.102678955078125,-0.1947251707315445,0.5530598759651184,0.816714346408844
1783003182537730000,3.11272998046875,-0.2775033116340637,0.6183506846427917,0.8159831762313843
1783003182547782000,3.122781982421875,-0.24938778579235077,0.587408185005188,0.7957836389541626
1783003182557834200,3.132834228515625,-0.10118045657873154,0.5032615661621094,0.7754807472229004
1783003182567884800,3.142884765625,0.126715287566185,0.39026498794555664,0.7713634967803955
1783003182577937200,3.152937255859375,0.3582471013069153,0.35321980714797974,0.8033704161643982
1783003182587989000,3.162989013671875,0.5045923590660095,0.5439375638961792,0.959699273109436
1783003182598040000,3.1730400390625,0.5633371472358704,0.8827512860298157,1.2079516649246216
1783003182608092200,3.183092041015625,0.5812354683876038,1.2168487310409546,1.3789262771606445
1783003182618143000,3.19314306640625,0.6261767148971558,1.4264369010925293,1.1915569305419922
1783003182628195000,3.203195068359375,0.7060142755508423,1.6312094926834106,0.3692505657672882
1783003182638247000,3.213246826171875,0.6761741042137146,1.914756178855896,-0.9497917890548706
1783003182648298000,3.223298095703125,0.534188449382782,2.1539175510406494,-2.283170223236084
1783003182658350000,3.23335009765625,0.4633879065513611,2.500530481338501,-3.222116470336914
1783003182668402000,3.24340185546875,0.4950992465019226,2.8682808876037598,-3.5199546813964844
1783003182678453000,3.253452880859375,0.6660986542701721,3.1178438663482666,-3.043766498565674
1783003182688502300,3.263502197265625,1.0289067029953003,3.0488803386688232,-2.0194523334503174
1783003182698554400,3.273554443359375,1.4050742387771606,2.563871383666992,-0.8119062781333923
1783003182708605200,3.283605224609375,1.545456886291504,1.5115143060684204,0.3442877531051636
1783003182718657300,3.2936572265625,1.3200138807296753,0.1559041291475296,1.2393759489059448
1783003182728709000,3.303709228515625,0.8567207455635071,-1.1375279426574707,1.6675405502319336
1783003182738760200,3.31376025390625,0.3589964509010315,-2.044938802719116,1.5817630290985107
1783003182748812300,3.323812255859375,-0.006671025883406401,-2.3875584602355957,1.0194491147994995
1783003182758863000,3.333863037109375,-0.1580076366662979,-2.255657196044922,0.11879453808069229
1783003182768915200,3.343915283203125,-0.1458529680967331,-1.5402308702468872,-0.7587053179740906
1783003182778967000,3.353967041015625,-0.1033886969089508,-0.31563013792037964,-1.1128438711166382
1783003182789018000,3.36401806640625,0.0010173330083489418,0.8074880242347717,-0.9453794956207275
1783003182799070200,3.3740703125,0.14507433772087097,1.453847050666809,-0.6394396424293518
1783003182809122000,3.3841220703125,0.15575948357582092,1.5581088066101074,-0.440324604511261
1783003182819173000,3.394173095703125,-0.01863274723291397,1.1149815320968628,-0.3200265169143677
1783003182829225200,3.40422509765625,-0.31945091485977173,0.22626450657844543,-0.25958874821662903
1783003182839277300,3.41427734375,-0.6248012185096741,-0.864372968673706,-0.2315463125705719
1783003182849328400,3.424328369140625,-0.8717191219329834,-1.8067681789398193,-0.2501533031463623
1783003182859380200,3.434380126953125,-0.9907940626144409,-2.2286055088043213,-0.31001847982406616
1783003182869431300,3.444431396484375,-0.9631525874137878,-2.128239631652832,-0.36588603258132935
1783003182879483100,3.454483154296875,-0.7836883068084717,-1.6062742471694946,-0.42643052339553833
1783003182889535200,3.46453515625,-0.5066022872924805,-0.8662588000297546,-0.5151643753051758
1783003182899586300,3.47458642578125,-0.2107752114534378,-0.09340546280145645,-0.5870433449745178
1783003182909638100,3.48463818359375,0.07067058235406876,0.5537514686584473,-0.6117127537727356
1783003182919690200,3.494690185546875,0.26462745666503906,0.9094379544258118,-0.6027648448944092
1783003182929741000,3.504740966796875,0.3304450809955597,0.9591141939163208,-0.5332531929016113
1783003182939793200,3.514793212890625,0.2693471610546112,0.7172211408615112,-0.40102124214172363
1783003182949845200,3.52484521484375,0.14704973995685577,0.2503748834133148,-0.21927568316459656
1783003182959896000,3.53489599609375,0.005627637729048729,-0.2852049767971039,-0.050977736711502075
1783003182969948400,3.544948486328125,-0.10714711993932724,-0.7060232758522034,0.03156640753149986
1783003182979999200,3.554999267578125,-0.1594713032245636,-0.846972644329071,0.022923652082681656
1783003182990051300,3.56505126953125,-0.12189090251922607,-0.6732450723648071,0.01344279758632183
1783003183000103200,3.575103271484375,0.015064548701047897,-0.29151371121406555,0.051994048058986664
1783003183010154200,3.585154296875,0.18195420503616333,0.14137566089630127,0.11972196400165558
1783003183020206300,3.595206298828125,0.32103875279426575,0.4676577150821686,0.2012874037027359
1783003183030258200,3.605258056640625,0.42784377932548523,0.5857992172241211,0.26867949962615967
1783003183040309200,3.615309326171875,0.5060033202171326,0.460815966129303,0.3094389736652374
1783003183050361000,3.625361083984375,0.5366496443748474,0.1361025869846344,0.31939759850502014
1783003183060413200,3.6354130859375,0.48297765851020813,-0.3502233624458313,0.2793041169643402
1783003183070464300,3.64546435546875,0.37121596932411194,-0.8417842984199524,0.16549497842788696
1783003183080516000,3.65551611328125,0.21003642678260803,-1.0592279434204102,0.032171089202165604
1783003183090568200,3.665568115234375,0.05703170597553253,-0.8846111297607422,0.03153246268630028
1783003183100619300,3.675619384765625,-0.004456875845789909,-0.4600884020328522,0.15328317880630493
1783003183110671400,3.68567138671875,0.024886365979909897,-0.011536723002791405,0.3217028081417084
1783003183120722200,3.69572216796875,0.09573084115982056,0.3599317669868469,0.49661675095558167
1783003183130774300,3.705774169921875,0.10328223556280136,0.531261146068573,0.5896053314208984
1783003183140826000,3.715826171875,0.04200362041592598,0.4527150094509125,0.5941861271858215
1783003183150877200,3.725877197265625,-0.07212428003549576,0.12113308161497116,0.557166337966919
1783003183160929300,3.73592919921875,-0.15555192530155182,-0.32962459325790405,0.5834453701972961
1783003183170981000,3.745981201171875,-0.17090079188346863,-0.6053742170333862,0.7813214659690857
1783003183181032200,3.7560322265625,-0.10394079983234406,-0.609778642654419,1.1109293699264526
1783003183191084000,3.766083984375,-0.013664700090885162,-0.4697864055633545,1.2976257801055908
1783003183201136000,3.77613623046875,-0.10911598801612854,-0.3757002651691437,1.1082454919815063
1783003183211187200,3.786187255859375,-0.45945245027542114,-0.35444319248199463,0.5138988494873047
1783003183221239000,3.796239013671875,-0.9685143232345581,-0.3974875807762146,-0.32251816987991333
1783003183231290000,3.8062900390625,-1.4153040647506714,-0.18606321513652802,-1.007685899734497
1783003183241342200,3.81634228515625,-1.5653284788131714,0.2414967268705368,-1.3258768320083618
1783003183251394300,3.826394287109375,-1.3358618021011353,0.7711429595947266,-1.1771260499954224
1783003183261445400,3.8364453125,-0.8577884435653687,1.1424872875213623,-0.6351087689399719
1783003183271497200,3.846497314453125,-0.26750198006629944,1.1298567056655884,0.070218525826931
1783003183281549300,3.85654931640625,0.25032567977905273,0.5862499475479126,0.7156543731689453
1783003183291600100,3.86660009765625,0.4934248924255371,-0.3462492823600769,1.110098958015442
1783003183301652200,3.87665234375,0.40824609994888306,-1.2084392309188843,1.1730782985687256
1783003183311704000,3.8867041015625,0.11969820410013199,-1.5132455825805664,0.9214867353439331
1783003183321755100,3.896755126953125,-0.3131994307041168,-1.133002519607544,0.4752633273601532
1783003183331807200,3.90680712890625,-0.8315629363059998,-0.24518898129463196,-0.06510241329669952
1783003183341858000,3.916858154296875,-1.3074005842208862,0.7797386646270752,-0.6487452387809753
1783003183351910100,3.92691015625,-1.6530722379684448,1.299933910369873,-1.2911564111709595
1783003183361962200,3.936962158203125,-1.9102141857147217,1.2998414039611816,-1.8810114860534668
1783003183372013000,3.947012939453125,-1.9140070676803589,0.686370313167572,-2.2213332653045654
1783003183382065400,3.9570654296875,-1.6121312379837036,-0.3887839913368225,-2.276886224746704
1783003183392117200,3.9671171875,-1.0665429830551147,-1.4187564849853516,-2.291003465652466
1783003183402168300,3.977168212890625,-0.5009239912033081,-2.0095062255859375,-2.4735476970672607
1783003183412220200,3.98722021484375,-0.091708242893219,-1.9925159215927124,-2.685145616531372
1783003183422272300,3.997272216796875,0.08231104165315628,-1.415021538734436,-2.800607919692993
1783003183432323300,4.0073232421875,0.01725907251238823,-0.6662085652351379,-2.64931321144104
1783003183442375200,4.017375244140625,-0.18583425879478455,-0.2614590525627136,-2.217744827270508
1783003183452426200,4.02742626953125,-0.4139965772628784,-0.34765625,-1.5627514123916626
1783003183462478000,4.03747802734375,-0.529140830039978,-0.6693764925003052,-0.8425767421722412
1783003183472530200,4.0475302734375,-0.482591450214386,-0.9750301241874695,-0.3182482421398163
1783003183482581200,4.057581298828125,-0.29883426427841187,-1.0839489698410034,-0.07591771334409714
1783003183492633000,4.067633056640625,-0.08144575357437134,-0.9484172463417053,-0.12840703129768372
1783003183502685200,4.077685302734375,0.11361914128065109,-0.6136747598648071,-0.41136279702186584
1783003183512736000,4.087736083984375,0.29294097423553467,-0.21978634595870972,-0.7128962874412537
1783003183522788400,4.097788330078125,0.4576146900653839,0.07281932234764099,-0.8967998623847961
1783003183532840200,4.107840087890625,0.5191248655319214,0.17272648215293884,-0.9547651410102844
1783003183542891300,4.117891357421875,0.47113505005836487,0.09976702928543091,-0.8655397295951843
1783003183552943000,4.127943115234375,0.38793444633483887,-0.09848028421401978,-0.6417170166969299
1783003183562994200,4.137994140625,0.3409366309642792,-0.26943665742874146,-0.3272533416748047
1783003183573046300,4.14804638671875,0.3410540819168091,-0.30048513412475586,0.04223577305674553
1783003183583098000,4.15809814453125,0.38761547207832336,-0.1968308985233307,0.37335407733917236
1783003183593149200,4.168149169921875,0.4373212456703186,0.06272824108600616,0.6404257416725159
1783003183603201000,4.178200927734375,0.48409533500671387,0.3241482079029083,0.8521614074707031
1783003183613253000,4.188253173828125,0.5410624146461487,0.463107168674469,0.9687564969062805
1783003183623304200,4.19830419921875,0.5472874641418457,0.4129975438117981,0.9909248352050781
1783003183633356000,4.20835595703125,0.4971785247325897,0.2916037142276764,0.9726864099502563
1783003183643408400,4.218408447265625,0.4570111036300659,0.2241775393486023,0.9658830165863037
1783003183653459200,4.228459228515625,0.44213441014289856,0.11139053106307983,0.9756792187690735
1783003183663511300,4.23851123046875,0.42932718992233276,-0.011283867061138153,0.9856675863265991
1783003183673562400,4.248562255859375,0.3978142738342285,0.07023469358682632,0.940774142742157
1783003183683617500,4.258617431640625,0.35947415232658386,0.48946571350097656,0.9928618669509888
1783003183693670000,4.268669921875,0.35378509759902954,0.8420959115028381,1.058725357055664
1783003183703720700,4.278720703125,0.3787955939769745,1.113015055656433,1.1303565502166748
1783003183713772800,4.288772705078125,0.39351221919059753,1.3617795705795288,1.226951003074646
1783003183723824600,4.29882470703125,0.4559216797351837,1.6148884296417236,1.394080638885498
1783003183733875700,4.308875732421875,0.6382738947868347,1.8544384241104126,1.7739144563674927
1783003183743927800,4.318927734375,0.9315181970596313,1.802945613861084,2.300194263458252
1783003183753979600,4.328979736328125,1.1422096490859985,1.4848802089691162,2.791456460952759
1783003183764030700,4.33903076171875,1.2421525716781616,0.931038498878479,3.0265324115753174
1783003183774082600,4.34908251953125,1.1539026498794556,0.15462079644203186,2.7122867107391357
1783003183784133600,4.359133544921875,0.7667555212974548,-0.5117833614349365,1.8395410776138306
1783003183794185700,4.369185791015625,0.21591021120548248,-0.8197886347770691,0.7726098299026489
1783003183804237600,4.379237548828125,-0.31775611639022827,-0.5072533488273621,-0.028123490512371063
1783003183814288600,4.38928857421875,-0.701835572719574,0.22095924615859985,-0.31424179673194885
1783003183824340500,4.399340576171875,-0.7369697690010071,0.9390286207199097,-0.11497536301612854
1783003183834392800,4.409392822265625,-0.5387887954711914,1.3823245763778687,0.340789794921875
1783003183844444000,4.41944384765625,-0.392610639333725,1.3684626817703247,0.7326523661613464
1783003183854495700,4.429495849609375,-0.4028792381286621,0.8496413826942444,0.6951295137405396
1783003183864547800,4.4395478515625,-0.5279832482337952,-0.036439165472984314,0.1920432299375534
1783003183874598700,4.4495986328125,-0.6599023938179016,-0.8968369960784912,-0.44006362557411194
1783003183884650800,4.459650634765625,-0.7379613518714905,-1.741119623184204,-1.07640540599823
1783003183894701800,4.469701904296875,-0.6677276492118835,-2.5462522506713867,-1.625265121459961
1783003183904753700,4.479753662109375,-0.4875749945640564,-3.113814353942871,-2.1798830032348633
1783003183914805800,4.4898056640625,-0.3631904721260071,-3.1245861053466797,-2.9350733757019043
1783003183924856600,4.499856689453125,-0.4172331988811493,-2.4598095417022705,-3.827239990234375
1783003183934908700,4.50990869140625,-0.5916342735290527,-1.5540578365325928,-4.482903003692627
1783003183944960500,4.51996044921875,-0.7782752513885498,-0.6849616169929504,-4.447023868560791
1783003183955011600,4.530011474609375,-0.8578702211380005,-0.3313835561275482,-3.680615186691284
1783003183965064000,4.54006396484375,-0.826479434967041,-0.6175568103790283,-2.4789555072784424
1783003183975115800,4.55011572265625,-0.6373316049575806,-1.2843600511550903,-1.3021957874298096
1783003183985166800,4.560166748046875,-0.3306828737258911,-2.0504813194274902,-0.4621591567993164
1783003183995218700,4.57021875,0.013289658352732658,-2.6305601596832275,-0.0028405701741576195
1783003184005269800,4.580269775390625,0.31243395805358887,-2.9251303672790527,0.09799709171056747
1783003184015321900,4.59032177734375,0.4370933473110199,-2.6075797080993652,-0.08434262126684189
1783003184025373700,4.600373779296875,0.4122956693172455,-1.8522076606750488,-0.38803020119667053
1783003184035424800,4.6104248046875,0.297642320394516,-1.0580743551254272,-0.6997340321540833
1783003184045476600,4.6204765625,0.12860748171806335,-0.39730045199394226,-0.8767586946487427
1783003184055528700,4.63052880859375,0.017441019415855408,-0.01048935018479824,-0.9025130271911621
1783003184065579800,4.640579833984375,-0.003355897031724453,0.057234570384025574,-0.8043071627616882
1783003184075631600,4.650631591796875,0.003752080025151372,-0.14960329234600067,-0.6023109555244446
1783003184085683700,4.66068359375,-0.02250823564827442,-0.4746054410934448,-0.2781905233860016
1783003184095734500,4.670734619140625,-0.07087230682373047,-0.9252471923828125,0.119948610663414
1783003184105787000,4.680786865234375,-0.07410703599452972,-1.3086458444595337,0.5213173031806946
1783003184115838700,4.690838623046875,-0.02496851608157158,-1.367508888244629,0.7529228329658508
1783003184125889800,4.700889892578125,0.05687742680311203,-0.9857557415962219,0.8130542039871216
1783003184135941600,4.710941650390625,0.11793971806764603,-0.3133888244628906,0.7391434907913208
1783003184145992700,4.72099267578125,0.0841139480471611,0.2861354649066925,0.5671167373657227
1783003184156044800,4.731044921875,-0.014954310841858387,0.709857165813446,0.3922503888607025
1783003184166096600,4.7410966796875,-0.13407966494560242,0.824394166469574,0.2521296739578247
1783003184176147700,4.751147705078125,-0.21141040325164795,0.698420524597168,0.2270626723766327
1783003184186199600,4.761199462890625,-0.2238570898771286,0.4130706489086151,0.3331610858440399
1783003184196251600,4.771251708984375,-0.1613718718290329,0.06431824713945389,0.5514492392539978
1783003184206302700,4.781302734375,-0.03949765861034393,-0.2066415250301361,0.8827431797981262
1783003184216354600,4.7913544921875,0.015599416568875313,-0.38136377930641174,1.2449615001678467
1783003184226405600,4.801405517578125,0.031981028616428375,-0.4331265687942505,1.6025687456130981
1783003184236457500,4.81145751953125,0.0717950239777565,-0.28158071637153625,1.8443124294281006
1783003184246509800,4.821509765625,0.08456511795520782,0.004848869517445564,1.90164315700531
1783003184256561000,4.831560791015625,0.02104685641825199,0.3502829670906067,1.761478066444397
1783003184266612700,4.84161279296875,-0.12953591346740723,0.6572332382202148,1.4693164825439453
1783003184276664800,4.851664794921875,-0.3026174008846283,0.8486335873603821,1.1525717973709106
1783003184286715600,4.861715576171875,-0.39501094818115234,0.9102708101272583,0.8591512441635132
1783003184296767700,4.871767822265625,-0.3624524772167206,1.0138192176818848,0.6099856495857239
1783003184306819600,4.881819580078125,-0.2340974658727646,1.3505369424819946,0.5909900665283203
1783003184316870700,4.89187060546875,-0.034815527498722076,1.8143362998962402,0.9587460160255432
1783003184326922800,4.9019228515625,0.17852860689163208,2.0649237632751465,1.6515649557113647
1783003184336973600,4.9119736328125,0.3873949944972992,1.785190463066101,2.181098699569702
1783003184347025700,4.922025634765625,0.4214015603065491,0.6238239407539368,2.15810227394104
1783003184357077500,4.932077392578125,0.09905758500099182,-0.9987607002258301,1.4882228374481201
1783003184367128600,4.942128662109375,-0.3995002806186676,-2.042630195617676,0.5871856212615967
1783003184377181000,4.952180908203125,-0.7842783331871033,-1.8146837949752808,0.024713758379220963
1783003184387232800,4.962232666015625,-0.7744962573051453,-0.6967558860778809,0.018872253596782684
1783003184397283800,4.972283935546875,-0.3918769657611847,0.5755626559257507,0.4558349549770355
1783003184407335700,4.982335693359375,0.12987883388996124,1.383926272392273,0.9852232933044434
1783003184417387800,4.9923876953125,0.568621039390564,1.6487013101577759,1.321205735206604
1783003184427438800,5.00243896484375,0.7965002059936523,1.4028732776641846,1.3589125871658325
1783003184437490700,5.01249072265625,0.7024602890014648,0.6510156989097595,1.0917980670928955
1783003184447541800,5.022541748046875,0.3418574333190918,-0.3674736022949219,0.7024317383766174
1783003184457593600,5.032593505859375,0.0055249459110200405,-1.431597352027893,0.22807614505290985
1783003184467645700,5.042645751953125,-0.1081802099943161,-2.221571683883667,-0.4230157136917114
1783003184477696800,5.05269677734375,-0.046884357929229736,-2.4916303157806396,-1.173416018486023
1783003184487748600,5.06274853515625,-0.010931339114904404,-2.1746082305908203,-1.8727154731750488
1783003184497800700,5.07280078125,-0.02324260026216507,-1.4266318082809448,-2.3915274143218994
1783003184507851500,5.0828515625,0.0013968334533274174,-0.6022626757621765,-2.747521162033081
1783003184517904000,5.09290380859375,0.05572079122066498,0.20365165174007416,-2.9255003929138184
1783003184527955700,5.102955810546875,0.09459657967090607,0.6931294202804565,-2.9136533737182617
1783003184538006800,5.1130068359375,0.05936188995838165,0.7916644811630249,-2.8099870681762695
1783003184548058600,5.12305859375,-0.008826429024338722,0.6708115935325623,-2.616048574447632
1783003184558109700,5.133109619140625,-0.12179132550954819,0.35447996854782104,-2.3420042991638184
1783003184568161800,5.143161865234375,-0.27836665511131287,-0.23345696926116943,-2.019496202468872
1783003184578213600,5.153213623046875,-0.4312414228916168,-0.8377076983451843,-1.7428276538848877
1783003184588264700,5.1632646484375,-0.4797716736793518,-1.228874683380127,-1.5097606182098389
1783003184598316500,5.173316650390625,-0.4605497717857361,-1.3215528726577759,-1.3477948904037476
1783003184608368600,5.18336865234375,-0.38706865906715393,-1.1489531993865967,-1.260909914970398
1783003184618419700,5.193419677734375,-0.2332170605659485,-0.8190357089042664,-1.2249743938446045
1783003184628471600,5.203471435546875,-0.04159926250576973,-0.46278777718544006,-1.2267813682556152
1783003184638524000,5.21352392578125,0.12751252949237823,-0.1957339644432068,-1.2183958292007446
1783003184648574500,5.223574462890625,0.21956767141819,-0.1446196734905243,-1.130049467086792
1783003184658626800,5.233626708984375,0.1873127967119217,-0.2941489517688751,-0.9448263645172119
1783003184668678000,5.243677978515625,0.04202204942703247,-0.5519137978553772,-0.7086744904518127
1783003184678729700,5.253729736328125,-0.11802593618631363,-0.6804776191711426,-0.43222424387931824
1783003184688783000,5.263783203125,-0.19787532091140747,-0.7031301856040955,-0.20145206153392792
1783003184698834200,5.273834228515625,-0.20747095346450806,-0.6878105998039246,-0.04506857693195343
1783003184708886300,5.28388623046875,-0.16942183673381805,-0.5581710934638977,0.08344771713018417
1783003184718938400,5.2939384765625,-0.10221749544143677,-0.35969793796539307,0.15164300799369812
1783003184728989400,5.303989501953125,-0.03716834634542465,-0.19666706025600433,0.19134928286075592
1783003184739041300,5.314041259765625,0.0018384386785328388,-0.14438921213150024,0.22876375913619995
1783003184749093400,5.32409326171875,0.0003456040285527706,-0.12295940518379211,0.2953065037727356
1783003184759144200,5.334144287109375,-0.04717238247394562,-0.16206447780132294,0.38063710927963257
1783003184769196300,5.3441962890625,-0.13181637227535248,-0.25027430057525635,0.4033019542694092
1783003184779247400,5.354247314453125,-0.2196333110332489,-0.22812077403068542,0.3579517900943756
1783003184789299200,5.36429931640625,-0.26556316018104553,-0.14876800775527954,0.30553144216537476
1783003184799351300,5.374351318359375,-0.25976812839508057,-0.13173416256904602,0.30636075139045715
1783003184809402000,5.384402099609375,-0.20267844200134277,-0.21435637772083282,0.43031659722328186
1783003184819454200,5.3944541015625,-0.12087012082338333,-0.41608044505119324,0.6910930871963501
1783003184829506300,5.40450634765625,-0.04223836958408356,-0.6189714670181274,1.0737583637237549
1783003184839557000,5.41455712890625,0.018729643896222115,-0.7972126007080078,1.4796479940414429
1783003184849609500,5.424609375,0.0977553203701973,-0.9814595580101013,1.7479982376098633
1783003184859660300,5.434660400390625,0.1880362182855606,-1.1432322263717651,1.717690348625183
1783003184869712400,5.44471240234375,0.3095638155937195,-1.1799396276474,1.4274016618728638
1783003184879764200,5.45476416015625,0.3939812481403351,-0.8406335711479187,1.2273533344268799
1783003184889815300,5.464815185546875,0.41038352251052856,-0.3414177894592285,1.3179569244384766
1783003184899867400,5.474867431640625,0.3635646104812622,-0.058700066059827805,1.6764380931854248
1783003184909919200,5.484919189453125,0.29304951429367065,-0.09337347745895386,2.097548007965088
1783003184919970300,5.49497021484375,0.29046812653541565,-0.5429861545562744,2.1871392726898193
1783003184930022100,5.505022216796875,0.3737824559211731,-1.1588044166564941,1.8674657344818115
1783003184940074200,5.51507421875,0.5039636492729187,-1.826521396636963,1.2531589269638062
1783003184950125300,5.525125244140625,0.4502137303352356,-2.401395320892334,0.5967689752578735
1783003184960177200,5.53517724609375,0.1736377775669098,-2.0210862159729004,0.6563529372215271
1783003184970228200,5.545228271484375,-0.0892794281244278,-1.15157151222229,1.3041391372680664
1783003184980280300,5.5552802734375,-0.13495850563049316,-0.17687691748142242,2.097806930541992
1783003184990332400,5.56533251953125,0.03238215297460556,0.49185657501220703,2.580453872680664
1783003185000383500,5.575383544921875,0.23936009407043457,0.917741596698761,2.654372215270996
1783003185010435300,5.585435302734375,0.3439289331436157,1.2698826789855957,2.3856868743896484
1783003185020487400,5.5954873046875,0.34113526344299316,1.5665740966796875,1.8768117427825928
1783003185030538200,5.605538330078125,0.3041444420814514,1.6730304956436157,1.246614694595337
1783003185040590300,5.61559033203125,0.28155604004859924,1.68771493434906,0.6014261245727539
1783003185050642200,5.62564208984375,0.34648844599723816,1.5936466455459595,-0.01729053631424904
1783003185060693200,5.635693359375,0.47598040103912354,1.5660384893417358,-0.4500342309474945
1783003185070745300,5.645745361328125,0.6331566572189331,1.8093490600585938,-0.5228661894798279
1783003185080796200,5.655796142578125,0.8053308129310608,2.087176561355591,-0.4378460943698883
1783003185090848300,5.66584814453125,0.9282733798027039,2.1598105430603027,-0.47910749912261963
1783003185100900000,5.675900146484375,0.9122257232666016,2.0430235862731934,-0.654510498046875
1783003185110951200,5.685951171875,0.7659838199615479,1.746172547340393,-0.9531786441802979
1783003185121003300,5.696003173828125,0.6193515062332153,1.3408989906311035,-1.3200421333312988
1783003185131055400,5.706055419921875,0.5373685359954834,0.9799512624740601,-1.7680041790008545
1783003185141106400,5.7161064453125,0.4741421639919281,0.8041490912437439,-2.3124430179595947
1783003185151158300,5.726158203125,0.36151131987571716,0.7580469250679016,-2.815542221069336
1783003185161210400,5.73621044921875,0.13651680946350098,0.7715670466423035,-2.9760594367980957
1783003185171261200,5.74626123046875,-0.026562577113509178,0.7705248594284058,-2.7160589694976807
1783003185181313300,5.756313232421875,-0.03500372916460037,0.8162038922309875,-2.143993377685547
1783003185191364400,5.7663642578125,0.0019204909913241863,0.9663574695587158,-1.4138391017913818
1783003185201416200,5.776416259765625,-0.06586947292089462,1.1222165822982788,-0.7111917734146118
1783003185211468300,5.78646826171875,-0.26297587156295776,1.2413421869277954,-0.11560200154781342
1783003185221519000,5.79651904296875,-0.4639182984828949,1.0514066219329834,0.34438556432724
1783003185231571200,5.8065712890625,-0.6535565257072449,0.6680267453193665,0.5931751132011414
1783003185241623300,5.816623291015625,-0.7690455317497253,0.3002508580684662,0.5970561504364014
1783003185251674000,5.826674072265625,-0.7613551616668701,0.11634203046560287,0.3032793402671814
1783003185261726500,5.8367265625,-0.6661801934242249,0.12321245670318604,-0.23486027121543884
1783003185271777300,5.84677734375,-0.5314496755599976,0.4241761565208435,-0.7654256224632263
1783003185281829400,5.856829345703125,-0.3546130657196045,0.8242148756980896,-1.1471545696258545
1783003185291881200,5.866881103515625,-0.18517936766147614,1.013405680656433,-1.3588693141937256
1783003185301932300,5.876932373046875,-0.03599360212683678,0.9574806094169617,-1.363101840019226
1783003185311984400,5.886984375,0.13482646644115448,0.7038572430610657,-1.1319016218185425
1783003185322036200,5.8970361328125,0.2627823054790497,0.22279717028141022,-0.7710685133934021
1783003185332087300,5.90708740234375,0.29456204175949097,-0.37110820412635803,-0.3897455334663391
1783003185342139100,5.91713916015625,0.2619212567806244,-0.9936250448226929,-0.09820397198200226
1783003185352191200,5.927191162109375,0.20126263797283173,-1.2990981340408325,0.016578420996665955
1783003185362242300,5.9372421875,0.1628446877002716,-1.3167181015014648,0.022459212690591812
1783003185372294100,5.947294189453125,0.06062564253807068,-0.9985169768333435,-0.024730011820793152
1783003185382345200,5.95734521484375,-0.019897697493433952,-0.39895713329315186,-0.17442390322685242
1783003185392397000,5.96739697265625,-0.06394744664430618,0.1305464506149292,-0.3573814928531647
1783003185402449400,5.977449462890625,-0.10734391957521439,0.48260143399238586,-0.5678929686546326
1783003185412500500,5.98750048828125,-0.17439453303813934,0.6708469390869141,-0.77327561378479
1783003185422552300,5.99755224609375,-0.2659068703651428,0.7660988569259644,-0.915458083152771
1783003185432604400,6.0076044921875,-0.3412591218948364,0.8060992360115051,-0.9463294744491577
1783003185442655200,6.0176552734375,-0.35142841935157776,0.8452373147010803,-0.7976726293563843
1783003185452707300,6.027707275390625,-0.34417372941970825,0.9665278196334839,-0.39924049377441406
1783003185462758400,6.03775830078125,-0.35798487067222595,0.8776136636734009,0.15774418413639069
1783003185472810200,6.047810302734375,-0.4629800617694855,0.734129786491394,0.7320330142974854
1783003185482862300,6.0578623046875,-0.6972431540489197,0.6841222643852234,1.4484648704528809
1783003185492913200,6.0679130859375,-0.919981062412262,0.6138206124305725,2.2486941814422607
1783003185502965200,6.07796533203125,-1.0230728387832642,0.598321795463562,3.0053820610046387
1783003185513017000,6.08801708984375,-1.0618298053741455,0.5779203772544861,3.448245048522949
1783003185523068200,6.098068115234375,-1.090023159980774,0.49011731147766113,3.449031114578247
1783003185533120500,6.10812060546875,-1.1683659553527832,0.4528392553329468,3.102224588394165
1783003185543172400,6.11817236328125,-1.2705986499786377,0.5775172710418701,2.5498054027557373
1783003185553223400,6.128223388671875,-1.3388946056365967,0.7655293941497803,1.863328456878662
1783003185563275300,6.138275146484375,-1.377795696258545,0.911544919013977,1.1233880519866943
1783003185573326300,6.148326416015625,-1.3397239446640015,0.8345973491668701,0.5034589171409607
1783003185583378400,6.15837841796875,-1.1806015968322754,0.40952831506729126,0.08500814437866211
1783003185593430300,6.16843017578125,-0.9045220017433167,0.09119521081447601,-0.18534977734088898
1783003185603481300,6.1784814453125,-0.5243957042694092,-0.1330818384885788,-0.36037591099739075
1783003185613533200,6.188533203125,-0.10114844888448715,-0.2544959485530853,-0.4440931975841522
1783003185623585300,6.198585205078125,0.3124527037143707,-0.22442619502544403,-0.4808730483055115
1783003185633636400,6.20863623046875,0.6657235622406006,-0.02782653644680977,-0.5358173847198486
1783003185643688200,6.218688232421875,0.9348969459533691,0.15598085522651672,-0.6992276310920715
1783003185653739300,6.2287392578125,1.0284676551818848,0.1849183291196823,-1.0189948081970215
1783003185663791000,6.238791015625,0.8752623796463013,0.19382287561893463,-1.3348994255065918
1783003185673843500,6.248843505859375,0.5487135648727417,0.6802403926849365,-1.4780397415161133
1783003185683894300,6.258894287109375,0.11294988542795181,1.0404342412948608,-1.4763931035995483
1783003185693941000,6.26894091796875,-0.3159768283367157,0.9646482467651367,-1.3565645217895508
1783003185703992800,6.278992919921875,-0.5759804248809814,0.7393664121627808,-1.1023945808410645
1783003185714044000,6.2890439453125,-0.6607120037078857,0.5245639681816101,-0.6856452226638794
1783003185724095700,6.299095703125,-0.5279536843299866,0.5466482639312744,-0.16977043449878693
1783003185734146800,6.309146728515625,-0.25482121109962463,0.7347168922424316,0.22901251912117004
1783003185744199000,6.319198974609375,0.0877491906285286,0.7531220316886902,0.26871490478515625
1783003185754251000,6.3292509765625,0.3790118396282196,0.5210958123207092,-0.15895086526870728
1783003185764302000,6.339302001953125,0.49904531240463257,0.15100936591625214,-0.8757848739624023
1783003185774354000,6.34935400390625,0.4677671790122986,-0.07217332720756531,-1.3538259267807007
1783003185784406000,6.359406005859375,0.5035190582275391,-0.08161157369613647,-1.366875171661377
1783003185794456800,6.369456787109375,0.5057481527328491,0.042836591601371765,-1.076581358909607
1783003185804509000,6.379509033203125,0.45508843660354614,0.33623331785202026,-0.599888265132904
1783003185814560800,6.389560791015625,0.41318440437316895,0.7987735867500305,0.057588353753089905
1783003185824611800,6.39961181640625,0.34289106726646423,1.3150522708892822,0.7771472930908203
1783003185834664000,6.409663818359375,0.21610453724861145,1.7455313205718994,1.3912526369094849
1783003185844714800,6.41971484375,0.08423250913619995,2.01231050491333,1.8366048336029053
1783003185854766800,6.429766845703125,0.014901803806424141,2.2074756622314453,2.0695462226867676
1783003185864818700,6.439818603515625,-0.07991551607847214,2.495936155319214,2.7281835079193115
1783003185874869800,6.449869873046875,-0.1902768909931183,2.1991565227508545,3.1453945636749268
1783003185884922000,6.459922119140625,-0.16663947701454163,1.5353947877883911,2.6536667346954346
1783003185894974000,6.469973876953125,-0.14924155175685883,1.0658246278762817,1.7400548458099365
1783003185905025000,6.48002490234375,-0.14544014632701874,0.800719678401947,0.8500714898109436
1783003185915076900,6.490076904296875,-0.15735550224781036,0.75654137134552,0.15685424208641052
1783003185925128000,6.5001279296875,-0.05391433835029602,0.6696706414222717,-0.15170732140541077
1783003185935180000,6.510179931640625,0.18216951191425323,0.6699700951576233,-0.12653566896915436
1783003185945232000,6.52023193359375,0.3862757980823517,0.6090119481086731,0.07944972813129425
1783003185955283000,6.530282958984375,0.5554189085960388,0.03166164457798004,0.430903822183609
