time,seconds_elapsed,z,y,x
1783003150391620000,0.0756201171875,0.3288572758346796,-0.3279717251718044,-0.3451384024195373
1783003150401672200,0.085672119140625,0.20830255869626998,-0.39555648414492606,-0.3905735081005841
1783003150411724300,0.095724365234375,0.19251111532449722,-0.47038756098449225,-0.3911937223581597
1783003150421776400,0.1057763671875,0.045102878051996226,-0.4894669399857521,-0.43196405109856273
1783003150431827200,0.1158271484375,0.22890987791717052,-0.583511835861206,-0.37482378497868774
1783003150441879300,0.12587939453125,0.5831827500373125,-0.6899404124915599,-0.15693455583490432
1783003150451931100,0.13593115234375,0.6520815142184495,-0.6859709243386983,0.006867584214545786
1783003150461983200,0.145983154296875,0.39576866559088225,-0.6582961509495974,0.0697379914842546
1783003150472035000,0.15603515625,0.1690098282277584,-0.6213403389960527,0.07081522879432886
1783003150482086100,0.166086181640625,-0.3096475484520197,-0.42423721970617767,0.053077473660372194
1783003150492138200,0.17613818359375,-0.6468517968714237,-0.23506489341557024,-0.08695712957158684
1783003150502190000,0.186190185546875,0.07677928829789162,-0.32871728284209967,-0.47242681172713635
1783003150512242400,0.196242431640625,0.6397393345177174,-0.34951018776297565,-0.7486350319139659
1783003150522294300,0.206294189453125,0.6243786837786436,-0.168152626876533,-0.7842337301701306
1783003150532345300,0.216345458984375,0.8833271416068077,-0.17177315546125171,-0.717747580088675
1783003150542397200,0.226397216796875,1.5698065999895334,-0.25413170519620176,-0.705707013683021
1783003150552449300,0.23644921875,2.2250983084261415,-0.03410042252242565,-0.6719464906394481
1783003150562501000,0.246501220703125,2.373044890359044,0.20886311518847941,-0.6626461628526449
1783003150572553200,0.25655322265625,2.4874860930532217,0.36606384767889977,-0.7727614651717245
1783003150582604300,0.266604248046875,2.4902760160326958,0.6478706185251474,-0.9302404300816357
1783003150592656100,0.27665625,2.451628597730398,0.9830588509470224,-1.202796411371231
1783003150602708200,0.286708251953125,2.6130139224290847,1.2957283775687216,-1.4738298592686652
1783003150612760300,0.29676025390625,2.7957471555829048,1.4830641360819339,-1.6991978267952799
1783003150622812200,0.306812255859375,3.083986589825153,1.7040823839664458,-1.926061001315713
1783003150632864300,0.3168642578125,3.2653397667974233,1.8632213910430668,-2.0969309243269265
1783003150642915300,0.326915283203125,2.153608358708024,1.8006833940654992,-2.2320174401648343
1783003150652967000,0.336966796875,0.5133937590181827,1.6963877378106116,-2.1556891105048357
1783003150663019000,0.34701904296875,1.1004255856990814,1.7778817796707151,-1.9138152677267788
1783003150673070800,0.35707080078125,1.589535382810235,2.084904824838042,-1.8038050332173705
1783003150683123000,0.367123046875,1.4594558814793823,2.4923949078828094,-1.7150535675749181
1783003150693173800,0.377173828125,2.3907833761453627,2.8331799373984334,-1.8555415040649472
1783003150703225900,0.387225830078125,1.8210399533957242,3.4629508356094356,-2.0100778396517036
1783003150713277700,0.397277587890625,-3.0127479845196006,2.5429537132531403,-1.1909702183686197
1783003150723330000,0.407330078125,-13.201436230921745,-0.633290889030695,3.5694302656441925
1783003150733382000,0.4173818359375,-13.17426999157667,-4.078460568755865,4.060075601759553
1783003150743433000,0.427432861328125,-12.695901953232287,-5.46379556749165,2.6381545011654493
1783003150753485000,0.437485107421875,-14.004469938629866,-4.998744691359996,2.7145786924153565
1783003150763537000,0.447536865234375,-13.253902915740012,-5.67508269495666,2.0604612884551288
1783003150773589000,0.457589111328125,-12.750154936945437,-5.645467308893799,1.8418021709173917
1783003150783640800,0.467640869140625,-12.828658564817905,-5.320473722749949,2.809105526588857
1783003150793692000,0.47769189453125,-11.150262410771846,-5.343288781148195,1.9791193684168158
1783003150803743700,0.48774365234375,-10.494903482317923,-5.353254294845462,0.4116772690689191
1783003150813796000,0.497796142578125,-9.08483560886383,-6.144957045722007,-0.15288992008659988
1783003150823848000,0.507847900390625,-6.687694972646236,-7.259427523386478,0.40102936259806155
1783003150833900000,0.517900146484375,-4.002264633303881,-7.860266341623664,1.0662550205498933
1783003150843951000,0.527951171875,-1.7658131562143564,-8.228325747033953,0.5881275494957342
1783003150854003000,0.5380029296875,-0.5978945814788341,-7.978031720304489,-0.5808118196548894
1783003150864055000,0.548054931640625,-0.5798252563029528,-7.0127247991472474,-0.5181927933303639
1783003150874107000,0.55810693359375,-0.6737620156288147,-5.515277917447686,0.4407498169593513
1783003150884159000,0.568158935546875,0.730451871100068,-3.9299984385162587,0.34620208612829445
1783003150894209800,0.578209716796875,2.0623972249537705,-2.4657068074434996,-0.6228613380182534
1783003150904262000,0.588261962890625,2.810062096661329,-0.8845897088885307,-1.4026666572868822
1783003150914314000,0.59831396484375,3.719693307825923,0.7255266896575688,-2.3061006212465465
1783003150924366000,0.608365966796875,4.175810351395607,2.4213953720301387,-2.145639279524982
1783003150934418000,0.61841796875,3.976664912623167,3.473345972895622,-1.6125808889634907
1783003150944469000,0.628468994140625,3.8964369451761245,4.050926080620289,-1.4081991569727659
1783003150954520800,0.638520751953125,3.9447500174462795,4.365537973481416,-1.0949055071033538
1783003150964573000,0.648572998046875,4.401359812968969,4.257874302098155,-0.685085665936768
1783003150974624800,0.658624755859375,4.94950164476335,4.032081094896793,-0.029638328547030687
1783003150984676900,0.6686767578125,5.425951282265782,3.8278380407243966,0.3122683984749019
1783003150994728000,0.67872802734375,6.0422027736902235,4.049950513586402,-0.08276172370836138
1783003151004779800,0.68877978515625,6.483038661497831,4.56734240233004,-0.8843236052982508
1783003151014832000,0.69883203125,6.94084438880682,5.262526560693979,-1.647003821438551
1783003151024884000,0.708884033203125,6.801864957183599,5.784924294900894,-1.5029302815467118
1783003151034936000,0.71893603515625,6.735821582433581,5.716556861117482,-1.4125271031744777
1783003151044988000,0.72898779296875,7.018343223550915,5.342433041101693,-1.299045831553638
1783003151055039000,0.7390390625,7.050078670507669,5.069997909712791,-1.1473778910100458
1783003151065090800,0.7490908203125,7.040690664437413,5.203076592859626,-0.8648110955767333
1783003151075143000,0.759142822265625,7.109761862576008,5.41549243209362,-0.5927102376434952
1783003151085194800,0.76919482421875,7.018858187335729,5.494435620427131,-0.26887327418886126
1783003151095245800,0.779245849609375,6.891712985891103,5.284110031470656,0.010283274409547448
1783003151105298000,0.7892978515625,6.859414644354581,5.149252063691616,0.04784633154124021
1783003151115350000,0.79935009765625,6.95947427047491,5.281353426238894,-0.1445236217468977
1783003151125401900,0.80940185546875,6.867122149991989,5.629599877676368,-0.5182403222665191
1783003151135454000,0.819453857421875,6.634914399573207,6.095833241590857,-0.8958324029147624
1783003151145505800,0.829505859375,6.23217823305726,6.480590683823824,-1.147088552674651
1783003151155556900,0.839556884765625,5.985208966836333,6.292478680241108,-0.7428354057244956
1783003151165609000,0.84960888671875,5.725177974468469,5.633329127332567,0.21741571161421014
1783003151175660800,0.859660888671875,5.113246684330702,4.996313080298901,0.8329615937862545
1783003151185713000,0.869712890625,4.451923294514417,4.618472285586595,0.9086316056679934
1783003151195765000,0.879764892578125,3.7632775980085134,4.652544651058316,0.5785906730066984
1783003151205816000,0.889816162109375,3.3786160173654554,4.806387305292487,0.4478639598134905
1783003151215868000,0.899867919921875,2.5397867736548183,4.791374445077777,0.45257805578857657
1783003151225920000,0.909919921875,1.2791466606020927,4.520898631063103,0.11134272522218525
1783003151235971800,0.919971923828125,0.2794698523312807,4.212293869662284,-0.038842593814525754
1783003151246024000,0.93002392578125,-0.28574937099218367,3.8912949061125515,1.0733835572555661
1783003151256075000,0.940074951171875,-0.9097212275356054,3.004255465984344,1.8891624725073575
1783003151266126800,0.950126953125,-1.2228858441978692,0.9436983159393072,2.678143104943633
1783003151276179000,0.960178955078125,-2.493639354985952,-1.740072565758228,3.5444483846008774
1783003151286231000,0.97023095703125,-4.16739265166223,-4.158300413668155,4.3669115999221795
1783003151296283000,0.980282958984375,-5.664924289035797,-6.049166767483949,4.519696561796963
1783003151306334000,0.990333984375,-7.529334013080597,-7.547518489068747,3.902217282143235
1783003151316386000,1.000385986328125,-9.003678251612186,-9.209099701914191,3.2298648410513997
1783003151326438000,1.01043798828125,-9.517681666961312,-10.74172603354454,2.200890918886661
1783003151336490000,1.020489990234375,-9.666021632125974,-10.208047026866673,0.6978695249903947
1783003151346541800,1.030541748046875,-9.018990387034416,-9.017372430443762,-0.8418366088330745
1783003151356593000,1.040593017578125,-7.750923923373222,-9.33748584333062,-1.6370494136571883
1783003151366644700,1.050644775390625,-6.956046634113788,-10.506353097093104,-1.1920851938731967
1783003151376696800,1.06069677734375,-6.718811410921812,-11.268211913847923,-0.0525795888745226
1783003151386749000,1.0707490234375,-6.34624241913259,-11.03285300592184,0.3888695537269115
1783003151396801000,1.080801025390625,-5.7796530764997005,-10.106738861989975,-0.07576000541986432
1783003151406852000,1.09085205078125,-4.840272623759508,-8.893974014312029,-0.8339172870758921
1783003151416904000,1.100904052734375,-3.0799311769545077,-7.244376084727048,-1.3393022924877702
1783003151426956000,1.1109560546875,-1.1149953783214093,-5.326369210529327,-1.55474347089231
1783003151437008000,1.1210078125,0.2636427531242371,-3.352027285647392,-2.187868794097751
1783003151447060000,1.13106005859375,0.5676508343845605,-1.810214023476839,-2.544787358421087
1783003151457110800,1.14111083984375,0.8587380592733621,-0.3773755152881145,-1.9324138774737714
1783003151467163000,1.151162841796875,1.2502058127999305,1.1953197918802498,-2.0937740677312013
1783003151477214700,1.161214599609375,1.119053713801503,2.449220952066779,-2.666527193690836
1783003151487267000,1.17126708984375,0.9931459451973438,2.9832752217978236,-2.924452445951104
1783003151497319000,1.18131884765625,1.0183879384815693,2.864225064003467,-2.874416203150153
1783003151507370000,1.191369873046875,1.3880185387313364,2.786867391295731,-2.6773294504731893
1783003151517422000,1.201422119140625,1.597510014951229,2.683894800338149,-2.614594761879742
1783003151527474000,1.211473876953125,1.491070332404971,2.4444869092822072,-2.6027424115225672
1783003151537526000,1.221526123046875,1.6190812107682226,2.0101511971488595,-2.590038412772119
1783003151547577900,1.231577880859375,1.8003841188579797,1.5810650761067866,-2.5346423965036866
1783003151557629700,1.241629638671875,2.2305179953873155,1.3430886791586876,-2.58685598334372
1783003151567680800,1.2516806640625,2.9477175862044094,1.346648125205934,-2.513573012728989
1783003151577733000,1.261733154296875,3.5936809098035094,1.6203125061288475,-2.3887444176636636
1783003151587785000,1.271784912109375,4.117683156597614,1.9298238609805702,-2.2032532641038296
1783003151597837000,1.281837158203125,4.346232969030738,1.9134744914650916,-1.870362202708423
1783003151607888000,1.291887939453125,4.434934750312567,1.8073410983890295,-1.4641037072852252
1783003151617940000,1.30193994140625,4.750173250639438,1.7982172962129115,-1.1217511361919343
1783003151627991800,1.31199169921875,5.044511586278677,1.8963216966122387,-0.8740740139625967
1783003151638044000,1.3220439453125,5.236961911326646,1.772141774713993,-0.6361207786943763
1783003151648095700,1.332095703125,5.464985654059052,1.4920432690903545,-0.5125394802764058
1783003151658148400,1.3421484375,5.7166644131451845,1.3221528586357831,-0.5841816248815507
1783003151668199200,1.35219921875,5.577793118071556,1.3517591846093535,-0.36775242182034995
1783003151678251300,1.362251220703125,5.528242612960934,1.3377972947522998,-0.08665454816212877
1783003151688303400,1.372303466796875,5.612663355922699,1.3063470944777131,0.09525051793870516
1783003151698355200,1.382355224609375,5.4377130317300555,1.3761886924669147,0.157964118078351
1783003151708407000,1.392406982421875,5.1013721221417185,1.5311404769867658,0.048161137678031804
1783003151718458000,1.4024580078125,4.846441083261371,1.7486191525682806,-0.027551188108627684
1783003151728510200,1.41251025390625,4.416425864675641,1.7963690379977226,-0.01446507187252864
1783003151738562000,1.42256201171875,3.479864561009407,2.0327318622693418,0.14202392301880754
1783003151748614100,1.4326142578125,2.6509686822921035,2.1498399460852147,0.39370921231042594
1783003151758666200,1.442666259765625,1.6512731693208216,2.1598580667525527,0.35720403020121155
1783003151768717300,1.45271728515625,-0.0535392824858427,2.4603856124207377,0.2860758447338827
1783003151778769200,1.46276904296875,-1.6342168205797671,2.8088141424268485,0.00896289425967261
1783003151788821200,1.4728212890625,-2.1429250521302223,3.0639056325659153,-0.2755320196920074
1783003151798873000,1.482873046875,-2.3180542400211093,3.3885908834129568,-0.5499526440760121
1783003151808925200,1.49292529296875,-2.9009079042345283,3.0960473222360014,-0.10644370113424956
1783003151818976300,1.502976318359375,-3.6924358830660577,1.1447905048653482,0.9381923389341682
1783003151829028000,1.513028076171875,-5.030632698529958,-2.0828321102172134,2.454355684606731
1783003151839080200,1.523080078125,-7.345248780795932,-5.138844651445746,4.0520992160528895
1783003151849132000,1.533132080078125,-10.557194811058045,-6.678240331080556,5.066151171156764
1783003151859184400,1.543184326171875,-13.397033621823788,-7.012241984066367,4.727354977370799
1783003151869235200,1.553235107421875,-13.556175551509856,-7.134355621084571,3.3960423684626817
1783003151879287300,1.563287353515625,-13.330517368865012,-5.756323638838529,2.31270060403347
1783003151889339100,1.573339111328125,-12.387003177320956,-3.7119387481763955,0.7450199832219631
1783003151899391200,1.58339111328125,-11.559704796928166,-2.9667478653669357,-0.16688527382183818
1783003151909443000,1.593443115234375,-11.064659180027245,-4.205245120194554,-0.060590406573750075
1783003151919494100,1.603494140625,-9.96711411820054,-6.21393939653337,0.8773822617277502
1783003151929546200,1.613546142578125,-8.514895202237367,-7.383977447640896,1.683551929374039
1783003151939598000,1.62359814453125,-6.73022887699306,-7.334037650951743,1.3040256657928229
1783003151949650200,1.633650146484375,-4.883454178360104,-6.600941402822732,0.2768842928174883
1783003151959702300,1.643702392578125,-2.921934325650334,-6.067420217055082,-0.6741421740528196
1783003151969753300,1.65375341796875,-1.471280759307742,-5.577354726654291,-1.1398124972570687
1783003151979805200,1.66380517578125,-0.8478069154143333,-4.6147658322840925,-1.107607825353369
1783003151989857300,1.673857177734375,-0.8393547288894653,-2.8747417818427086,-1.3218491995140909
1783003151999909000,1.6839091796875,-0.3015396453201771,-0.5900649107664823,-0.9412699928138405
1783003152009961200,1.693961181640625,0.2498503746151924,1.0004311337694525,-0.7963961693897843
1783003152020012000,1.704011962890625,0.8469505908459425,1.738976294954121,-0.6117896897099911
1783003152030064000,1.714064208984375,1.1256903753370047,2.2166738866910336,-0.44435719380155203
1783003152040116000,1.724115966796875,1.4228057744741438,2.7007906978204845,-0.7086974276706576
1783003152050168300,1.734168212890625,1.66849026158154,3.0734502905026075,-0.8009214647945017
1783003152060220200,1.74422021484375,1.8775421773403882,3.140576784314215,-0.7022090154994278
1783003152070271200,1.754271240234375,2.107749693852663,2.9880501811146734,-0.6620485622856765
1783003152080323300,1.7643232421875,2.55026549757123,2.8973756384551526,-0.7315630472123622
1783003152090375200,1.774375244140625,3.2819074552386995,2.863271124279499,-0.8169746278423815
1783003152100427300,1.78442724609375,3.853481016024947,2.7741122468799353,-0.9345281173381954
1783003152110479000,1.79447900390625,4.4069390744060275,2.638987152597308,-0.9923034299585968
1783003152120530200,1.8045302734375,4.940522804015875,2.497975630624592,-1.0806707916542888
1783003152130582000,1.81458203125,5.3021238270670175,2.3544611859202385,-1.1438138418529182
1783003152140634000,1.824634033203125,5.504814391100406,2.3115175317287444,-1.0892268769450486
1783003152150686200,1.834686279296875,5.684667684903741,2.3327049889251588,-0.9052470777962356
1783003152160738300,1.84473828125,5.639623843562602,2.4511899140521884,-0.6255884979598224
1783003152170789000,1.8547890625,5.549744835194945,2.548099259448051,-0.5435571343526244
1783003152180841200,1.86484130859375,5.6617760541379445,2.6644974414288995,-0.39065150524023917
1783003152190893000,1.87489306640625,5.923282379755378,2.710233648948371,-0.21912450655978172
1783003152200945200,1.884945068359375,5.987082944014668,2.743990372599661,-0.18798589298501608
1783003152210997000,1.8949970703125,6.089890407538413,2.8578914770677684,-0.1476568052060902
1783003152221049000,1.905049072265625,6.214495276850462,2.8274045688673852,-0.18381543889995663
1783003152231100200,1.91510009765625,6.123417414087057,2.8139623189702627,-0.2439501375954598
1783003152241152300,1.92515234375,5.821262851738929,3.0125919171750546,-0.2236062916163355
1783003152251204400,1.935204345703125,5.560099055948853,3.0944428096488115,-0.33728626414705065
1783003152261256200,1.945256103515625,5.115795199769735,3.190211752837896,-0.3882230725169182
1783003152271308300,1.955308349609375,4.628545935833454,3.182360162554681,-0.1938842303086072
1783003152281359000,1.965359130859375,4.182770838057994,3.0464030013620853,0.21639789460748432
1783003152291411200,1.9754111328125,3.6200223887622354,2.848892178054154,0.5172911317829042
1783003152301463000,1.985463134765625,2.8668466446787115,2.9192615993097424,0.4047753441933542
1783003152311515100,1.99551513671875,2.33959387165606,3.4864652744486926,0.4146665505453944
1783003152321567000,2.00556689453125,1.5433745201379059,4.319762602995336,0.40053924099355936
1783003152331618000,2.0156181640625,0.9417804996192455,5.055090263438225,0.7956066995125264
1783003152341670400,2.02567041015625,0.9920224941253661,4.840432782757282,1.366814422661066
1783003152351722200,2.03572216796875,0.972708721846342,3.2151962642297147,2.294893436925113
1783003152361774000,2.045774169921875,1.0950403855293989,0.31837767513543364,3.4799361649408933
1783003152371826200,2.055826171875,0.562450343132019,-3.0220889365777373,4.366870391128957
1783003152381877200,2.065877197265625,0.21197218711972235,-6.230922680038213,4.270833152392506
1783003152391929000,2.07592919921875,-0.9640724109262228,-7.964586547797918,4.216618162602186
1783003152401981200,2.085981201171875,-2.68092718270421,-8.4370433162719,4.352861447259784
1783003152412033000,2.096032958984375,-3.879085412880778,-9.155263482308387,3.8851559649661183
1783003152422085400,2.10608544921875,-4.868907182091474,-9.464975912690162,3.103665103763342
1783003152432136000,2.116135986328125,-5.543810768970847,-7.061763263082504,2.5335090085595846
1783003152442188300,2.126188232421875,-5.715898104947805,-5.8130473965793845,2.2603861871674655
1783003152452240100,2.136240234375,-5.441762599381804,-7.434259189635514,2.37081377030611
1783003152462292200,2.146292236328125,-4.784442015466094,-9.199988174697756,2.116909005733579
1783003152472344000,2.156343994140625,-4.205619214203954,-8.447558280545472,1.330711428144574
1783003152482395100,2.16639501953125,-3.0105145263791084,-7.364303609877824,0.2581999775484204
1783003152492447200,2.176447265625,-1.2907161023646592,-7.172303366684913,-1.014176677462086
1783003152502499000,2.1864990234375,0.7179775894522666,-6.16416209692955,-2.150852045737207
1783003152512551200,2.19655126953125,2.2216922993749377,-4.072646621780097,-3.1976080005690455
1783003152522603300,2.206603271484375,3.12657076305449,-1.7868869239032268,-3.733397423529625
1783003152532654300,2.216654296875,2.988102788084745,0.19907266579717398,-4.035706884178519
1783003152542706200,2.2267060546875,1.5514759935289621,1.4484627783000468,-4.030015102277696
1783003152552758300,2.23675830078125,0.17188859853446484,2.2873946056023238,-3.2877550122231245
1783003152562810000,2.24681005859375,-0.5014350256770849,3.3105051886916157,-2.602584298351407
1783003152572862200,2.2568623046875,-1.2379635863423346,4.961723997476697,-2.1055064449705183
1783003152582913300,2.266913330078125,-1.8345973541051148,5.976759118399023,-1.3881287211075424
1783003152592965000,2.276965087890625,-1.4155436745166778,5.8794297940254205,-0.8281034862305968
1783003152603017200,2.287017333984375,-0.9653840780466795,5.691425926992297,-0.01915375941172242
1783003152613069300,2.2970693359375,-0.6308955183267593,5.376410129505396,0.28707652794271704
1783003152623121200,2.30712109375,0.23633798209130763,4.627665061345696,0.5108860139809549
1783003152633173200,2.31717333984375,1.4234049094110726,3.5067198347091675,0.35149814670979973
1783003152643224300,2.327224365234375,2.8780706340044735,2.2128009907804427,-0.6927472135405988
1783003152653276200,2.337276123046875,3.831052326595783,1.2583137159317732,-1.37030372608155
1783003152663328300,2.347328369140625,4.0119378860563035,0.5507226420678198,-0.9590494681976734
1783003152673380000,2.357380126953125,4.0889036368370055,-0.1926588166994974,-0.4504605521779507
1783003152683432200,2.36743212890625,3.934459509578347,-1.0220172348946333,-0.20063648104779422
1783003152693483000,2.37748291015625,3.8141362631082534,-1.6010912344388664,-0.1692178814878687
1783003152703535000,2.38753515625,3.5497283708304166,-1.6845689974620937,0.3778884697789326
1783003152713587000,2.3975869140625,3.000292992094159,-1.685771651250124,0.6247817116215825
1783003152723639000,2.40763916015625,3.2022757001191375,-1.4316671263217926,0.5915189454996957
1783003152733691000,2.41769091796875,3.0608488753437992,-0.9956906612440943,0.36458931814692913
1783003152743742000,2.427741943359375,3.042709407541156,-0.7342985365908592,0.1327054019881878
1783003152753794300,2.437794189453125,3.0385511188179253,-0.7977190885566174,0.07674877442861906
1783003152763846100,2.44784619140625,3.19171514313817,-1.117877801889926,-0.12850361204994842
1783003152773898200,2.457898193359375,3.5262487110435963,-1.5122411307275294,-0.3961285118792206
1783003152783950000,2.4679501953125,3.654668754729628,-1.7562400028355418,-0.448330262150988
1783003152794001200,2.478001220703125,3.7665725479006764,-2.0145935635104775,-0.36990116081945595
1783003152804053000,2.488052978515625,4.014281234312057,-2.324114855234325,-0.3369414327647537
1783003152814105000,2.49810498046875,4.26821566337049,-2.456689680512249,-0.4869246350917965
1783003152824157000,2.508156982421875,3.9165024126052854,-2.300902614212036,-0.3019320421712473
1783003152834209300,2.518209228515625,3.08798413502872,-1.9997085674591362,0.18877879692837596
1783003152844260000,2.528260009765625,2.712074600639939,-1.5999080160036683,0.006139489135704934
1783003152854312200,2.538312255859375,2.144622503697872,-0.8687326529346406,-0.16904464381281287
1783003152864364000,2.548364013671875,1.6220371379643679,-0.15426011246126145,-0.1380597594950348
1783003152874416000,2.558416015625,0.7952724260568619,0.31887795280776915,0.11888477463219314
1783003152884468000,2.568468017578125,-0.35543665520250795,0.7616023577757179,0.16869743781033902
1783003152894519000,2.57851904296875,-1.417762519609928,1.536635421141237,0.09786207954343408
1783003152904571100,2.588571044921875,-1.9580355177253483,2.0922318067252634,0.06979870869554579
1783003152914623000,2.598623046875,-1.9320482590317725,2.3880612577050924,0.23802301256880162
1783003152924675000,2.608675048828125,-2.7403099305212497,1.889302319369465,0.6660241148531436
1783003152934727200,2.61872705078125,-4.929385323929786,0.6959937942463904,0.9444162549503147
1783003152944778200,2.6287783203125,-8.467883275693655,-0.5271165794223547,1.7482412591665981
1783003152954830000,2.638830078125,-12.168780113112925,-1.431867617329955,2.9248431988343593
1783003152964882200,2.648882080078125,-13.777656740731,-1.6849764092192052,3.1764395403340457
1783003152974934000,2.65893408203125,-13.84264972964525,0.3423578683229163,2.0149876773945987
1783003152984986000,2.668986083984375,-13.380098853635786,3.82275854550302,1.1843021387815476
1783003152995038000,2.679037841796875,-12.981471291482448,5.1095004835397,0.4581012031242251
1783003153005089000,2.689089111328125,-13.601854768145083,4.099278900378942,-0.3017508038528263
1783003153015141000,2.69914111328125,-13.65040749439001,3.0387375813007353,-0.7485001534879208
1783003153025193000,2.70919287109375,-13.602729212892054,2.7144781546503305,-0.5166822791695594
1783003153035245000,2.7192451171875,-11.64399752959609,1.5433084691643715,-0.3240750099942088
1783003153045297200,2.729297119140625,-9.102603905266523,0.33093444743491707,-0.7343589615412056
1783003153055348200,2.73934814453125,-7.260497198444605,0.627085239323601,-0.8682546601593494
1783003153065400000,2.749400146484375,-5.267656909319758,0.4790476911716163,-0.9268459653377532
1783003153075452200,2.7594521484375,-2.975585251817107,-0.5672109085973351,-1.2130568163618445
1783003153085504000,2.76950390625,-0.9500672664493321,-1.1907563564222305,-1.5648603757590054
1783003153095556000,2.77955615234375,0.6316881300091743,-0.9447788046523928,-2.0322554769292474
1783003153105607000,2.78960693359375,1.3739607872843742,-0.48459962621033187,-2.091746069034934
1783003153115659000,2.799658935546875,1.6300573628127575,-0.6216986509144306,-1.9693460162907839
1783003153125711000,2.809711181640625,1.4104881446927786,-1.2905313934475182,-1.9650947885870933
1783003153135763200,2.81976318359375,1.0160855067580938,-1.5623689973346888,-1.715175440388918
1783003153145815000,2.82981494140625,1.0120493831098079,-1.374979608938098,-1.3907609693072736
1783003153155866000,2.8398662109375,1.1008400117188692,-1.3037109007552266,-1.0222080812916159
1783003153165918200,2.849918212890625,1.2755009975761173,-1.6148213613666593,-0.7360969643149524
1783003153175970000,2.859969970703125,1.5099346073508262,-1.9144430442363023,-0.4094898054946214
1783003153186022100,2.870022216796875,1.9072475797742605,-1.9461127324804663,-0.3889609583374113
1783003153196074000,2.880073974609375,2.4482594135582447,-1.8160002056628464,-0.4458811519658193
1783003153206126000,2.8901259765625,2.9568320360302924,-2.021034410212934,-0.21839491364359853
1783003153216177000,2.900177001953125,3.688530692321062,-2.5353385620743034,-0.05052734165298752
1783003153226229200,2.910229248046875,4.313966776198148,-2.907538136029243,0.01836165005280636
1783003153236281000,2.920281005859375,4.574557740536332,-3.1222371177643535,0.043482930433657016
1783003153246333200,2.930333251953125,4.804903788736462,-3.371301894959807,-0.027120600971905513
1783003153256385000,2.940385009765625,4.8784489174187184,-3.663614277729392,-0.14667845256007275
1783003153266436000,2.95043603515625,4.644363098168373,-3.979279479035735,-0.2105685491331853
1783003153276488200,2.96048828125,4.526901086348295,-4.271597122502326,-0.1332196807864122
1783003153286540000,2.9705400390625,4.480487125697731,-4.341540427300334,-0.07350721239123958
1783003153296592000,2.980591796875,4.500824395805597,-4.273116294893622,-0.1376413788193371
1783003153306644200,2.990644287109375,4.548928209239244,-4.036728043919801,-0.2099505450990051
1783003153316695000,3.000695068359375,4.630331650206446,-3.67354004393816,-0.20868786821942775
1783003153326747100,3.0107470703125,4.905404144361615,-3.3345582644522187,-0.29123576651401817
1783003153336799200,3.02079931640625,5.184992654636502,-2.88495922447443,-0.4420536660995334
1783003153346851000,3.03085107421875,5.173744699913263,-2.371922462200373,-0.4187310600379482
1783003153356903200,3.040903076171875,4.703324405702948,-1.9829443335324524,-0.12420856347084044
1783003153366954000,3.0509541015625,4.411338186147809,-1.8790853151291607,0.04787224230063147
1783003153377006000,3.061006103515625,4.118578059610724,-1.8901140741437672,0.1934534376759082
1783003153387058000,3.071057861328125,3.7463118501603603,-1.7088608504146336,0.3305058102266863
1783003153397110000,3.081110107421875,3.5386078418791294,-1.4172192065134643,0.4856699588555842
1783003153407162000,3.091162109375,3.4513580129712818,-1.0487709479160605,0.5739505190506577
1783003153417213200,3.101213134765625,3.5685756946414706,-0.6258650498788804,0.43211259272377933
1783003153427265300,3.111265380859375,3.720665952250361,0.11530742760207503,0.31768428604379295
1783003153437317000,3.121317138671875,4.2674429254323245,1.0849600863460451,-0.07698591678589582
1783003153447369200,3.131369140625,5.373658200448751,1.9083949962437152,-0.25276914813872425
1783003153457421000,3.141421142578125,5.729341523888706,1.687138555689156,-0.2745957434888929
1783003153467472100,3.15147216796875,5.060982828608155,1.579994962657243,-0.4090039216738194
1783003153477524000,3.16152392578125,4.358281718742847,2.2467111514277756,0.42772031258158383
1783003153487576000,3.171576171875,3.348295697903633,1.8329240140654146,0.9008109219796955
1783003153497628200,3.181628173828125,2.2074819877147673,0.23393208999335766,1.4959218640893697
1783003153507680300,3.19168017578125,0.8016226718664169,-1.8857108707487582,2.759465005107224
1783003153517731000,3.20173095703125,-1.796851268556714,-2.775039883118868,3.925078225509822
1783003153527783200,3.211783203125,-5.300150481167435,-2.6805487047806382,4.204385288494825
1783003153537835000,3.2218349609375,-8.560632871061562,-3.1408518018633127,4.302787210536003
1783003153547887000,3.23188720703125,-11.727495312494039,-2.373860006134212,4.4765012709319585
1783003153557939000,3.24193896484375,-14.339989010441302,0.8716232598096132,4.17222372508049
1783003153567991000,3.251990966796875,-16.679610354626178,4.280763887037336,3.43882820174396
1783003153578042000,3.2620419921875,-17.38916498364806,5.3439048672199245,2.2914237149879333
1783003153588094000,3.272093994140625,-17.361124299556018,4.4499107856482265,1.8061499889083206
1783003153598146300,3.282146240234375,-16.80719628557563,3.4346862796336413,2.201405005888641
1783003153608198100,3.2921982421875,-15.1067344301939,2.5269594407856464,2.2192256170004603
1783003153618250200,3.302250244140625,-12.667695264923571,1.6904811441153287,1.3631237514495849
1783003153628301000,3.312301025390625,-9.742443193027377,1.0153576308749614,0.40535811251737175
1783003153638353200,3.322353271484375,-6.83839874433279,0.4893402448661625,-0.6155610980074853
1783003153648405000,3.332405029296875,-4.384917212212086,0.4447035230211913,-1.5583585926495491
1783003153658457000,3.34245703125,-2.6714070746868845,0.47583665670324116,-1.99426944514513
1783003153668509000,3.352509033203125,-1.458337691104412,0.041871896774135525,-2.411874094969034
1783003153678560000,3.36256005859375,-0.5333984361708164,-0.654101475738734,-2.688523921443522
1783003153688612000,3.372612060546875,0.10576806689500808,-1.1164330829743294,-2.6292157001674172
1783003153698664200,3.382664306640625,0.3913134397476911,-1.2894871450915932,-2.2318546508185566
1783003153708716000,3.392716064453125,0.7949579532802105,-1.39267425558269,-1.846361733917892
1783003153718768000,3.40276806640625,1.453483236810565,-1.449159090001136,-1.7835374673448503
1783003153728819200,3.412819091796875,1.9925626412272452,-1.3896630910679697,-1.7490499452009796
1783003153738871000,3.42287109375,2.3786609766751527,-1.3077652907125652,-1.3958423642247915
1783003153748923100,3.432923095703125,2.926682981482148,-1.4886724774830042,-1.1804212056949734
1783003153758975000,3.44297509765625,3.4367028801530597,-1.600753234656155,-1.1219484853949397
1783003153769027000,3.453027099609375,3.832323661705851,-1.424741418711841,-1.1775509109556674
1783003153779079200,3.4630791015625,4.399232737812399,-1.3236457275420426,-1.2897487186372278
1783003153789130200,3.473130126953125,4.697118536800146,-1.381861185145378,-1.3854716307274997
1783003153799182000,3.48318212890625,4.863385203799605,-1.6003016914963721,-1.3815820759430526
1783003153809234200,3.493234130859375,5.153987275519967,-1.8291309053927658,-1.420526431365311
1783003153819286000,3.5032861328125,5.38259378657639,-1.993885414263606,-1.5023533584415911
1783003153829338000,3.513338134765625,5.491358112677932,-2.184212317416817,-1.5055422176107764
1783003153839389200,3.52338916015625,5.565566673704981,-2.504016664354503,-1.5589961599007247
1783003153849441000,3.53344091796875,5.623510328629613,-2.645770529127121,-1.7157773518048225
1783003153859493000,3.5434931640625,5.714784006226062,-2.5951731453120708,-1.772003535287082
1783003153869545000,3.553544921875,5.716720527246594,-2.5890228059887885,-1.6523947206966578
1783003153879597300,3.563597412109375,5.580892837652564,-2.707365692296624,-1.7026435833349822
1783003153889648000,3.573648193359375,5.4449307080239056,-2.8054864593088626,-1.740380901055038
1783003153899700200,3.5837001953125,5.29547839770317,-2.848416377235949,-1.8366072326228022
1783003153909752000,3.593751953125,5.1135231631845235,-2.857809936264157,-1.9055881221294402
1783003153919804200,3.60380419921875,4.84261772558093,-2.9098665789768097,-1.7841273960620163
1783003153929856000,3.61385595703125,4.517367534327507,-2.871406207679212,-1.7884082882516086
1783003153939907000,3.623906982421875,4.5653620421677825,-2.6712264574229714,-1.9332003516763447
1783003153949959000,3.633958984375,4.636459777697921,-2.3842878766462205,-2.115325097543001
1783003153960011000,3.644010986328125,4.70015045184195,-2.1123928434833883,-2.0305277763538063
1783003153970063000,3.65406298828125,4.727918748733401,-2.000664699140191,-1.8035250472322106
1783003153980115200,3.664115234375,4.685819728672504,-1.9910298787020146,-1.6043129729643464
1783003153990166300,3.674166259765625,4.436708189725875,-1.972948716957867,-1.3531012468680739
1783003154000218000,3.684218017578125,3.7993759163498875,-2.044742325797677,-1.093461445774883
1783003154010270200,3.694270263671875,2.8046728048384186,-2.045224410226196,-0.6099568482596427
1783003154020322000,3.704322021484375,1.8179191910266874,-1.771702360383421,-0.48392567247152324
1783003154030374100,3.7143740234375,0.5500485421985387,-1.1065293824668974,-0.7490070800967514
1783003154040426000,3.724426025390625,-0.6362701971024275,-0.19187683600895106,-0.6752332572251558
1783003154050477000,3.73447705078125,-1.5095277801156044,1.1351698590829968,-0.41734442798513915
1783003154060529000,3.74452880859375,-1.8608651833057404,2.5459505569815635,-0.4400831697441637
1783003154070581200,3.754581298828125,-2.2376742968827483,3.443552599917352,-0.6204281195219605
1783003154080633000,3.764633056640625,-3.639346682435274,3.1746868514478206,-0.30129149751169604
1783003154090684200,3.77468408203125,-6.002019231861829,1.565357219365239,0.5226100617833436
1783003154100736300,3.784736328125,-9.291820655220747,-0.47379459294900295,1.8988557451345025
1783003154110788000,3.7947880859375,-11.83351939997673,-2.032587777623534,3.440555756188929
1783003154120840200,3.804840087890625,-13.163669102585315,-1.71167444653064,3.7491608098506926
1783003154130892000,3.81489208984375,-14.080669381213188,0.15415888057649135,3.0484330458849667
1783003154140944100,3.824944091796875,-14.297894082033633,1.8872320889666676,1.4811853365980088
1783003154150995000,3.834994873046875,-14.66659295439124,3.106938426345587,0.48675490454807874
1783003154161047000,3.845047119140625,-14.889427896308899,3.3605478612333535,0.19557780941873787
1783003154171099100,3.85509912109375,-14.558214412736891,2.9207869091808796,-0.0025169512569904328
1783003154181151200,3.865151123046875,-13.65551855379343,2.7216505304977296,-0.02417904022783041
1783003154191203000,3.875203125,-11.558867761582135,2.802429117564857,0.03034910716488957
1783003154201254100,3.885254150390625,-8.944458000880479,2.381875554807484,-0.3866393104568124
1783003154211306000,3.895305908203125,-6.302116861680149,1.6067963142126798,-0.5249328056424856
1783003154221358000,3.905358154296875,-3.8329946928352117,0.7903091045610606,-0.6434389927532523
1783003154231410000,3.915409912109375,-1.6367361099243163,0.5113949133511633,-0.9246171103071421
1783003154241462000,3.9254619140625,0.0945697965323925,0.5498352647740393,-1.3161454349145292
1783003154251513000,3.93551318359375,0.8342290564388036,0.399594726685062,-1.4490803256765008
1783003154261565200,3.945565185546875,-0.2665127556025982,-0.5684281023673713,-0.8884539831012487
1783003154271617300,3.9556171875,-3.0618501613408324,-2.231549238131195,0.6511478866301477
1783003154281669000,3.965669189453125,-5.252445311662554,-3.7968382145658133,2.206132765062898
1783003154291721200,3.97572119140625,-6.358922452485561,-3.7714410307198762,2.222355293328315
1783003154301773000,3.98577294921875,-6.7496274049460885,-1.6554738358810543,1.7870881455637513
1783003154311824100,3.99582421875,-6.00895692217052,0.0036191403452306985,1.7650613149337468
1783003154321876000,4.0058759765625,-5.033423206031322,0.2307642736122012,1.6627609241493044
1783003154331928000,4.015927978515625,-3.6693881849557157,-0.17777349185459315,1.3721334257267415
1783003154341980000,4.02597998046875,-1.96349670574069,-0.6353419763416052,1.1612935305725782
1783003154352031000,4.036031005859375,-0.09472352578938006,-1.083148872205615,0.7838123629529029
1783003154362083000,4.0460830078125,2.0075643955260514,-1.6608859240576623,0.07548149443916044
1783003154372135200,4.05613525390625,3.913252470898628,-2.128842750763893,-0.6095853845987469
1783003154382187000,4.06618701171875,5.3770419976681465,-2.591401810079813,-1.0663693676445634
1783003154392239000,4.076239013671875,6.496855589926242,-3.0657743490472433,-1.3912377930387854
1783003154402291000,4.086291015625,7.243927171915769,-3.3122254366129633,-1.5388900682002304
1783003154412342000,4.096342041015625,7.696299768260121,-3.207721982826292,-1.7623749984592199
1783003154422394000,4.10639404296875,8.032315099155902,-2.7831024858042595,-1.863055386826396
1783003154432446000,4.116446044921875,8.126488005325198,-2.272372831428796,-2.006968475459516
1783003154442498300,4.126498291015625,8.106083515200018,-1.93926578919515,-2.082539118620008
1783003154452550100,4.136550048828125,8.018719120001792,-1.8265603242523967,-1.8262256854705512
1783003154462601200,4.146601318359375,7.904817431011796,-1.7686089244127272,-1.7503731566287577
1783003154472653000,4.156653076171875,7.797964491489529,-1.547524041032791,-1.7773362746171653
1783003154482705200,4.166705078125,7.6817948575675485,-1.19058706426993,-1.9590739208623766
1783003154492757000,4.176757080078125,7.562669296449422,-0.7552789999730884,-2.0471955641686916
1783003154502809000,4.18680908203125,7.367377025973797,-0.35658187971487637,-2.0132998704381286
1783003154512860200,4.196860107421875,7.160622281241417,-0.21618132924735545,-2.0309791733831166
1783003154522912000,4.206912109375,6.863412189558148,0.04546352805793285,-2.1123107181578873
1783003154532964000,4.216964111328125,6.294567761474847,0.5986620587199926,-1.999309631269425
1783003154543016200,4.22701611328125,5.378721913579106,0.946016822014749,-1.7449049543507396
1783003154553068300,4.237068359375,4.540120633405447,1.09054365863204,-1.2323473538957535
1783003154563119000,4.247119140625,3.9870851843506094,1.2650956311568617,-1.3101814119435846
1783003154573171200,4.257171142578125,3.8402573773145674,1.6211273296430706,-1.4376315876841543
1783003154583223000,4.26722314453125,3.791710496288538,1.9962553582653402,-1.441048994912207
1783003154593275100,4.277275146484375,2.975156797271967,2.0668086116552353,-1.1504632167395203
1783003154603327000,4.287326904296875,1.8095885850548743,2.1528923193931577,-0.7965314862072468
1783003154613378000,4.2973779296875,0.8662368905961513,2.600615044105053,-0.9721977766495198
1783003154623430000,4.307429931640625,0.11059738674759864,3.429744731578231,-1.4199704049177466
1783003154633482000,4.31748193359375,-0.7893138099133968,4.34617159423232,-1.3415817817270754
1783003154643534000,4.3275341796875,-1.305177758437395,5.116502471256256,-0.9348841642342507
1783003154653586200,4.337586181640625,-0.8547352533727883,5.246106171768903,-0.8722483329053967
1783003154663637200,4.34763720703125,-0.5614660082697868,4.491384659548103,-0.5483322032673285
1783003154673689000,4.357689208984375,-1.3704220917642116,2.615233352044225,0.7356891141664237
1783003154683741400,4.367741455078125,-3.157376820206642,-0.7541963193029165,2.366010900069028
1783003154693793300,4.377793212890625,-5.960763092365861,-4.398907743641733,3.7745287676021455
1783003154703845400,4.387845458984375,-8.748140479010344,-6.56140784933567,4.428405933065712
1783003154713896200,4.397896240234375,-11.25629935773611,-6.401420700997114,4.151671058656275
1783003154723948300,4.4079482421875,-12.46810558951497,-4.973826523202657,2.766184084229171
1783003154734000000,4.418000244140625,-12.05756196411848,-2.871846060401201,0.946622971214354
1783003154744052200,4.42805224609375,-11.031083073639868,-1.1013970610797406,-0.2644844646453857
1783003154754104000,4.43810400390625,-10.374999338042736,-1.8318571154862642,-0.27276122153811155
1783003154764155100,4.448155029296875,-9.358902140846848,-4.945421097451448,0.748584105444327
1783003154774207200,4.458207275390625,-7.497807824960351,-8.23217482367754,2.090654328275472
1783003154784259300,4.46825927734375,-5.629419844934344,-10.167162058770655,3.1423768194735047
1783003154794311200,4.478311279296875,-3.63795493581593,-10.824468614161013,3.226292243261635
1783003154804363300,4.48836328125,-1.5938900708884,-9.777575296685098,2.5121581774950026
1783003154814414300,4.498414306640625,-0.1665659422069788,-7.911565151706338,1.3860241500437258
1783003154824466200,4.508466064453125,1.0211030426591634,-6.245416484814882,0.336872239986062
1783003154834518300,4.518518310546875,1.9407243174403905,-4.78291992046535,-0.45198038215637204
1783003154844570000,4.528570068359375,2.335367193871736,-3.3724463888198137,-0.9429140336938202
1783003154854622200,4.538622314453125,1.6671359243631363,-2.0026386295616625,-1.0281810182213782
1783003154864674300,4.54867431640625,1.0063444494664668,-0.6549287203431129,-1.1505156045138836
1783003154874725000,4.55872509765625,0.6684165629476309,0.774885763849318,-1.3879253074899316
1783003154884777200,4.568777099609375,0.602447422477603,2.1028212975397707,-1.621645946689695
1783003154894829300,4.578829345703125,0.9217612094193697,3.2221234331443904,-1.9842185912519692
1783003154904881200,4.588881103515625,1.6009616167098282,4.111970916430652,-2.34242880282104
1783003154914933200,4.598933349609375,2.3975462944090364,4.47336648003757,-2.1239004720561203
1783003154924984300,4.608984375,3.1729449762165545,3.9587580845326182,-1.6336122788153589
1783003154935036200,4.6190361328125,4.065037023559213,3.147904350723326,-1.4384972646027803
1783003154945088300,4.629088134765625,4.948337277159094,2.78470582934767,-1.4305392913356423
1783003154955140000,4.63914013671875,5.593542475867271,2.461063365551829,-1.279746380060911
1783003154965192200,4.649192138671875,6.026797114765643,1.8654595253586768,-1.0457033770389854
1783003154975243300,4.6592431640625,6.43052170779705,1.3256392394468188,-0.9261983150839805
1783003154985295400,4.66929541015625,6.785440476605296,1.1874869062975049,-0.9326324397847056
1783003154995347200,4.67934716796875,6.945747358417511,1.1435425506308674,-1.0308845780916511
1783003155005399300,4.6893994140625,6.856784295850992,1.0263155166104436,-0.885825680424273
1783003155015451100,4.699451171875,6.8407128664940595,0.8752540175274014,-0.6702952163010836
1783003155025502200,4.709502197265625,6.542986057460308,0.8485811146572232,-0.6420053797535598
1783003155035554000,4.719553955078125,6.105733873358369,0.9961436657086015,-0.6313934579115361
1783003155045606100,4.729606201171875,6.031887715902924,1.0496297567024826,-0.7201847441077232
1783003155055658000,4.739657958984375,5.780360347986221,1.0733169217601417,-0.5937185744358227
1783003155065710300,4.74971044921875,5.386400193122029,0.9063421064913272,-0.19673059618305413
1783003155075761400,4.759761474609375,5.369297082629799,0.5191872477278113,0.0408462435208261
1783003155085813200,4.769813232421875,5.4723412775188685,0.3657286243751645,0.0759806122008711
1783003155095865300,4.779865234375,5.681438785985112,0.40020986290872096,0.04976433052439242
1783003155105917200,4.789917236328125,5.758069021201133,0.3810214705750346,0.1130105853691697
1783003155115969300,4.79996923828125,5.447624184891581,0.298641585791111,0.227448207866773
1783003155126020000,4.81002001953125,5.034138660824299,0.3964034563630819,0.19133249999918042
1783003155136072200,4.820072265625,4.695116549327969,0.7396721193879843,0.07111826686151325
1783003155146124000,4.8301240234375,4.107130782923102,1.1340008153036236,0.08038198896497488
1783003155156176400,4.84017626953125,3.6185306888997553,1.3901745477214456,0.35435397453233597
1783003155166228200,4.850228271484375,3.336829716515541,1.147980240817368,0.5646901579480618
1783003155176279300,4.860279296875,3.144392250949144,1.0392164992377162,0.5660306858368218
1783003155186331400,4.870331298828125,2.8994419233351945,1.1737921429440379,0.6329314080685376
1783003155196383200,4.88038330078125,2.222103802785277,1.2042182608678935,0.6370351901255548
1783003155206435300,4.890435302734375,0.8343027061969042,1.371594350413978,0.6339994756914675
1783003155216487200,4.900487060546875,-0.8292728953361511,1.5930384224951266,0.6131153853558003
1783003155226538200,4.910538330078125,-2.3668822760760784,1.706838404676318,0.3705785486243665
1783003155236590000,4.920590087890625,-3.059475248903036,2.203196857741475,0.13990458364412187
1783003155246642200,4.93064208984375,-2.8924288297027347,2.8824922498390078,0.041919864101707935
1783003155256694300,4.9406943359375,-2.9715450365155935,2.908589983169734,0.6499938942894339
1783003155266746400,4.950746337890625,-4.004309290874004,2.0818571277052165,1.5646134152606128
1783003155276797200,4.960797119140625,-5.254776384958625,0.8377201134249568,2.1136831755548715
1783003155286849300,4.970849365234375,-6.780239400830864,0.43771629448235033,1.540293212996423
1783003155296901000,4.980901123046875,-7.74136056073606,0.5750953051716089,1.007029362990707
1783003155306953200,4.990953125,-8.480847386685014,-0.15607903498411177,0.6282295139878988
1783003155317005000,5.001005126953125,-8.911255988502502,-1.212099077245593,0.2076147225625813
1783003155327056100,5.01105615234375,-9.152257870751619,-2.0475725807875396,-0.06915697672590614
1783003155337108200,5.021108154296875,-9.354054700815677,-2.5960569424092768,-0.35402737292647357
1783003155347160000,5.03116015625,-9.13190715664029,-2.710756503778696,-0.8208632327787577
1783003155357212400,5.04121240234375,-9.152081345140934,-3.1554385456204415,-0.5115200010355562
1783003155367264300,5.05126416015625,-8.703599326494336,-4.755156299749016,0.2595744807720184
1783003155377316400,5.06131640625,-8.53631968306005,-6.670611735898256,1.3160560030654072
1783003155387367200,5.0713671875,-8.311577446216344,-7.947186500185728,1.6920828802235424
1783003155397419300,5.081419189453125,-7.714890486961603,-8.863158020287752,1.6754628770731388
1783003155407471000,5.09147119140625,-7.400319510632753,-9.639658525857328,1.3601082030206917
1783003155417523200,5.101523193359375,-6.951078198051452,-9.336362976780533,0.516465859939903
1783003155427575000,5.111574951171875,-5.261598924455046,-7.8501570355415335,-0.7544359002124518
1783003155437626000,5.121626220703125,-3.4115719460278746,-6.107748720312118,-1.702730092574656
1783003155447678200,5.13167822265625,-2.1394868943750858,-4.62872129240036,-2.2071163692727684
1783003155457730300,5.141730224609375,-1.2252274388879536,-3.6851650152802464,-2.11445912836343
1783003155467782100,5.1517822265625,-0.5483756405502558,-3.1020448090851307,-1.7057655147477984
1783003155477834200,5.161834228515625,-0.14586276139616966,-1.9952990804538129,-1.3219167117923498
1783003155487885300,5.17188525390625,-0.05643325036168098,-0.2829784449741244,-1.088255620760098
1783003155497937200,5.181937255859375,-1.0385708948105572,1.3241709204599261,-0.9313886502686888
1783003155507989200,5.1919892578125,-1.6433189954459666,2.0492305771276356,-0.6277988674856722
1783003155518041000,5.202041015625,-1.3631886333793402,1.99969673089087,-0.18679346833005547
1783003155528093400,5.212093505859375,-0.18082652274966238,2.651693489435315,-0.611201149232313
1783003155538144000,5.22214404296875,-0.11383739158213138,3.922786899702251,-0.5286980033949017
1783003155548196400,5.2321962890625,1.1740379343986511,3.543015136927366,-0.44346013536397366
1783003155558248200,5.242248291015625,2.2575831124454737,2.5495801456555722,-0.30777094092518087
1783003155568300300,5.25230029296875,3.3476287584275006,1.796726473133266,-0.06738010324649513
1783003155578352000,5.26235205078125,4.609918976774812,1.4130842986658214,-0.4228369975194335
1783003155588403200,5.2724033203125,5.886505431500077,1.5210437381252646,-0.7345318338900804
1783003155598455300,5.282455322265625,6.729144004365802,1.3890373603850603,-0.9506866404566914
1783003155608507100,5.292507080078125,7.339110131910443,1.1602116536200047,-1.1012205354690552
1783003155618559200,5.302559326171875,7.856904756236076,1.3622373240038752,-1.1235710450954735
1783003155628610000,5.312610107421875,8.090324805054069,1.4466782329708336,-0.7972277979083359
1783003155638662100,5.322662109375,8.081198664790392,1.1635597950041294,-0.2556208843080327
1783003155648714200,5.33271435546875,7.94003838199675,1.0985060158133506,0.17488690356761216
1783003155658765800,5.342765869140625,7.709436313208937,1.3071952357396484,0.5406799714811146
1783003155668817700,5.352817626953125,7.289076227197051,1.6194751785218715,0.993548388518393
1783003155678869800,5.362869873046875,7.150815172976255,1.6446633957922459,1.1326981352072207
1783003155688920800,5.3729208984375,7.163294715321063,1.662061397577822,0.9371779742598533
1783003155698972700,5.38297265625,7.240066989356279,1.9376316121220587,0.767388393831253
1783003155709025000,5.39302490234375,7.4387997556746,2.291400626373291,0.4513866175143048
1783003155719076900,5.403076904296875,7.705186254549026,2.5755644817396997,-0.046770263274945316
1783003155729129000,5.41312890625,7.803374241578578,2.713079686029255,-0.19778456221539525
1783003155739179800,5.4231796875,7.72899558468163,2.656693489679694,-0.12851459010168909
1783003155749231900,5.43323193359375,7.545072849482297,2.713556363630295,-0.18282251887246964
1783003155759283700,5.44328369140625,7.101684939104318,2.8266259857103226,-0.25831837976370003
1783003155769335800,5.453335693359375,6.5016036612361665,2.80620863610357,-0.12689466074965894
1783003155779387600,5.4633876953125,5.92049888651669,2.692180398124456,0.10568174031842499
1783003155789438700,5.473438720703125,5.47369912186861,2.950902353720367,0.28239794167242943
1783003155799490800,5.48349072265625,4.841131870937347,3.4835146079495547,0.5011842657864094
1783003155809543000,5.49354296875,4.034609152069687,3.744365392267704,0.46121235741470007
1783003155819594800,5.5035947265625,3.376021324697137,3.524438154490292,0.44062812680844216
1783003155829646800,5.513646728515625,2.2213906860798596,3.3628605220898984,0.4512253990706056
1783003155839698000,5.523697998046875,0.6493108804613351,3.310137524423003,0.16936244105771184
1783003155849749800,5.533749755859375,-0.27115269036293027,2.8680577740341424,0.1179576133172959
1783003155859801900,5.5438017578125,-0.9574807575762271,2.2254735714793203,0.21639825993366538
1783003155869853700,5.553853759765625,-1.5775217044115066,1.3826304159522056,0.4723820227373391
1783003155879905800,5.56390576171875,-2.4536235709398984,0.08027648276388645,1.2519386279419065
1783003155889956600,5.57395654296875,-4.661133615705371,-1.2055962712228296,2.173644453912228
1783003155900009000,5.584009033203125,-7.955912242954969,-2.0841782641291617,2.743804494638741
1783003155910060800,5.594060791015625,-10.748425823444128,-2.8810066874563693,2.4030744101807473
1783003155920113000,5.60411279296875,-12.777800484240055,-4.000023576378822,1.4984700872674583
1783003155930164700,5.614164794921875,-13.544412633001803,-5.172936890661716,0.5190914592031389
1783003155940215800,5.6242158203125,-14.036720349371432,-4.880225863963365,-0.907862447926402
1783003155950268000,5.634267822265625,-14.283795414054392,-4.174658843272924,-1.9852190004661678
1783003155960319700,5.64431982421875,-14.274465275651215,-4.409174286112189,-2.645786895740032
1783003155970371800,5.654371826171875,-13.748012128573656,-6.924794002237916,-3.9842426544010636
1783003155980423700,5.664423583984375,-12.966190720242261,-9.024367403897642,-3.5079596056371924
1783003155990474800,5.674474853515625,-11.878064644145965,-9.925637613952158,-2.42440536750108
1783003156000526800,5.68452685546875,-11.245381657880545,-10.766907236552237,-1.2022680766481906
1783003156010579000,5.694578857421875,-10.029083959901332,-10.939244163376092,-0.04996334652809892
1783003156020630800,5.704630859375,-7.97316206844151,-9.875600202107428,0.7606267176765948
1783003156030683000,5.714682861328125,-6.360260423091054,-9.21184344766438,0.9429679558381437
1783003156040733700,5.724733642578125,-4.6749645726591345,-8.39569599136114,0.758114150333777
1783003156050785800,5.734785888671875,-3.4887148069411515,-6.685072807449102,0.6281408127911389
1783003156060837600,5.744837646484375,-3.0565280895352362,-5.148508551847934,0.650298210998252
1783003156070889700,5.7548896484375,-3.453420206198096,-4.0163980803355575,0.39848632705174386
1783003156080941800,5.76494189453125,-3.344177741190791,-2.951675676180422,-0.2456796648018062
1783003156090992600,5.77499267578125,-3.0109838974565264,-1.809975538545847,-0.580064837212488
1783003156101045000,5.785044921875,-2.4877619873851535,-0.6508060874551534,-0.8460860099058598
1783003156111096800,5.795096923828125,-1.0152841272473334,0.43138972180932755,-1.406296538221836
1783003156121149000,5.80514892578125,1.0965981363654136,1.3533110902264713,-2.2598796989500523
1783003156131199700,5.81519970703125,3.0136925718933343,2.054669553311169,-2.6684683908864852
1783003156141251800,5.825251953125,4.680139929470419,2.235375664551556,-2.6741470210447904
1783003156151303700,5.8353037109375,5.844439729186893,1.994472858762741,-2.430915480047464
1783003156161355800,5.845355712890625,6.578522650265693,1.5817834535092115,-1.895590898119658
1783003156171407600,5.85540771484375,6.4334525005519385,0.834357066732645,-1.2146205585472285
1783003156181458700,5.865458740234375,5.51282643264234,0.3713584469556808,-0.7002119233980775
1783003156191511000,5.875510986328125,4.8134354702383275,0.9745517193645238,-0.15455500375460832
1783003156201563000,5.88556298828125,5.435682402685284,1.912468529292941,0.31037849307507276
1783003156211614700,5.89561474609375,5.988467676371336,2.114854557421803,0.05998122516684234
1783003156221666800,5.905666748046875,6.056585519307851,1.7149129900604485,-0.2809165805408731
1783003156231718000,5.9157177734375,5.9908162853240965,1.5520061548829078,-0.0987169062744826
1783003156241769700,5.925769775390625,6.467061924687028,1.7608914819031953,0.5853033954530954
1783003156251821800,5.93582177734375,6.955590707039833,1.7807663951963186,1.269727674871683
1783003156261873700,5.945873779296875,7.493560688909888,1.8116732823744415,1.242601183015108
1783003156271925800,5.95592578125,7.154854803755879,2.5346666541621086,1.2231970290388912
1783003156281976600,5.9659765625,7.203688685029745,2.7826652634307742,1.7116665554851294
1783003156292029000,5.97602880859375,6.865570828896761,2.479537179875374,1.647753178501129
1783003156302080800,5.986080810546875,6.434048712879419,2.6945833676129576,1.3861606359049676
1783003156312132900,5.9961328125,6.245322961312532,3.6624919957011937,1.103958728261292
1783003156322184700,6.006184814453125,5.870732108306885,4.434310188673436,0.4238580111302435
1783003156332235800,6.01623583984375,5.444295917251706,4.723808390805125,0.12069156832583249
1783003156342288000,6.026287841796875,5.3216977115869515,4.635921433037519,0.2569562610976398
1783003156352339700,6.036339599609375,4.99401941640377,4.429025818529725,0.795551827520132
1783003156362391800,6.046391845703125,5.079654795852303,4.20971086743176,1.5924509779959917
1783003156372444000,6.05644384765625,5.440322337445616,4.141427604800462,2.1250833982303736
1783003156382494700,6.06649462890625,5.470823858693242,4.315318775328993,2.15947652008906
1783003156392546800,6.076546875,5.2240615132212636,4.654422719889879,2.3996517422556876
1783003156402599000,6.086598876953125,5.112636443477869,4.826117257156968,2.221229942560196
1783003156412650800,6.096650634765625,4.678576333415508,4.703337265184522,1.5786068692997097
1783003156422702800,6.106702880859375,4.1156238859802485,4.481035407230258,1.5982742773219942
1783003156432754000,6.11675390625,3.1285879480957983,4.581638054186105,1.313426823605597
1783003156442805800,6.1268056640625,1.5332880104094744,5.036416542628407,1.1809902377545833
1783003156452857900,6.13685791015625,0.6718371850460767,4.66527553781569,1.5099555040083825
1783003156462909700,6.14690966796875,1.3266829032808543,2.2849054191350935,2.2731899930305777
1783003156472961800,6.1569619140625,2.6753040821254253,-0.7917892601162195,3.0824475436896086
1783003156483012900,6.167012939453125,1.9525281524807214,-1.5389876833558083,3.2512188869863747
1783003156493065000,6.17706494140625,-1.3748539367318153,-2.060150907331705,3.01437178632915
1783003156503116800,6.18711669921875,2.2463597076416013,-3.779339090493321,3.530331596443057
1783003156513169000,6.1971689453125,-3.13000190654695,-3.2256314412653446,0.8475755178112536
1783003156523220700,6.207220703125,-5.065851895949244,-3.208698426643014,-0.33642478847950696
1783003156533271800,6.217271728515625,-4.967302674391865,-3.7126053953915834,0.10856865739896893
1783003156543323600,6.22732373046875,-5.9400423758983605,-4.100205952095985,-0.8628688754677772
1783003156553375700,6.237375732421875,-5.121719329121708,-5.237804207369685,-0.9657941201522946
1783003156563427600,6.247427490234375,-4.305454968440532,-5.60622776991725,-0.9571031564354896
1783003156573480000,6.25747998046875,-4.663685053753853,-5.677923471340537,-0.3196935800395906
1783003156583531000,6.267531005859375,-3.8375960491508243,-6.745389036723971,-0.17980068683326245
1783003156593582800,6.277582763671875,-4.580243384957313,-7.476681450301409,-0.5123493645317853
1783003156603635000,6.287635009765625,-4.7087113594383,-7.055400742313266,-0.8621308435168117
1783003156613686800,6.297686767578125,-5.56277207455039,-6.771618872001767,-1.4979248744748532
1783003156623739000,6.30773876953125,-7.606542340445518,-7.233203533327579,-2.372262800070643
1783003156633789700,6.317789794921875,-8.752485814738273,-6.817540665221214,-2.4670944624096154
1783003156643841800,6.327841796875,-8.716632411068677,-5.235197824263572,-2.284686223426461
1783003156653893600,6.3378935546875,-8.109796982765197,-4.090347405904531,-2.5174457625091073
1783003156663949800,6.34794970703125,-6.973066742497682,-3.0585289079636335,-2.680239784961939
1783003156674001700,6.358001708984375,-5.818678680464625,-1.9371540577381847,-2.2514155297264455
1783003156684052700,6.368052734375,-4.047099215808511,-0.9026938131168484,-1.5356249289244412
1783003156694104800,6.378104736328125,-2.323265837189555,0.03579436695873737,-0.7012332292698323
1783003156704157000,6.388156982421875,-0.9606190556019544,0.11245850444436073,0.32014366189464927
1783003156714208800,6.398208740234375,0.37947102626264095,-0.3719967448592186,0.7762737110763788
1783003156724260900,6.4082607421875,1.214569851273298,-0.16500556102246045,0.8343279867686331
1783003156734312000,6.41831201171875,1.7756471524864434,0.7722954550951718,0.8105634456258267
1783003156744363800,6.42836376953125,2.082659676259756,1.1599001034528016,0.3049538376778364
1783003156754415900,6.438415771484375,2.1536048515766857,1.098024077515304,-0.5088387991275638
1783003156764467700,6.4484677734375,2.1424264549583194,1.3771899784639476,-0.8760866689592599
1783003156774519800,6.458519775390625,2.086495308899879,1.6494173123210667,-0.8617696820542216
1783003156784570600,6.468570556640625,2.22023391726017,1.7108748205855489,-0.7455650498840958
1783003156794623000,6.478623046875,2.8542922835320232,2.036447960183024,-0.5216344947494567
1783003156804674800,6.4886748046875,3.2417034551441666,2.6228911733210087,-0.48280784742273386
1783003156814727000,6.498726806640625,3.297151786121726,2.7485890985667703,-0.007438589035533369
1783003156824777700,6.50877783203125,3.245209417438507,2.174436334942281,0.482182335935533
1783003156834829800,6.518829833984375,3.493581536194682,1.7950263912171125,0.5562944508507848
1783003156844881700,6.528881591796875,3.7565626105397936,1.9800646864429114,0.20516933870445936
1783003156854933800,6.538933837890625,3.635004853838682,2.188082582978904,-0.16122775951679796
1783003156864985600,6.548985595703125,3.513416117477417,2.0222066688627005,-0.26788718576096
1783003156875036700,6.55903662109375,3.169413879480958,1.731149254590273,-0.16857337303925304
1783003156885089000,6.569089111328125,2.4895494553238153,1.7812138467028735,0.07271686116456985
1783003156895140900,6.579140869140625,1.931243372389674,1.6110189003437756,0.2772495824659243
1783003156905193000,6.58919287109375,1.9515818115413188,1.3890034581154584,0.24412249848768114
1783003156915244800,6.599244873046875,1.799694967550039,1.4434142627388238,0.05054024680033326
1783003156925295900,6.6092958984375,1.314820031529665,1.5001467883080244,0.2280433424820192
1783003156935347700,6.61934765625,1.1023568460226059,0.930697672329843,0.8631919699423014
1783003156945399800,6.62939990234375,1.0632897410035134,-0.1608668537825346,1.3754071867004036
1783003156955451600,6.63945166015625,1.024798390045762,-1.2717758395731449,1.5165224613085388
1783003156965503700,6.649503662109375,0.9113900375306606,-2.384949555425346,1.862226388656348
1783003156975554800,6.659554931640625,0.7306751584619283,-3.2089488942727447,1.9063965159028768
1783003156985607000,6.66960693359375,-0.11272738451361655,-2.8641894081681967,1.1323119854338466
1783003156995658800,6.67965869140625,-1.262487786746025,-1.8214400586292148,0.03279865574147552
1783003157005710800,6.6897109375,-2.4227497092485426,-1.102496546754241,-0.7653758849650621
1783003157015762700,6.6997626953125,-3.1964608763605353,-0.43946576849818225,-1.236677930445969
1783003157025813800,6.709813720703125,-3.364220412266254,0.37448826941400765,-1.4500360189661383
1783003157035865900,6.719865966796875,-3.3258997417002916,1.0328788206487893,-1.4759317999839783
1783003157045917700,6.729917724609375,-3.732750357797742,1.7326146509677172,-1.3878184861145912
1783003157055969800,6.7399697265625,-3.74677829862833,2.0190230703905225,-0.9202569423362612
1783003157066022000,6.75002197265625,-3.3126527221143243,1.6254951694637536,-0.8029026286743581
1783003157076072700,6.76007275390625,-3.1199206575155256,1.0162933042898774,-0.9700263508945703
1783003157086124800,6.770124755859375,-2.583836927783489,0.5528299896106124,-0.838953308481723
1783003157096177000,6.780177001953125,-1.923559832149744,0.039728491537272925,-0.5605446191085502
1783003157106228700,6.790228759765625,-1.645619673603773,-0.809362033946812,-0.4676690227407962
1783003157116280800,6.80028076171875,-1.3304834646075963,-1.4993372254908084,-0.6488930934406817
1783003157126332000,6.810331787109375,-1.5506272677451372,-1.5009128042444586,-0.22194674263997002
1783003157136383700,6.8203837890625,-1.5467793601453304,-1.116687569192052,0.5412072832908481
1783003157146435800,6.830435791015625,-1.1478817488789557,-0.5732406172156334,0.8910066632587462
1783003157156487700,6.84048779296875,-0.3234054401695728,-0.11551906105875968,0.6129405402455479
1783003157166538800,6.850538818359375,0.4842524202078581,0.4803741174697876,0.28662525877756995
1783003157176590800,6.8605908203125,0.5046265151947736,0.7932789141520857,0.49975576735325156
1783003157186643000,6.870642822265625,0.5192518373966216,0.4408505008548498,0.7009675640709698
1783003157196694800,6.88069482421875,0.8642226281642913,0.23478344612568616,1.0200402357332408
1783003157206747000,6.890746826171875,1.3059119179308414,0.32443507547825573,1.2031070847555994
1783003157216798000,6.9007978515625,1.5192308434844015,0.4421878869384527,1.3770375643812118
1783003157226849800,6.910849853515625,1.03285894690454,-0.09058598759323358,0.9957339158639311
1783003157236902000,6.92090185546875,1.1680746420800685,-0.30226737507283685,0.8063117064654827
1783003157246953700,6.93095361328125,0.7771317892104387,-0.4046516447484493,0.8082773074500262
1783003157257005600,6.941005615234375,0.4537608358323574,-0.4787251812189817,1.1716991892527788
1783003157267056600,6.951056640625,0.42548868107199667,-0.4288847532510757,0.9904262379098683
1783003157277109000,6.96110888671875,0.7238432666152715,-0.3067404288336634,0.29724766548098996
1783003157287160800,6.971160888671875,1.1442442691594361,0.08880027322024106,0.023767080159764736
1783003157297213000,6.981212890625,1.5441414128571749,0.8455342943072318,0.23225102330492808
1783003157307264800,6.9912646484375,1.4717437006443739,0.8246586795389652,-0.026983210928365586
