time,seconds_elapsed,z,y,x
1783003150382826200,0.066826171875,-0.8030242919921875,-0.5416259765625,0.0144195556640625
1783003150392878300,0.07687841796875,-0.8270416259765625,-0.5522918701171875,0.0045928955078125
1783003150402930200,0.08693017578125,-0.8328704833984375,-0.5597381591796875,0.003692626953125
1783003150412982300,0.096982177734375,-0.83935546875,-0.5652008056640625,0.0066680908203125
1783003150423033300,0.107033447265625,-0.8507080078125,-0.566192626953125,0.004638671875
1783003150433085200,0.117085205078125,-0.8240966796875,-0.5753173828125,0.0198974609375
1783003150443137300,0.12713720703125,-0.793792724609375,-0.580780029296875,0.0440521240234375
1783003150453189000,0.137189208984375,-0.7991943359375,-0.57464599609375,0.058502197265625
1783003150463241200,0.1472412109375,-0.8295745849609375,-0.568267822265625,0.061279296875
1783003150473292000,0.1572919921875,-0.8567962646484375,-0.55712890625,0.056549072265625
1783003150483344400,0.167344482421875,-0.9176025390625,-0.5280609130859375,0.0502471923828125
1783003150493396200,0.177396240234375,-0.9275665283203125,-0.5109710693359375,0.0245513916015625
1783003150503448300,0.1874482421875,-0.845458984375,-0.5201263427734375,-0.01702880859375
1783003150513500200,0.197500244140625,-0.8078765869140625,-0.5133819580078125,-0.038238525390625
1783003150523552300,0.20755224609375,-0.8103179931640625,-0.4965972900390625,-0.035736083984375
1783003150533603000,0.21760302734375,-0.768707275390625,-0.504547119140625,-0.0271148681640625
1783003150543655200,0.2276552734375,-0.691925048828125,-0.5111083984375,-0.0237884521484375
1783003150553707000,0.23770703125,-0.6332244873046875,-0.4893798828125,-0.016204833984375
1783003150563759400,0.24775927734375,-0.620697021484375,-0.4747161865234375,-0.0163726806640625
1783003150573811200,0.257811279296875,-0.6044464111328125,-0.463470458984375,-0.02734375
1783003150583862300,0.2678623046875,-0.604766845703125,-0.4381561279296875,-0.04608154296875
1783003150593914400,0.277914306640625,-0.601348876953125,-0.4096527099609375,-0.0769195556640625
1783003150603966200,0.28796630859375,-0.578094482421875,-0.38677978515625,-0.1046600341796875
1783003150614018300,0.298018310546875,-0.555267333984375,-0.3751678466796875,-0.1308441162109375
1783003150624070100,0.308070068359375,-0.51763916015625,-0.3593292236328125,-0.1559600830078125
1783003150634121200,0.318121337890625,-0.5121612548828125,-0.35748291015625,-0.175811767578125
1783003150644173000,0.328173095703125,-0.6667327880859375,-0.376739501953125,-0.19561767578125
1783003150654225000,0.338224853515625,-0.7747955322265625,-0.3874969482421875,-0.1869049072265625
1783003150664276700,0.34827685546875,-0.6867523193359375,-0.383941650390625,-0.1788330078125
1783003150674329000,0.3583291015625,-0.673004150390625,-0.3431854248046875,-0.1730804443359375
1783003150684380000,0.3683798828125,-0.6381988525390625,-0.3220672607421875,-0.1692962646484375
1783003150694432000,0.378431884765625,-0.5608978271484375,-0.283935546875,-0.173919677734375
1783003150704484000,0.388484130859375,-0.6579742431640625,-0.253173828125,-0.1682891845703125
1783003150714536000,0.398535888671875,-1.359527587890625,-0.433868408203125,0.0214080810546875
1783003150724588000,0.408588134765625,-2.2170562744140625,-0.7953338623046875,0.502197265625
1783003150734638800,0.418638916015625,-2.0359954833984375,-1.137115478515625,0.4004058837890625
1783003150744691000,0.42869091796875,-2.0942840576171875,-1.2039642333984375,0.3040313720703125
1783003150754742800,0.43874267578125,-2.1694183349609375,-1.1820831298828125,0.2954559326171875
1783003150764795000,0.448794921875,-2.0724334716796875,-1.2536468505859375,0.217437744140625
1783003150774847000,0.458846923828125,-2.056121826171875,-1.233062744140625,0.2495574951171875
1783003150784898000,0.46889794921875,-2.0088348388671875,-1.2169189453125,0.3313751220703125
1783003150794950000,0.478949951171875,-1.832916259765625,-1.2305755615234375,0.211212158203125
1783003150805002000,0.489001953125,-1.7624359130859375,-1.2577362060546875,0.070465087890625
1783003150815053800,0.4990537109375,-1.563690185546875,-1.3736724853515625,0.039947509765625
1783003150825106000,0.50910595703125,-1.2989959716796875,-1.4930572509765625,0.1061248779296875
1783003150835157000,0.519156982421875,-1.0047149658203125,-1.5568084716796875,0.148773193359375
1783003150845208800,0.529208740234375,-0.79864501953125,-1.5954132080078125,0.062835693359375
1783003150855261000,0.539260986328125,-0.6992950439453125,-1.5524444580078125,-0.0428924560546875
1783003150865312800,0.549312744140625,-0.7248077392578125,-1.4375457763671875,-0.001434326171875
1783003150875365000,0.559365234375,-0.7025299072265625,-1.2735443115234375,0.0812225341796875
1783003150885417000,0.5694169921875,-0.5477142333984375,-1.11114501953125,0.0364837646484375
1783003150895468000,0.579468017578125,-0.4358978271484375,-0.956329345703125,-0.059600830078125
1783003150905519900,0.589519775390625,-0.363555908203125,-0.789825439453125,-0.1296234130859375
1783003150915572000,0.599572021484375,-0.2747802734375,-0.62005615234375,-0.1974639892578125
1783003150925623800,0.609623779296875,-0.2518310546875,-0.4505157470703125,-0.13397216796875
1783003150935676000,0.619676025390625,-0.2794647216796875,-0.3585052490234375,-0.0739593505859375
1783003150945727000,0.62972705078125,-0.2884063720703125,-0.2943572998046875,-0.034088134765625
1783003150955778800,0.63977880859375,-0.2819671630859375,-0.2667999267578125,0.0176849365234375
1783003150965831200,0.6498310546875,-0.2369384765625,-0.2731475830078125,0.0794219970703125
1783003150975883000,0.659883056640625,-0.1868438720703125,-0.2889251708984375,0.1572723388671875
1783003150985934800,0.669934814453125,-0.1442413330078125,-0.2964630126953125,0.1808929443359375
1783003150995986000,0.67998583984375,-0.0825653076171875,-0.2583770751953125,0.130615234375
1783003151006038000,0.6900380859375,-0.042999267578125,-0.199951171875,0.0408172607421875
1783003151016089900,0.70008984375,-0.0026092529296875,-0.1276092529296875,-0.0186614990234375
1783003151026142000,0.710141845703125,-0.0302276611328125,-0.08941650390625,0.0020599365234375
1783003151036193800,0.72019384765625,-0.019439697265625,-0.1101837158203125,-0.0000762939453125
1783003151046244900,0.730244873046875,0.0055084228515625,-0.1531219482421875,0.007659912109375
1783003151056296700,0.740296630859375,0.0050506591796875,-0.171722412109375,0.019287109375
1783003151066349000,0.75034912109375,0.0089569091796875,-0.156524658203125,0.03997802734375
1783003151076401000,0.76040087890625,0.0141448974609375,-0.138336181640625,0.0614471435546875
1783003151086453000,0.770452880859375,0.00482177734375,-0.1423797607421875,0.08306884765625
1783003151096504000,0.780504150390625,-0.0057220458984375,-0.1688995361328125,0.0971221923828125
1783003151106556000,0.790555908203125,-0.0020599365234375,-0.1802825927734375,0.0799407958984375
1783003151116608000,0.80060791015625,0.00836181640625,-0.1637420654296875,0.0423736572265625
1783003151126659800,0.810659912109375,-0.004486083984375,-0.1278076171875,-0.0113525390625
1783003151136712000,0.8207119140625,-0.029998779296875,-0.0807647705078125,-0.05914306640625
1783003151146762800,0.8307626953125,-0.07080078125,-0.0539398193359375,-0.0874481201171875
1783003151156814800,0.84081494140625,-0.08880615234375,-0.0904693603515625,-0.0341949462890625
1783003151166867000,0.850866943359375,-0.1252593994140625,-0.1627197265625,0.0509033203125
1783003151176919000,0.8609189453125,-0.188720703125,-0.2227325439453125,0.09112548828125
1783003151186971000,0.870970947265625,-0.260101318359375,-0.2516326904296875,0.0749359130859375
1783003151197022000,0.88102197265625,-0.323638916015625,-0.2382354736328125,0.033782958984375
1783003151207074000,0.891073974609375,-0.3682098388671875,-0.2237701416015625,0.022430419921875
1783003151217126000,0.9011259765625,-0.4746856689453125,-0.22698974609375,0.01544189453125
1783003151227178000,0.911177978515625,-0.6058502197265625,-0.2550201416015625,-0.0309295654296875
1783003151237229800,0.921229736328125,-0.694732666015625,-0.2831268310546875,-0.009124755859375
1783003151247281000,0.931281005859375,-0.7574615478515625,-0.3214111328125,0.113189697265625
1783003151257333000,0.9413330078125,-0.802032470703125,-0.4451904296875,0.19171142578125
1783003151267385000,0.951385009765625,-0.843231201171875,-0.68817138671875,0.2805328369140625
1783003151277437000,0.96143701171875,-0.9827423095703125,-0.9717254638671875,0.3651885986328125
1783003151287489000,0.971489013671875,-1.1360321044921875,-1.2169036865234375,0.4340972900390625
1783003151297539800,0.981539794921875,-1.283294677734375,-1.405731201171875,0.4117584228515625
1783003151307592000,0.991592041015625,-1.467529296875,-1.5634765625,0.32977294921875
1783003151317643800,1.001643798828125,-1.5857391357421875,-1.74615478515625,0.2417144775390625
1783003151327696000,1.01169580078125,-1.622650146484375,-1.8652496337890625,0.11492919921875
1783003151337747700,1.021747802734375,-1.626708984375,-1.75982666015625,-0.049560546875
1783003151347798800,1.031798828125,-1.5441436767578125,-1.6667938232421875,-0.188079833984375
1783003151357851100,1.04185107421875,-1.420867919921875,-1.72735595703125,-0.22564697265625
1783003151367903000,1.051903076171875,-1.3661651611328125,-1.84539794921875,-0.133514404296875
1783003151377955000,1.061955078125,-1.34674072265625,-1.896636962890625,-0.0040740966796875
1783003151388007000,1.0720068359375,-1.3041839599609375,-1.846649169921875,0.02679443359375
1783003151398058000,1.08205810546875,-1.2476654052734375,-1.740264892578125,-0.0269775390625
1783003151408109800,1.09210986328125,-1.1374969482421875,-1.6010589599609375,-0.1048736572265625
1783003151418162000,1.102161865234375,-0.9519500732421875,-1.4146575927734375,-0.149078369140625
1783003151428213800,1.1122138671875,-0.7720184326171875,-1.2056884765625,-0.1816558837890625
1783003151438266000,1.12226611328125,-0.67041015625,-0.9952545166015625,-0.255889892578125
1783003151448318000,1.13231787109375,-0.6750640869140625,-0.829925537109375,-0.2537994384765625
1783003151458369000,1.142369140625,-0.6542816162109375,-0.6513824462890625,-0.186553955078125
1783003151468420900,1.1524208984375,-0.6551513671875,-0.4648284912109375,-0.2035369873046875
1783003151478473000,1.162472900390625,-0.6973114013671875,-0.3160858154296875,-0.2403564453125
1783003151488524800,1.17252490234375,-0.73199462890625,-0.2480621337890625,-0.2381439208984375
1783003151498577000,1.182576904296875,-0.7411956787109375,-0.231719970703125,-0.2186431884765625
1783003151508628000,1.1926279296875,-0.714508056640625,-0.2100067138671875,-0.1951904296875
1783003151518679800,1.2026796875,-0.719512939453125,-0.2025299072265625,-0.1955413818359375
1783003151528732000,1.21273193359375,-0.734344482421875,-0.21575927734375,-0.2042388916015625
1783003151538784000,1.222783935546875,-0.7263946533203125,-0.250244140625,-0.2128143310546875
1783003151548836000,1.232836181640625,-0.710662841796875,-0.2775115966796875,-0.2223968505859375
1783003151558887000,1.242886962890625,-0.6635284423828125,-0.2841644287109375,-0.2371063232421875
1783003151568939000,1.25293896484375,-0.595123291015625,-0.2639617919921875,-0.2330169677734375
1783003151578990800,1.262990966796875,-0.5388031005859375,-0.2175140380859375,-0.2248382568359375
1783003151589043000,1.27304296875,-0.4947052001953125,-0.18133544921875,-0.2034912109375
1783003151599094800,1.2830947265625,-0.4855194091796875,-0.1765899658203125,-0.167877197265625
1783003151609145900,1.293145751953125,-0.4739837646484375,-0.177734375,-0.12725830078125
1783003151619198000,1.303197998046875,-0.4427337646484375,-0.16705322265625,-0.093963623046875
1783003151629249800,1.313249755859375,-0.4163970947265625,-0.1572113037109375,-0.0677490234375
1783003151639302000,1.323302001953125,-0.39813232421875,-0.1752777099609375,-0.0418243408203125
1783003151649354000,1.33335400390625,-0.37066650390625,-0.205902099609375,-0.03466796875
1783003151659405300,1.3434052734375,-0.3519287109375,-0.22064208984375,-0.037200927734375
1783003151669457200,1.35345703125,-0.368560791015625,-0.220855712890625,-0.0102691650390625
1783003151679509200,1.36350927734375,-0.36370849609375,-0.23046875,0.014190673828125
1783003151689561000,1.37356103515625,-0.358184814453125,-0.23724365234375,0.0263214111328125
1783003151699613200,1.38361328125,-0.3785858154296875,-0.23565673828125,0.0242767333984375
1783003151709664000,1.3936640625,-0.410614013671875,-0.222625732421875,0.0033416748046875
1783003151719716000,1.403716064453125,-0.432037353515625,-0.2115631103515625,-0.0037384033203125
1783003151729768200,1.413768310546875,-0.4880523681640625,-0.2108154296875,-0.007598876953125
1783003151739820300,1.4238203125,-0.5838165283203125,-0.1889495849609375,0.012939453125
1783003151749872000,1.4338720703125,-0.66400146484375,-0.1893768310546875,0.026763916015625
1783003151759923200,1.443923095703125,-0.7786712646484375,-0.185638427734375,0.0177764892578125
1783003151769975300,1.453975341796875,-0.9637908935546875,-0.1552581787109375,0.00115966796875
1783003151780027100,1.464027099609375,-1.093994140625,-0.1287078857421875,-0.0342559814453125
1783003151790079200,1.474079345703125,-1.1253814697265625,-0.1101837158203125,-0.0685577392578125
1783003151800131000,1.484131103515625,-1.1414947509765625,-0.09356689453125,-0.0823974609375
1783003151810182100,1.49418212890625,-1.204742431640625,-0.1752777099609375,-0.01092529296875
1783003151820234000,1.50423388671875,-1.2806243896484375,-0.4337005615234375,0.123046875
1783003151830286300,1.514286376953125,-1.4333648681640625,-0.7918701171875,0.2988433837890625
1783003151840338200,1.524338134765625,-1.685638427734375,-1.0861663818359375,0.4668731689453125
1783003151850390300,1.534390380859375,-2.0225830078125,-1.207366943359375,0.54290771484375
1783003151860441000,1.544441162109375,-2.253997802734375,-1.2328643798828125,0.460784912109375
1783003151870493200,1.5544931640625,-2.2349700927734375,-1.2161865234375,0.31243896484375
1783003151880545000,1.564544921875,-2.21240234375,-1.03131103515625,0.1752471923828125
1783003151890597000,1.57459716796875,-2.09765625,-0.8431243896484375,0.0001678466796875
1783003151900649000,1.58464892578125,-2.031158447265625,-0.82025146484375,-0.077789306640625
1783003151910700000,1.594699951171875,-1.9622650146484375,-0.9922332763671875,-0.0507965087890625
1783003151920752400,1.60475244140625,-1.8376007080078125,-1.1898345947265625,0.0476226806640625
1783003151930804200,1.61480419921875,-1.6764678955078125,-1.2802886962890625,0.097747802734375
1783003151940856300,1.624856201171875,-1.4926910400390625,-1.247833251953125,0.025482177734375
1783003151950908200,1.634908203125,-1.3025360107421875,-1.166656494140625,-0.09039306640625
1783003151960959200,1.644959228515625,-1.11468505859375,-1.1070098876953125,-0.18218994140625
1783003151971011000,1.655010986328125,-0.9970703125,-1.0330810546875,-0.210845947265625
1783003151981063200,1.665063232421875,-0.96649169921875,-0.8967437744140625,-0.2039642333984375
1783003151991115000,1.675114990234375,-0.97509765625,-0.67230224609375,-0.20672607421875
1783003152001167000,1.6851669921875,-0.921173095703125,-0.422760009765625,-0.1561431884765625
1783003152011219200,1.69521923828125,-0.8809814453125,-0.2625274658203125,-0.1440887451171875
1783003152021270300,1.705270263671875,-0.8260345458984375,-0.1819305419921875,-0.121429443359375
1783003152031322400,1.715322265625,-0.8121185302734375,-0.11993408203125,-0.126556396484375
1783003152041374200,1.725374267578125,-0.777496337890625,-0.06365966796875,-0.1688385009765625
1783003152051426000,1.735426025390625,-0.76007080078125,-0.023895263671875,-0.1820526123046875
1783003152061478100,1.74547802734375,-0.738433837890625,-0.01611328125,-0.1803436279296875
1783003152071529200,1.755529296875,-0.7169952392578125,-0.0217132568359375,-0.1813507080078125
1783003152081581000,1.7655810546875,-0.66595458984375,-0.01812744140625,-0.1850433349609375
1783003152091633200,1.775633056640625,-0.5958251953125,-0.013580322265625,-0.1877593994140625
1783003152101685200,1.785685302734375,-0.54400634765625,-0.0193939208984375,-0.1869049072265625
1783003152111737300,1.7957373046875,-0.4870758056640625,-0.03204345703125,-0.183868408203125
1783003152121788200,1.8057880859375,-0.4360809326171875,-0.0506744384765625,-0.1850738525390625
1783003152131840300,1.81584033203125,-0.4022674560546875,-0.0692596435546875,-0.1848907470703125
1783003152141892000,1.82589208984375,-0.38018798828125,-0.08099365234375,-0.1727294921875
1783003152151944200,1.835944091796875,-0.3624114990234375,-0.08465576171875,-0.1502838134765625
1783003152161996000,1.84599609375,-0.369110107421875,-0.0800323486328125,-0.12158203125
1783003152172047000,1.856047119140625,-0.3734588623046875,-0.0752410888671875,-0.114288330078125
1783003152182099200,1.86609912109375,-0.35357666015625,-0.0680389404296875,-0.087982177734375
1783003152192151000,1.876151123046875,-0.329986572265625,-0.0688629150390625,-0.069976806640625
1783003152202203400,1.886203369140625,-0.3243560791015625,-0.06646728515625,-0.059722900390625
1783003152212255200,1.896255126953125,-0.3090362548828125,-0.062957763671875,-0.0528106689453125
1783003152222306300,1.906306396484375,-0.2965545654296875,-0.0777435302734375,-0.0540924072265625
1783003152232358100,1.916358154296875,-0.3102264404296875,-0.0820770263671875,-0.0569610595703125
1783003152242410200,1.92641015625,-0.3359375,-0.0724945068359375,-0.0576324462890625
1783003152252462000,1.936462158203125,-0.3612060546875,-0.0759735107421875,-0.0770416259765625
1783003152262514200,1.94651416015625,-0.4057769775390625,-0.074188232421875,-0.0802001953125
1783003152272565200,1.956565185546875,-0.4519805908203125,-0.0858917236328125,-0.061309814453125
1783003152282617000,1.9666171875,-0.4938507080078125,-0.10693359375,-0.022491455078125
1783003152292669200,1.976669189453125,-0.557952880859375,-0.1284637451171875,-0.008453369140625
1783003152302721300,1.98672119140625,-0.62860107421875,-0.1091461181640625,-0.0270538330078125
1783003152312773000,1.996773193359375,-0.68389892578125,-0.040985107421875,-0.0291595458984375
1783003152322824200,2.00682421875,-0.7726287841796875,0.0498809814453125,-0.031280517578125
1783003152332876300,2.016876220703125,-0.8138427734375,0.112518310546875,0.01812744140625
1783003152342928100,2.02692822265625,-0.8085174560546875,0.0570831298828125,0.0736846923828125
1783003152352980200,2.036980224609375,-0.8009185791015625,-0.1518096923828125,0.17840576171875
1783003152363032000,2.047031982421875,-0.7962646484375,-0.47979736328125,0.2848663330078125
1783003152373083100,2.057083251953125,-0.8375396728515625,-0.8457794189453125,0.3372955322265625
1783003152383135000,2.067135009765625,-0.86639404296875,-1.1703948974609375,0.286773681640625
1783003152393187300,2.077187255859375,-0.996429443359375,-1.3245391845703125,0.2684326171875
1783003152403239200,2.0872392578125,-1.152099609375,-1.3715362548828125,0.24127197265625
1783003152413291300,2.097291259765625,-1.2606964111328125,-1.4609527587890625,0.1645050048828125
1783003152423342300,2.10734228515625,-1.3656158447265625,-1.408782958984375,0.0809783935546875
1783003152433394200,2.117394287109375,-1.4331817626953125,-1.1267547607421875,0.0453643798828125
1783003152443446300,2.1274462890625,-1.4597015380859375,-1.0584564208984375,0.0493621826171875
1783003152453498000,2.137498046875,-1.426544189453125,-1.2475128173828125,0.0916595458984375
1783003152463550200,2.14755029296875,-1.3769989013671875,-1.3588409423828125,0.071807861328125
1783003152473602300,2.157602294921875,-1.3119659423828125,-1.229827880859375,0.0051116943359375
1783003152483653000,2.167653076171875,-1.1804046630859375,-1.141021728515625,-0.09942626953125
1783003152493705200,2.177705322265625,-0.9973602294921875,-1.1087799072265625,-0.2226409912109375
1783003152503757300,2.18775732421875,-0.797698974609375,-0.9695281982421875,-0.3397064208984375
1783003152513809200,2.19780908203125,-0.6641082763671875,-0.7413482666015625,-0.4464569091796875
1783003152523861200,2.207861328125,-0.5861053466796875,-0.5095672607421875,-0.49609375
1783003152533912000,2.217912109375,-0.6454925537109375,-0.31488037109375,-0.531585693359375
1783003152543964200,2.227964111328125,-0.8137969970703125,-0.178375244140625,-0.4976654052734375
1783003152554016000,2.23801611328125,-0.9540557861328125,-0.0548858642578125,-0.3890380859375
1783003152564068000,2.248068115234375,-1.0309906005859375,0.1226959228515625,-0.2864227294921875
1783003152574120200,2.2581201171875,-1.1326904296875,0.3548431396484375,-0.1785888671875
1783003152584171300,2.268171142578125,-1.171661376953125,0.4846649169921875,-0.0611572265625
1783003152594223400,2.278223388671875,-1.1222686767578125,0.511444091796875,0.04150390625
1783003152604275200,2.288275146484375,-1.0802001953125,0.52545166015625,0.140899658203125
1783003152614327300,2.298327392578125,-1.03973388671875,0.4983367919921875,0.1710357666015625
1783003152624379100,2.308379150390625,-0.937225341796875,0.4148712158203125,0.18609619140625
1783003152634430200,2.31843017578125,-0.813140869140625,0.2869110107421875,0.1284637451171875
1783003152644482000,2.32848193359375,-0.66748046875,0.1511383056640625,-0.0062103271484375
1783003152654534100,2.3385341796875,-0.5963287353515625,0.0540008544921875,-0.0636444091796875
1783003152664586000,2.3485859375,-0.5848541259765625,-0.020843505859375,-0.024749755859375
1783003152674638000,2.35863818359375,-0.5815277099609375,-0.0958251953125,0.0139923095703125
1783003152684689200,2.368689208984375,-0.6031341552734375,-0.164215087890625,0.0279998779296875
1783003152694741000,2.378740966796875,-0.6092681884765625,-0.1869049072265625,0.0399169921875
1783003152704793000,2.38879296875,-0.6558380126953125,-0.1641693115234375,0.0977325439453125
1783003152714845200,2.39884521484375,-0.6909942626953125,-0.13555908203125,0.1068878173828125
1783003152724897000,2.40889697265625,-0.671051025390625,-0.083282470703125,0.0904541015625
1783003152734948000,2.418947998046875,-0.689208984375,-0.028411865234375,0.0508270263671875
1783003152745000200,2.429000244140625,-0.68658447265625,-0.007843017578125,0.0157012939453125
1783003152755052000,2.439052001953125,-0.6873779296875,-0.0249786376953125,-0.0089569091796875
1783003152765104000,2.449104248046875,-0.6639862060546875,-0.07196044921875,-0.051910400390625
1783003152775156000,2.459156005859375,-0.63262939453125,-0.1220245361328125,-0.08953857421875
1783003152785207000,2.46920703125,-0.6237640380859375,-0.157501220703125,-0.0995330810546875
1783003152795259000,2.4792587890625,-0.608734130859375,-0.198699951171875,-0.095794677734375
1783003152805311200,2.489311279296875,-0.5814971923828125,-0.2364501953125,-0.098785400390625
1783003152815363000,2.499363037109375,-0.5626983642578125,-0.2499542236328125,-0.11273193359375
1783003152825415200,2.509415283203125,-0.6217041015625,-0.2306671142578125,-0.07574462890625
1783003152835467000,2.519467041015625,-0.69525146484375,-0.2010955810546875,-0.038116455078125
1783003152845518000,2.52951806640625,-0.7340240478515625,-0.152191162109375,-0.0639495849609375
1783003152855570200,2.539570068359375,-0.7937164306640625,-0.074310302734375,-0.07269287109375
1783003152865622000,2.5496220703125,-0.8497772216796875,-0.0090789794921875,-0.06500244140625
1783003152875674000,2.559674072265625,-0.94439697265625,0.0281982421875,-0.0372161865234375
1783003152885726000,2.569725830078125,-1.0648651123046875,0.07476806640625,-0.0437774658203125
1783003152895777000,2.579777099609375,-1.16229248046875,0.1406402587890625,-0.050872802734375
1783003152905829000,2.5898291015625,-1.19805908203125,0.1764373779296875,-0.05596923828125
1783003152915881200,2.599881103515625,-1.2002105712890625,0.177459716796875,-0.0279541015625
1783003152925933000,2.60993310546875,-1.3174285888671875,0.090911865234375,0.01593017578125
1783003152935985200,2.619985107421875,-1.577972412109375,-0.0417327880859375,0.05462646484375
1783003152946036200,2.6300361328125,-1.9590606689453125,-0.1535491943359375,0.1500091552734375
1783003152956088000,2.640088134765625,-2.305999755859375,-0.2137908935546875,0.2519683837890625
1783003152966140000,2.650139892578125,-2.4062347412109375,-0.169921875,0.2115936279296875
1783003152976192000,2.66019189453125,-2.4024658203125,0.136993408203125,0.0698699951171875
1783003152986244000,2.670244140625,-2.333160400390625,0.492401123046875,-0.030792236328125
1783003152996295000,2.680294921875,-2.3250885009765625,0.568115234375,-0.12066650390625
1783003153006347300,2.69034716796875,-2.37677001953125,0.4538421630859375,-0.2112579345703125
1783003153016399000,2.700399169921875,-2.3775634765625,0.37213134765625,-0.2441253662109375
1783003153026451200,2.710451171875,-2.3428497314453125,0.3360595703125,-0.2140045166015625
1783003153036503000,2.7205029296875,-2.0985565185546875,0.1917266845703125,-0.2069549560546875
1783003153046554000,2.73055419921875,-1.861236572265625,0.11187744140625,-0.2431640625
1783003153056606000,2.74060595703125,-1.6789398193359375,0.1590576171875,-0.2378692626953125
1783003153066658000,2.750657958984375,-1.4643402099609375,0.12176513671875,-0.240753173828125
1783003153076710000,2.7607099609375,-1.234283447265625,0.0255126953125,-0.261474609375
1783003153086762200,2.77076220703125,-1.03619384765625,-0.004791259765625,-0.290557861328125
1783003153096813300,2.780813232421875,-0.8948974609375,0.0453338623046875,-0.3225860595703125
1783003153106865200,2.790865234375,-0.8356170654296875,0.093017578125,-0.3082733154296875
1783003153116917200,2.800917236328125,-0.81829833984375,0.0731964111328125,-0.2875823974609375
1783003153126969000,2.810968994140625,-0.8513641357421875,0.02325439453125,-0.273101806640625
1783003153137021200,2.821021240234375,-0.8796844482421875,0.0323028564453125,-0.2295989990234375
1783003153147073000,2.831072998046875,-0.8707427978515625,0.074737548828125,-0.182708740234375
1783003153157124000,2.8411240234375,-0.8569793701171875,0.09283447265625,-0.1318359375
1783003153167176000,2.851176025390625,-0.833251953125,0.072723388671875,-0.0896453857421875
1783003153177228300,2.861228271484375,-0.8047943115234375,0.058624267578125,-0.047576904296875
1783003153187280100,2.871280029296875,-0.756195068359375,0.0670928955078125,-0.0450439453125
1783003153197332200,2.881332275390625,-0.704071044921875,0.07440185546875,-0.0355987548828125
1783003153207383000,2.891383056640625,-0.649200439453125,0.0348052978515625,-0.007781982421875
1783003153217435100,2.90143505859375,-0.5751800537109375,-0.0284576416015625,0.0074462890625
1783003153227487000,2.911487060546875,-0.52386474609375,-0.0744171142578125,0.012786865234375
1783003153237539000,2.9215390625,-0.5057830810546875,-0.110443115234375,0.01226806640625
1783003153247591000,2.9315908203125,-0.484039306640625,-0.1508636474609375,0.000640869140625
1783003153257642000,2.94164208984375,-0.489166259765625,-0.1905670166015625,-0.01153564453125
1783003153267694000,2.951694091796875,-0.51361083984375,-0.2298126220703125,-0.0154266357421875
1783003153277746200,2.96174609375,-0.523223876953125,-0.2572174072265625,-0.005401611328125
1783003153287798300,2.97179833984375,-0.526397705078125,-0.258941650390625,-0.0008697509765625
1783003153297850000,2.98185009765625,-0.5224609375,-0.24761962890625,-0.0078582763671875
1783003153307901200,2.991901123046875,-0.5177764892578125,-0.2177734375,-0.0093536376953125
1783003153317953000,3.001953125,-0.5056610107421875,-0.1828155517578125,-0.007110595703125
1783003153328005000,3.012005126953125,-0.4756011962890625,-0.1540985107421875,-0.0158538818359375
1783003153338057000,3.022056884765625,-0.453094482421875,-0.1152801513671875,-0.027252197265625
1783003153348109000,3.032109130859375,-0.470550537109375,-0.081756591796875,-0.0183563232421875
1783003153358160100,3.04216015625,-0.5226593017578125,-0.0673828125,0.0110931396484375
1783003153368212000,3.0522119140625,-0.5497283935546875,-0.0868072509765625,0.0195159912109375
1783003153378264000,3.06226416015625,-0.5865631103515625,-0.1065673828125,0.0317230224609375
1783003153388316200,3.072316162109375,-0.6229705810546875,-0.106231689453125,0.0391082763671875
1783003153398368000,3.082367919921875,-0.6419219970703125,-0.09332275390625,0.05194091796875
1783003153408420000,3.092420166015625,-0.6467132568359375,-0.0745391845703125,0.0494842529296875
1783003153418471200,3.10247119140625,-0.63214111328125,-0.043548583984375,0.0335693359375
1783003153428523000,3.11252294921875,-0.6135711669921875,0.0196685791015625,0.0176544189453125
1783003153438575000,3.1225751953125,-0.5379638671875,0.097900390625,-0.021240234375
1783003153448627000,3.132626953125,-0.427520751953125,0.134765625,-0.0120697021484375
1783003153458679300,3.14267919921875,-0.4218292236328125,0.0578460693359375,-0.010589599609375
1783003153468730000,3.152730224609375,-0.4927978515625,0.0410614013671875,0.022308349609375
1783003153478782200,3.1627822265625,-0.5583648681640625,0.0555267333984375,0.12127685546875
1783003153488834000,3.172833984375,-0.664520263671875,-0.0562896728515625,0.1684112548828125
1783003153498886100,3.18288623046875,-0.771148681640625,-0.2750091552734375,0.2392425537109375
1783003153508938000,3.19293798828125,-0.9356231689453125,-0.4952239990234375,0.3631439208984375
1783003153518989000,3.202989013671875,-1.2308197021484375,-0.5516510009765625,0.4370574951171875
1783003153529041200,3.213041259765625,-1.5941925048828125,-0.540802001953125,0.416015625
1783003153539093000,3.223093017578125,-1.92340087890625,-0.5621337890625,0.3982391357421875
1783003153549145000,3.23314501953125,-2.2445831298828125,-0.3879547119140625,0.372650146484375
1783003153559197200,3.243197265625,-2.5011138916015625,0.0030517578125,0.3074188232421875
1783003153569248300,3.253248291015625,-2.7204437255859375,0.3265380859375,0.20355224609375
1783003153579300000,3.263300048828125,-2.749969482421875,0.376373291015625,0.0852203369140625
1783003153589352200,3.273352294921875,-2.7487335205078125,0.2760467529296875,0.0655364990234375
1783003153599404000,3.283404052734375,-2.662689208984375,0.18389892578125,0.1208038330078125
1783003153609456000,3.2934560546875,-2.4698944091796875,0.1007537841796875,0.107208251953125
1783003153619507200,3.303507080078125,-2.209686279296875,0.0347747802734375,0.0243682861328125
1783003153629559000,3.31355908203125,-1.90789794921875,-0.017425537109375,-0.0590057373046875
1783003153639611000,3.32361083984375,-1.622650146484375,-0.044464111328125,-0.1587066650390625
1783003153649663200,3.333663330078125,-1.3926544189453125,-0.025115966796875,-0.230621337890625
1783003153659715000,3.343715087890625,-1.234771728515625,-0.0151824951171875,-0.2612457275390625
1783003153669766100,3.35376611328125,-1.12139892578125,-0.0528717041015625,-0.29034423828125
1783003153679818200,3.363818359375,-1.0341644287109375,-0.102203369140625,-0.298065185546875
1783003153689870000,3.3738701171875,-0.979583740234375,-0.1199188232421875,-0.2639312744140625
1783003153699922200,3.383922119140625,-0.9528656005859375,-0.1140289306640625,-0.20166015625
1783003153709974000,3.39397412109375,-0.9017333984375,-0.10491943359375,-0.1501922607421875
1783003153720026000,3.404026123046875,-0.8334808349609375,-0.091949462890625,-0.133331298828125
1783003153730077000,3.414076904296875,-0.7813720703125,-0.06884765625,-0.10546875
1783003153740129000,3.42412890625,-0.739898681640625,-0.0543670654296875,-0.0565643310546875
1783003153750181000,3.43418115234375,-0.6782073974609375,-0.0671844482421875,-0.033172607421875
1783003153760233200,3.444233154296875,-0.631927490234375,-0.062713623046875,-0.02630615234375
1783003153770285000,3.45428515625,-0.5858154296875,-0.038604736328125,-0.0345001220703125
1783003153780336000,3.464336181640625,-0.5307464599609375,-0.0280914306640625,-0.047088623046875
1783003153790388200,3.47438818359375,-0.5076446533203125,-0.0351715087890625,-0.057952880859375
1783003153800440000,3.484440185546875,-0.4877471923828125,-0.0560760498046875,-0.05706787109375
1783003153810492200,3.4944921875,-0.4569244384765625,-0.0753631591796875,-0.0650177001953125
1783003153820544000,3.5045439453125,-0.4373931884765625,-0.0883026123046875,-0.071197509765625
1783003153830595000,3.514594970703125,-0.426666259765625,-0.108673095703125,-0.0677642822265625
1783003153840647000,3.52464697265625,-0.4192962646484375,-0.1374359130859375,-0.0740966796875
1783003153850699300,3.53469921875,-0.41229248046875,-0.142974853515625,-0.08624267578125
1783003153860751000,3.544751220703125,-0.402496337890625,-0.135284423828125,-0.0805511474609375
1783003153870803200,3.55480322265625,-0.406402587890625,-0.1378021240234375,-0.066192626953125
1783003153880854000,3.56485400390625,-0.4205322265625,-0.150787353515625,-0.0695343017578125
1783003153890906000,3.574906005859375,-0.434722900390625,-0.1613616943359375,-0.0698699951171875
1783003153900958000,3.5849580078125,-0.4498291015625,-0.165557861328125,-0.079071044921875
1783003153911010000,3.595010009765625,-0.4698028564453125,-0.1695404052734375,-0.0811004638671875
1783003153921062000,3.605061767578125,-0.503387451171875,-0.177276611328125,-0.06878662109375
1783003153931113000,3.615113037109375,-0.527801513671875,-0.1726226806640625,-0.0754852294921875
1783003153941165300,3.625165283203125,-0.5202789306640625,-0.1562347412109375,-0.0948638916015625
1783003153951217200,3.635217041015625,-0.514678955078125,-0.1339874267578125,-0.1106719970703125
1783003153961269200,3.645269287109375,-0.5099029541015625,-0.1204681396484375,-0.09527587890625
1783003153971321000,3.655321044921875,-0.509185791015625,-0.1258697509765625,-0.0727386474609375
1783003153981373200,3.665373291015625,-0.517852783203125,-0.1393585205078125,-0.050048828125
1783003153991424000,3.675424072265625,-0.552734375,-0.1531219482421875,-0.0251312255859375
1783003154001476000,3.68547607421875,-0.62982177734375,-0.1754302978515625,0.0019073486328125
1783003154011528000,3.69552783203125,-0.73504638671875,-0.183135986328125,0.0411529541015625
1783003154021580000,3.705580078125,-0.84002685546875,-0.1561279296875,0.0236053466796875
1783003154031632100,3.715632080078125,-0.975616455078125,-0.091644287109375,-0.0169830322265625
1783003154041683200,3.72568310546875,-1.0890960693359375,0.0001068115234375,-0.0178680419921875
1783003154051735000,3.735735107421875,-1.16766357421875,0.1311492919921875,-0.009185791015625
1783003154061787100,3.745787109375,-1.192474365234375,0.2482452392578125,-0.027374267578125
1783003154071839000,3.7558388671875,-1.2523040771484375,0.295745849609375,-0.041656494140625
1783003154081891000,3.76589111328125,-1.415313720703125,0.205169677734375,0.009918212890625
1783003154091942100,3.775942138671875,-1.68682861328125,0.0008392333984375,0.0979766845703125
1783003154101994000,3.785993896484375,-2.0174713134765625,-0.2196502685546875,0.2435302734375
1783003154112046000,3.796046142578125,-2.240509033203125,-0.350006103515625,0.3528594970703125
1783003154122098200,3.80609814453125,-2.3588104248046875,-0.2658843994140625,0.319244384765625
1783003154132150300,3.816150390625,-2.4355316162109375,-0.0645904541015625,0.1858978271484375
1783003154142201000,3.826201171875,-2.4468536376953125,0.1048126220703125,-0.0092620849609375
1783003154152253200,3.836253173828125,-2.4889068603515625,0.218597412109375,-0.1075439453125
1783003154162305000,3.846304931640625,-2.4954071044921875,0.2288360595703125,-0.1473388671875
1783003154172357000,3.856357177734375,-2.4510040283203125,0.188751220703125,-0.171417236328125
1783003154182409000,3.866408935546875,-2.3318328857421875,0.1869659423828125,-0.16375732421875
1783003154192460000,3.8764599609375,-2.0958251953125,0.1873626708984375,-0.1652069091796875
1783003154202512100,3.88651220703125,-1.8293609619140625,0.133331298828125,-0.1945343017578125
1783003154212564000,3.89656396484375,-1.5634765625,0.047332763671875,-0.1876678466796875
1783003154222616300,3.9066162109375,-1.3220367431640625,-0.0249481201171875,-0.1850738525390625
1783003154232668200,3.916668212890625,-1.1077423095703125,-0.0364837646484375,-0.195220947265625
1783003154242719200,3.92671923828125,-0.95501708984375,-0.0260162353515625,-0.2073974609375
1783003154252771000,3.93677099609375,-0.9168701171875,-0.0457305908203125,-0.18060302734375
1783003154262823200,3.9468232421875,-1.089508056640625,-0.14971923828125,-0.0782928466796875
1783003154272875000,3.956875,-1.3802337646484375,-0.29815673828125,0.11016845703125
1783003154282927000,3.966927001953125,-1.5711822509765625,-0.4019622802734375,0.2386932373046875
1783003154292979000,3.97697900390625,-1.666351318359375,-0.2996063232421875,0.2102508544921875
1783003154303030000,3.987030029296875,-1.675506591796875,-0.0384521484375,0.173797607421875
1783003154313081900,3.997081787109375,-1.58319091796875,0.112213134765625,0.1739349365234375
1783003154323134200,4.00713427734375,-1.47906494140625,0.1182403564453125,0.1548309326171875
1783003154333186000,4.01718603515625,-1.326873779296875,0.068206787109375,0.1285400390625
1783003154343238100,4.027238037109375,-1.151214599609375,0.0110626220703125,0.1092987060546875
1783003154353289200,4.037289306640625,-0.95489501953125,-0.0554656982421875,0.065673828125
1783003154363341000,4.047341064453125,-0.7421112060546875,-0.1361236572265625,-0.0038299560546875
1783003154373393200,4.05739306640625,-0.5586090087890625,-0.2038421630859375,-0.0615692138671875
1783003154383445000,4.067445068359375,-0.4202117919921875,-0.2757568359375,-0.09588623046875
1783003154393497000,4.0774970703125,-0.3138427734375,-0.34228515625,-0.1163177490234375
1783003154403548000,4.0875478515625,-0.246429443359375,-0.377288818359375,-0.1231842041015625
1783003154413600300,4.097600341796875,-0.20294189453125,-0.373992919921875,-0.1383819580078125
1783003154423652000,4.107652099609375,-0.1718902587890625,-0.3380126953125,-0.1346435546875
1783003154433704200,4.1177041015625,-0.1663360595703125,-0.299224853515625,-0.14300537109375
1783003154443756000,4.127756103515625,-0.1677093505859375,-0.2793426513671875,-0.1266021728515625
1783003154453807000,4.13780712890625,-0.1765289306640625,-0.281005859375,-0.09234619140625
1783003154463859200,4.147859130859375,-0.186309814453125,-0.282257080078125,-0.07958984375
1783003154473911000,4.1579111328125,-0.19586181640625,-0.267486572265625,-0.0833282470703125
1783003154483963100,4.167963134765625,-0.2048187255859375,-0.244781494140625,-0.1024627685546875
1783003154494015000,4.178014892578125,-0.21759033203125,-0.2164459228515625,-0.1125335693359375
1783003154504066000,4.188066162109375,-0.234771728515625,-0.2012786865234375,-0.1177520751953125
1783003154514118100,4.1981181640625,-0.2552642822265625,-0.209808349609375,-0.1358642578125
1783003154524170200,4.208170166015625,-0.28643798828125,-0.1932373046875,-0.1525115966796875
1783003154534222000,4.21822216796875,-0.3508758544921875,-0.1579437255859375,-0.1532440185546875
1783003154544274200,4.228274169921875,-0.443817138671875,-0.14654541015625,-0.1282958984375
1783003154554325000,4.238324951171875,-0.5173797607421875,-0.151275634765625,-0.0944366455078125
1783003154564377000,4.248377197265625,-0.560546875,-0.1470947265625,-0.12066650390625
1783003154574429000,4.258428955078125,-0.55963134765625,-0.12640380859375,-0.13372802734375
1783003154584481000,4.26848095703125,-0.57147216796875,-0.116119384765625,-0.134979248046875
1783003154594533000,4.278533203125,-0.6651763916015625,-0.135528564453125,-0.10504150390625
1783003154604585200,4.288585205078125,-0.772369384765625,-0.140472412109375,-0.08953857421875
1783003154614636300,4.29863623046875,-0.85302734375,-0.1029052734375,-0.1299591064453125
1783003154624688000,4.308688232421875,-0.92486572265625,-0.0310821533203125,-0.1793212890625
1783003154634740200,4.318740234375,-1.0070648193359375,0.0430755615234375,-0.1589508056640625
1783003154644792000,4.3287919921875,-1.0249481201171875,0.089630126953125,-0.125762939453125
1783003154654844200,4.33884423828125,-0.9525909423828125,0.05328369140625,-0.117095947265625
1783003154664895200,4.348895263671875,-0.933441162109375,-0.07843017578125,-0.0561981201171875
1783003154674947300,4.358947265625,-1.0181732177734375,-0.342132568359375,0.0975341796875
1783003154684999200,4.368999267578125,-1.2138214111328125,-0.7368621826171875,0.2573699951171875
1783003154695051300,4.37905126953125,-1.49334716796875,-1.107269287109375,0.3737335205078125
1783003154705103000,4.38910302734375,-1.7631988525390625,-1.2785491943359375,0.3951263427734375
1783003154715154200,4.399154296875,-1.9944610595703125,-1.219573974609375,0.3209228515625
1783003154725206000,4.4092060546875,-2.070098876953125,-1.0577239990234375,0.140625
1783003154735258000,4.419258056640625,-1.9953155517578125,-0.837738037109375,-0.0422515869140625
1783003154745310200,4.429310302734375,-1.8884124755859375,-0.714385986328125,-0.13360595703125
1783003154755362300,4.4393623046875,-1.8192596435546875,-0.8739166259765625,-0.0945281982421875
1783003154765413400,4.449413330078125,-1.6797332763671875,-1.2321319580078125,0.0310211181640625
1783003154775465200,4.45946533203125,-1.4772796630859375,-1.543792724609375,0.1703643798828125
1783003154785517300,4.469517333984375,-1.2890625,-1.711517333984375,0.2529296875
1783003154795569200,4.479569091796875,-1.0745391845703125,-1.7351531982421875,0.22723388671875
1783003154805621200,4.489621337890625,-0.8866424560546875,-1.58868408203125,0.1295166015625
1783003154815672000,4.499672119140625,-0.75482177734375,-1.3881683349609375,-0.000335693359375
1783003154825724200,4.50972412109375,-0.6483306884765625,-1.21490478515625,-0.10638427734375
1783003154835776300,4.5197763671875,-0.5746917724609375,-1.05145263671875,-0.1848297119140625
1783003154845828400,4.529828369140625,-0.5753173828125,-0.8886260986328125,-0.2223358154296875
1783003154855880200,4.539880126953125,-0.675750732421875,-0.724700927734375,-0.22735595703125
1783003154865931300,4.54993115234375,-0.7512969970703125,-0.552947998046875,-0.2411346435546875
1783003154875983400,4.5599833984375,-0.803497314453125,-0.3721160888671875,-0.26495361328125
1783003154886035200,4.57003515625,-0.8176116943359375,-0.207611083984375,-0.28546142578125
1783003154896087300,4.58008740234375,-0.7922821044921875,-0.0681610107421875,-0.3231353759765625
1783003154906139100,4.59013916015625,-0.7264556884765625,0.0349273681640625,-0.339752197265625
1783003154916190200,4.600190185546875,-0.6543121337890625,0.06488037109375,-0.29571533203125
1783003154926242000,4.610241943359375,-0.5761871337890625,0.0014801025390625,-0.237091064453125
1783003154936294400,4.62029443359375,-0.485870361328125,-0.0681610107421875,-0.2162628173828125
1783003154946346200,4.63034619140625,-0.401702880859375,-0.0962677001953125,-0.2017974853515625
1783003154956398300,4.6403984375,-0.3445281982421875,-0.132965087890625,-0.1762847900390625
1783003154966450200,4.6504501953125,-0.3042755126953125,-0.1941070556640625,-0.1474151611328125
1783003154976501200,4.660501220703125,-0.2650604248046875,-0.233856201171875,-0.1371612548828125
1783003154986553000,4.670552978515625,-0.2351531982421875,-0.2343902587890625,-0.13848876953125
1783003154996605200,4.680605224609375,-0.2302398681640625,-0.2324981689453125,-0.1463775634765625
1783003155006657000,4.690656982421875,-0.2428131103515625,-0.2343292236328125,-0.1242828369140625
1783003155016709400,4.70070947265625,-0.2499542236328125,-0.23895263671875,-0.108551025390625
1783003155026760200,4.71076025390625,-0.29449462890625,-0.22344970703125,-0.1067047119140625
1783003155036812300,4.720812255859375,-0.334930419921875,-0.1985626220703125,-0.10693359375
1783003155046864400,4.730864501953125,-0.3414154052734375,-0.1860504150390625,-0.1124114990234375
1783003155056916200,4.740916259765625,-0.38037109375,-0.178375244140625,-0.0869903564453125
1783003155066968300,4.75096826171875,-0.412933349609375,-0.1990203857421875,-0.044158935546875
1783003155077019100,4.76101904296875,-0.410369873046875,-0.2332305908203125,-0.026153564453125
1783003155087071200,4.7710712890625,-0.396636962890625,-0.2425537109375,-0.0278778076171875
1783003155097123000,4.781123046875,-0.37420654296875,-0.2410736083984375,-0.032684326171875
1783003155107175200,4.791175048828125,-0.3738555908203125,-0.2512359619140625,-0.0312957763671875
1783003155117227300,4.801227294921875,-0.4107666015625,-0.263336181640625,-0.0301666259765625
1783003155127278300,4.8112783203125,-0.4462127685546875,-0.2522735595703125,-0.0461273193359375
1783003155137330200,4.821330078125,-0.4827728271484375,-0.2221527099609375,-0.0666351318359375
1783003155147382300,4.83138232421875,-0.5429534912109375,-0.1895904541015625,-0.06341552734375
1783003155157434000,4.84143408203125,-0.58074951171875,-0.1847686767578125,-0.0384521484375
1783003155167486200,4.851486328125,-0.605072021484375,-0.2240753173828125,-0.02740478515625
1783003155177537300,4.861537353515625,-0.6173858642578125,-0.235931396484375,-0.0312042236328125
1783003155187589000,4.871589111328125,-0.645751953125,-0.2343597412109375,-0.029754638671875
1783003155197641200,4.88164111328125,-0.7274627685546875,-0.2415924072265625,-0.0388946533203125
1783003155207693000,4.891693115234375,-0.8774261474609375,-0.227142333984375,-0.046051025390625
1783003155217745400,4.901745361328125,-1.04266357421875,-0.2171173095703125,-0.06494140625
1783003155227796200,4.911796142578125,-1.1829833984375,-0.2049560546875,-0.099822998046875
1783003155237848300,4.921848388671875,-1.222503662109375,-0.1487274169921875,-0.125152587890625
1783003155247900200,4.931900146484375,-1.19573974609375,-0.0971832275390625,-0.1209259033203125
1783003155257952300,4.9419521484375,-1.2257232666015625,-0.1293182373046875,-0.030517578125
1783003155268004000,4.952004150390625,-1.3343505859375,-0.2495880126953125,0.0654144287109375
1783003155278055200,4.96205517578125,-1.4583282470703125,-0.389984130859375,0.099517822265625
1783003155288107300,4.972107177734375,-1.5935821533203125,-0.4278717041015625,0.0196075439453125
1783003155298159000,4.9821591796875,-1.658935546875,-0.4568939208984375,-0.0400238037109375
1783003155308211200,4.992211181640625,-1.7150726318359375,-0.576202392578125,-0.0970611572265625
1783003155318263300,5.00226318359375,-1.7278289794921875,-0.7024993896484375,-0.148284912109375
1783003155328314400,5.012314453125,-1.746856689453125,-0.8008880615234375,-0.174407958984375
1783003155338366200,5.0223662109375,-1.7437744140625,-0.8559722900390625,-0.199249267578125
1783003155348418300,5.032418212890625,-1.728057861328125,-0.8719482421875,-0.215545654296875
1783003155358470100,5.04247021484375,-1.72393798828125,-0.9433441162109375,-0.136871337890625
1783003155368522200,5.052522216796875,-1.6828155517578125,-1.1277008056640625,-0.0258636474609375
1783003155378573000,5.062572998046875,-1.678314208984375,-1.302337646484375,0.0964508056640625
1783003155388625200,5.072625244140625,-1.6502532958984375,-1.411773681640625,0.1275787353515625
1783003155398677000,5.082677001953125,-1.595428466796875,-1.493255615234375,0.11798095703125
1783003155408729300,5.092729248046875,-1.5802154541015625,-1.547760009765625,0.06512451171875
1783003155418781200,5.10278125,-1.5092926025390625,-1.467529296875,-0.05572509765625
1783003155428832300,5.112832275390625,-1.323089599609375,-1.2959442138671875,-0.1945648193359375
1783003155438884400,5.12288427734375,-1.1497650146484375,-1.1145172119140625,-0.289093017578125
1783003155448936200,5.132936279296875,-1.035552978515625,-0.9708251953125,-0.328033447265625
1783003155458988300,5.14298828125,-0.9535369873046875,-0.8822174072265625,-0.3026885986328125
1783003155469040000,5.1530400390625,-0.89764404296875,-0.8067626953125,-0.2553558349609375
1783003155479091200,5.16309130859375,-0.87298583984375,-0.6563720703125,-0.2093353271484375
1783003155489143000,5.17314306640625,-0.901031494140625,-0.454620361328125,-0.1887664794921875
1783003155499195400,5.1831953125,-1.0255126953125,-0.274383544921875,-0.1620025634765625
1783003155509247200,5.193247314453125,-1.0791015625,-0.19842529296875,-0.1280364990234375
1783003155519299300,5.20329931640625,-1.03173828125,-0.1761322021484375,-0.087738037109375
1783003155529350400,5.213350341796875,-0.9411468505859375,-0.0579833984375,-0.1388702392578125
1783003155539402200,5.22340234375,-0.9207611083984375,0.0543670654296875,-0.10906982421875
1783003155549454300,5.233454345703125,-0.7830352783203125,-0.0200042724609375,-0.1097869873046875
1783003155559506200,5.243506103515625,-0.6740570068359375,-0.119110107421875,-0.0871124267578125
1783003155569558000,5.25355810546875,-0.554779052734375,-0.201690673828125,-0.085052490234375
1783003155579609000,5.263609130859375,-0.416015625,-0.2372589111328125,-0.1336212158203125
1783003155589661200,5.2736611328125,-0.28857421875,-0.2385711669921875,-0.1677398681640625
1783003155599713300,5.28371337890625,-0.2083740234375,-0.269775390625,-0.1883544921875
1783003155609765400,5.293765380859375,-0.14569091796875,-0.2892303466796875,-0.198333740234375
1783003155619817200,5.303817138671875,-0.09783935546875,-0.265533447265625,-0.183258056640625
1783003155629868300,5.313868408203125,-0.08489990234375,-0.2661285400390625,-0.12713623046875
1783003155639920000,5.323920166015625,-0.092803955078125,-0.2899627685546875,-0.0596160888671875
1783003155649972200,5.33397216796875,-0.112091064453125,-0.2798614501953125,-0.005859375
1783003155660023800,5.34402392578125,-0.146087646484375,-0.2466583251953125,0.042755126953125
1783003155670076000,5.354075927734375,-0.186859130859375,-0.212738037109375,0.09033203125
1783003155680127000,5.364126953125,-0.196807861328125,-0.21368408203125,0.0905609130859375
1783003155690178800,5.3741787109375,-0.1910400390625,-0.2074127197265625,0.0667724609375
1783003155700231000,5.38423095703125,-0.1807098388671875,-0.1812896728515625,0.0434112548828125
1783003155710282800,5.39428271484375,-0.1493988037109375,-0.1576080322265625,-0.001800537109375
1783003155720334800,5.4043349609375,-0.12103271484375,-0.1436309814453125,-0.0538330078125
1783003155730385700,5.4143857421875,-0.107147216796875,-0.1510009765625,-0.063446044921875
1783003155740437800,5.424437744140625,-0.112060546875,-0.169830322265625,-0.061187744140625
1783003155750489600,5.434489501953125,-0.129058837890625,-0.172882080078125,-0.069854736328125
1783003155760542000,5.4445419921875,-0.1771087646484375,-0.170867919921875,-0.072998046875
1783003155770593800,5.45459375,-0.2359466552734375,-0.18450927734375,-0.052032470703125
1783003155780644900,5.464644775390625,-0.290252685546875,-0.192169189453125,-0.0264892578125
1783003155790697000,5.474697021484375,-0.3372650146484375,-0.1568145751953125,-0.003448486328125
1783003155800748800,5.484748779296875,-0.4058380126953125,-0.1060791015625,0.01641845703125
1783003155810801000,5.49480078125,-0.4874267578125,-0.0964202880859375,0.0044097900390625
1783003155820852700,5.504852783203125,-0.5489044189453125,-0.12841796875,0.0022735595703125
1783003155830903800,5.51490380859375,-0.6917724609375,-0.1418304443359375,-0.0149688720703125
1783003155840955600,5.52495556640625,-0.8310546875,-0.1582183837890625,-0.050567626953125
1783003155851007700,5.5350078125,-0.9152374267578125,-0.216400146484375,-0.055145263671875
1783003155861059800,5.545059814453125,-0.974151611328125,-0.291473388671875,-0.04547119140625
1783003155871112000,5.55511181640625,-1.0394439697265625,-0.399658203125,-0.004669189453125
1783003155881163000,5.5651630859375,-1.1300048828125,-0.5540618896484375,0.0900115966796875
1783003155891214800,5.57521484375,-1.406585693359375,-0.6851043701171875,0.18560791015625
1783003155901266700,5.5852666015625,-1.717132568359375,-0.77734375,0.2232818603515625
1783003155911318800,5.59531884765625,-2.0036773681640625,-0.859954833984375,0.1616058349609375
1783003155921370600,5.60537060546875,-2.1592254638671875,-0.9907989501953125,0.0605010986328125
1783003155931421700,5.615421630859375,-2.2373504638671875,-1.07537841796875,-0.0486907958984375
1783003155941473800,5.625473876953125,-2.2715606689453125,-1.024383544921875,-0.199066162109375
1783003155951525600,5.635525634765625,-2.2985076904296875,-0.9616241455078125,-0.2719268798828125
1783003155961578000,5.645577880859375,-2.2786712646484375,-1.04278564453125,-0.3549957275390625
1783003155971629800,5.6556298828125,-2.228271484375,-1.31683349609375,-0.44659423828125
1783003155981681000,5.665680908203125,-2.1392822265625,-1.4821014404296875,-0.3565521240234375
1783003155991732700,5.675732666015625,-2.04150390625,-1.554046630859375,-0.23541259765625
1783003156001784800,5.685784912109375,-1.993011474609375,-1.6230316162109375,-0.1031951904296875
1783003156011836700,5.695836669921875,-1.8358154296875,-1.5916290283203125,0.0205078125
1783003156021888800,5.705888671875,-1.645965576171875,-1.467132568359375,0.1040496826171875
1783003156031939800,5.71593994140625,-1.482818603515625,-1.4030914306640625,0.1273193359375
1783003156041991700,5.72599169921875,-1.3253173828125,-1.2819061279296875,0.122711181640625
1783003156052044000,5.7360439453125,-1.225189208984375,-1.0892333984375,0.1274871826171875
1783003156062096000,5.746095947265625,-1.216064453125,-0.9286346435546875,0.1287841796875
1783003156072148000,5.75614794921875,-1.265045166015625,-0.7995452880859375,0.081451416015625
1783003156082198800,5.76619873046875,-1.2477264404296875,-0.6684417724609375,-0.0001373291015625
1783003156092251000,5.7762509765625,-1.2237396240234375,-0.5338134765625,-0.04766845703125
1783003156102302700,5.786302734375,-1.1611328125,-0.39971923828125,-0.09869384765625
1783003156112354800,5.796354736328125,-0.9830169677734375,-0.28564453125,-0.1781158447265625
1783003156122406700,5.80640673828125,-0.7760467529296875,-0.1921234130859375,-0.2649383544921875
1783003156132457700,5.816457763671875,-0.579071044921875,-0.1354827880859375,-0.2912139892578125
1783003156142509800,5.826509765625,-0.4215545654296875,-0.1403961181640625,-0.289031982421875
1783003156152562000,5.83656201171875,-0.3052520751953125,-0.1802978515625,-0.2545318603515625
1783003156162613800,5.84661376953125,-0.2460479736328125,-0.2418060302734375,-0.202362060546875
1783003156172665900,5.856665771484375,-0.277801513671875,-0.33160400390625,-0.13824462890625
1783003156182717000,5.866717041015625,-0.3803558349609375,-0.35980224609375,-0.09527587890625
1783003156192768800,5.876768798828125,-0.4179229736328125,-0.2775726318359375,-0.0376129150390625
1783003156202820900,5.88682080078125,-0.3402252197265625,-0.1912078857421875,-0.0023040771484375
1783003156212872700,5.896872802734375,-0.303924560546875,-0.1876678466796875,-0.0389404296875
1783003156222924800,5.9069248046875,-0.303802490234375,-0.2242584228515625,-0.0585174560546875
1783003156232975600,5.9169755859375,-0.30377197265625,-0.2251129150390625,-0.0252227783203125
1783003156243027700,5.92702783203125,-0.2508392333984375,-0.2009735107421875,0.0502166748046875
1783003156253079800,5.937079833984375,-0.192596435546875,-0.2143402099609375,0.1055145263671875
1783003156263132000,5.9471318359375,-0.155914306640625,-0.2003631591796875,0.0854949951171875
1783003156273183700,5.957183837890625,-0.182403564453125,-0.140899658203125,0.1008148193359375
1783003156283234800,5.96723486328125,-0.169708251953125,-0.1523284912109375,0.1364898681640625
1783003156293287000,5.977286865234375,-0.2073211669921875,-0.1974639892578125,0.1088409423828125
1783003156303338800,5.9873388671875,-0.2330322265625,-0.1676025390625,0.07318115234375
1783003156313390800,5.997390869140625,-0.2451934814453125,-0.0803070068359375,0.02288818359375
1783003156323442700,6.007442626953125,-0.2809906005859375,-0.0272216796875,-0.0562744140625
1783003156333493800,6.01749365234375,-0.3104705810546875,-0.01824951171875,-0.078887939453125
1783003156343545900,6.0275458984375,-0.3201904296875,-0.0403594970703125,-0.06121826171875
1783003156353598000,6.037597900390625,-0.3470001220703125,-0.067474365234375,0.0018310546875
1783003156363649800,6.04764990234375,-0.3217926025390625,-0.094696044921875,0.0831451416015625
1783003156373702000,6.057701904296875,-0.2833709716796875,-0.102691650390625,0.1224517822265625
1783003156383752700,6.067752685546875,-0.2847900390625,-0.09173583984375,0.125732421875
1783003156393804800,6.0778046875,-0.2984619140625,-0.070648193359375,0.1510009765625
1783003156403856600,6.087856689453125,-0.302276611328125,-0.0773773193359375,0.1080169677734375
1783003156413908700,6.09790869140625,-0.3406829833984375,-0.1110076904296875,0.049957275390625
1783003156423960600,6.107960693359375,-0.3901519775390625,-0.1458282470703125,0.04754638671875
1783003156434011600,6.11801171875,-0.4996490478515625,-0.135284423828125,0.000244140625
1783003156444064000,6.12806396484375,-0.6481170654296875,-0.10516357421875,-0.007110595703125
1783003156454115800,6.13811572265625,-0.693450927734375,-0.1931915283203125,0.029144287109375
1783003156464168000,6.14816796875,-0.585113525390625,-0.4949951171875,0.1180877685546875
1783003156474218800,6.15821875,-0.4679718017578125,-0.770111083984375,0.1905059814453125
1783003156484270800,6.168270751953125,-0.5935516357421875,-0.824920654296875,0.1951446533203125
1783003156494322700,6.17832275390625,-0.8545684814453125,-0.919281005859375,0.2181243896484375
1783003156504374800,6.188374755859375,-0.5562744140625,-1.06402587890625,0.23712158203125
1783003156514426600,6.198426513671875,-1.1552276611328125,-0.9960174560546875,-0.102203369140625
1783003156524477700,6.208477783203125,-1.2452239990234375,-1.0041656494140625,-0.090240478515625
1783003156534529800,6.21852978515625,-1.2828216552734375,-1.04376220703125,-0.1154937744140625
1783003156544582000,6.228581787109375,-1.3746337890625,-1.0706024169921875,-0.187408447265625
1783003156554633700,6.2386337890625,-1.262054443359375,-1.17962646484375,-0.1920013427734375
1783003156564685800,6.248685791015625,-1.244110107421875,-1.173095703125,-0.180145263671875
1783003156574737000,6.25873681640625,-1.2545928955078125,-1.190338134765625,-0.1068115234375
1783003156584788700,6.268788818359375,-1.2017669677734375,-1.3070831298828125,-0.126678466796875
1783003156594840800,6.2788408203125,-1.285430908203125,-1.3383331298828125,-0.165130615234375
1783003156604892700,6.288892578125,-1.3052825927734375,-1.2719268798828125,-0.2142333984375
1783003156614944800,6.29894482421875,-1.4351654052734375,-1.2516021728515625,-0.29705810546875
1783003156624995600,6.30899560546875,-1.6632843017578125,-1.2728424072265625,-0.3686676025390625
1783003156635048000,6.3190478515625,-1.7511138916015625,-1.167144775390625,-0.352447509765625
1783003156645099800,6.329099853515625,-1.7520294189453125,-0.9806365966796875,-0.333648681640625
1783003156655156000,6.339156005859375,-1.6792449951171875,-0.8582305908203125,-0.3526611328125
1783003156665207800,6.349207763671875,-1.5734405517578125,-0.73199462890625,-0.34967041015625
1783003156675259000,6.3592587890625,-1.44964599609375,-0.6135101318359375,-0.28350830078125
1783003156685310700,6.369310791015625,-1.2564544677734375,-0.5064849853515625,-0.207916259765625
1783003156695362800,6.37936279296875,-1.0948028564453125,-0.4310302734375,-0.1101531982421875
1783003156705414700,6.38941455078125,-0.9478302001953125,-0.455718994140625,-0.0205535888671875
1783003156715466800,6.399466796875,-0.81646728515625,-0.510711669921875,0.00494384765625
1783003156725517800,6.409517822265625,-0.736663818359375,-0.467315673828125,-0.0019378662109375
1783003156735569700,6.419569580078125,-0.6834716796875,-0.3779144287109375,-0.0193634033203125
1783003156745622000,6.4296220703125,-0.660888671875,-0.3533477783203125,-0.0908203125
1783003156755673900,6.439673828125,-0.6639862060546875,-0.3423919677734375,-0.168243408203125
1783003156765726000,6.449725830078125,-0.6745147705078125,-0.2913818359375,-0.1851654052734375
1783003156775776800,6.45977685546875,-0.690399169921875,-0.2527008056640625,-0.1717071533203125
1783003156785828900,6.469828857421875,-0.672088623046875,-0.2272186279296875,-0.13848876953125
1783003156795880700,6.479880615234375,-0.610809326171875,-0.17083740234375,-0.1079559326171875
1783003156805932800,6.489932861328125,-0.589630126953125,-0.1060638427734375,-0.0859222412109375
1783003156815984600,6.499984619140625,-0.5879974365234375,-0.1107635498046875,-0.0261077880859375
1783003156826035700,6.51003564453125,-0.591644287109375,-0.1734771728515625,0.0162200927734375
1783003156836087800,6.520087890625,-0.555877685546875,-0.19879150390625,0.0083465576171875
1783003156846140000,6.530139892578125,-0.539886474609375,-0.176605224609375,-0.03619384765625
1783003156856192000,6.54019189453125,-0.5523529052734375,-0.1657867431640625,-0.069244384765625
1783003156866243800,6.550243896484375,-0.5670928955078125,-0.192535400390625,-0.0744171142578125
1783003156876295000,6.560294921875,-0.612030029296875,-0.2131805419921875,-0.055419921875
1783003156886346800,6.5703466796875,-0.6859130859375,-0.2047882080078125,-0.02490234375
1783003156896398800,6.58039892578125,-0.7299346923828125,-0.2278594970703125,-0.0028076171875
1783003156906450700,6.59045068359375,-0.7224273681640625,-0.2425079345703125,-0.0063629150390625
1783003156916501800,6.600501708984375,-0.7511749267578125,-0.2354736328125,-0.0191497802734375
1783003156926553600,6.6105537109375,-0.7943878173828125,-0.2444305419921875,0.0160980224609375
1783003156936605700,6.620605712890625,-0.806182861328125,-0.3310546875,0.0797576904296875
1783003156946657800,6.63065771484375,-0.80279541015625,-0.45550537109375,0.11956787109375
1783003156956710000,6.6407099609375,-0.804595947265625,-0.5792083740234375,0.125701904296875
1783003156966761700,6.65076171875,-0.8118133544921875,-0.6996612548828125,0.16162109375
1783003156976812800,6.660812744140625,-0.8402557373046875,-0.763153076171875,0.1377105712890625
1783003156986865000,6.670864990234375,-0.9455718994140625,-0.6904754638671875,0.04248046875
1783003156996916700,6.680916748046875,-1.069061279296875,-0.5720367431640625,-0.070587158203125
1783003157006968800,6.69096875,-1.19647216796875,-0.4806060791015625,-0.136444091796875
1783003157017019600,6.70101953125,-1.2680511474609375,-0.3792572021484375,-0.177154541015625
1783003157027071700,6.71107177734375,-1.28472900390625,-0.2714080810546875,-0.1802825927734375
1783003157037123800,6.721123779296875,-1.29766845703125,-0.1851959228515625,-0.1818389892578125
1783003157047176000,6.731176025390625,-1.3421783447265625,-0.108245849609375,-0.155975341796875
1783003157057227800,6.741227783203125,-1.3251800537109375,-0.09942626953125,-0.11328125
1783003157067278800,6.75127880859375,-1.2813262939453125,-0.1584930419921875,-0.1154022216796875
1783003157077331000,6.7613310546875,-1.257232666015625,-0.231231689453125,-0.1343536376953125
1783003157087382800,6.7713828125,-1.18402099609375,-0.288238525390625,-0.116790771484375
1783003157097435000,6.781434814453125,-1.1277008056640625,-0.356597900390625,-0.0918426513671875
1783003157107486700,6.79148681640625,-1.094024658203125,-0.4529266357421875,-0.0918426513671875
1783003157117537800,6.801537841796875,-1.0763702392578125,-0.5045928955078125,-0.098846435546875
1783003157127589600,6.811589599609375,-1.0988616943359375,-0.48883056640625,-0.031524658203125
1783003157137642000,6.82164208984375,-1.0969085693359375,-0.4335479736328125,0.050445556640625
1783003157147693800,6.83169384765625,-1.040863037109375,-0.3754730224609375,0.0760040283203125
1783003157157746000,6.841745849609375,-0.9575042724609375,-0.32177734375,0.0459136962890625
1783003157167796700,6.851796630859375,-0.8853302001953125,-0.264129638671875,0.0289764404296875
1783003157177848800,6.861848876953125,-0.8972930908203125,-0.25537109375,0.06060791015625
1783003157187900700,6.871900634765625,-0.8782806396484375,-0.3079376220703125,0.082611083984375
1783003157197952800,6.881952880859375,-0.84063720703125,-0.3275299072265625,0.1237030029296875
1783003157208004600,6.892004638671875,-0.7726287841796875,-0.32781982421875,0.14312744140625
1783003157218055700,6.9020556640625,-0.7940521240234375,-0.3413848876953125,0.15789794921875
1783003157228107800,6.912107666015625,-0.810272216796875,-0.4085235595703125,0.1183624267578125
1783003157238160000,6.922159912109375,-0.8045196533203125,-0.4283447265625,0.1088409423828125
1783003157248212000,6.9322119140625,-0.84814453125,-0.44427490234375,0.1198883056640625
1783003157258263800,6.942263916015625,-0.8727264404296875,-0.4484405517578125,0.1542510986328125
1783003157268315000,6.95231494140625,-0.8699798583984375,-0.43817138671875,0.1142425537109375
1783003157278366700,6.96236669921875,-0.83343505859375,-0.419677734375,0.04443359375
1783003157288418800,6.972418701171875,-0.7946319580078125,-0.3583831787109375,0.035888671875
1783003157298470700,6.982470703125,-0.757598876953125,-0.2965545654296875,0.040252685546875
