time,seconds_elapsed,z,y,x
1783003150391620000,0.0756201171875,0.10592983663082123,0.20412108302116394,0.09586412459611893
1783003150401672200,0.085672119140625,0.10485312342643738,0.3300608992576599,0.020686019212007523
1783003150411724300,0.095724365234375,0.10218307375907898,0.4076744019985199,-0.10115952044725418
1783003150421776400,0.1057763671875,0.10888783633708954,0.43896177411079407,-0.23222699761390686
1783003150431827200,0.1158271484375,0.11990981549024582,0.4126470983028412,-0.32756319642066956
1783003150441879300,0.12587939453125,0.14564287662506104,0.3092738389968872,-0.38406985998153687
1783003150451931100,0.13593115234375,0.1712198704481125,0.09344357997179031,-0.44097310304641724
1783003150461983200,0.145983154296875,0.1935209035873413,-0.15287484228610992,-0.5090948939323425
1783003150472035000,0.15603515625,0.1894478052854538,-0.3447960317134857,-0.574334442615509
1783003150482086100,0.166086181640625,0.14228509366512299,-0.4343051314353943,-0.6063677668571472
1783003150492138200,0.17613818359375,0.1126885861158371,-0.3144743740558624,-0.5228136777877808
1783003150502190000,0.186190185546875,0.09929554909467697,-0.06519529968500137,-0.3413432538509369
1783003150512242400,0.196242431640625,0.04382684826850891,0.12578757107257843,-0.13946916162967682
1783003150522294300,0.206294189453125,-0.04347370192408562,0.21351289749145508,0.06099603325128555
1783003150532345300,0.216345458984375,-0.10378649830818176,0.24078360199928284,0.2787232995033264
1783003150542397200,0.226397216796875,-0.13576041162014008,0.24359482526779175,0.5359548330307007
1783003150552449300,0.23644921875,-0.16370026767253876,0.24491429328918457,0.6982686519622803
1783003150562501000,0.246501220703125,-0.16106905043125153,0.18065913021564484,0.7543836236000061
1783003150572553200,0.25655322265625,-0.1787310093641281,0.008314123377203941,0.7588450908660889
1783003150582604300,0.266604248046875,-0.2154107242822647,-0.1860276609659195,0.7303524613380432
1783003150592656100,0.27665625,-0.2478754222393036,-0.32093068957328796,0.6901587843894958
1783003150602708200,0.286708251953125,-0.22391043603420258,-0.40823495388031006,0.7086398005485535
1783003150612760300,0.29676025390625,-0.12792004644870758,-0.41726061701774597,0.8183616995811462
1783003150622812200,0.306812255859375,0.04190334677696228,-0.3554808795452118,0.9730298519134521
1783003150632864300,0.3168642578125,0.25729137659072876,-0.3497908413410187,1.0539319515228271
1783003150642915300,0.326915283203125,0.45932331681251526,-0.6443876028060913,0.9110606908798218
1783003150652967000,0.336966796875,0.5273030996322632,-0.8441240787506104,0.6681559085845947
1783003150663019000,0.34701904296875,0.40975621342658997,-1.0013967752456665,0.5738485455513
1783003150673070800,0.35707080078125,0.16109643876552582,-0.658894419670105,0.6511475443840027
1783003150683123000,0.367123046875,0.018281230702996254,0.49033868312835693,0.9488514065742493
1783003150693173800,0.377173828125,0.15088514983654022,1.8582271337509155,1.5311309099197388
1783003150703225900,0.387225830078125,0.5584359169006348,2.921773910522461,2.178859233856201
1783003150713277700,0.397277587890625,0.9689682126045227,2.0034661293029785,2.2292897701263428
1783003150723330000,0.407330078125,1.2613662481307983,0.763952910900116,1.788066029548645
1783003150733382000,0.4173818359375,1.4749037027359009,0.0569215789437294,1.3762891292572021
1783003150743433000,0.427432861328125,1.2578697204589844,-0.19754453003406525,0.7294882535934448
1783003150753485000,0.437485107421875,0.8485183119773865,0.09462005645036697,0.22217868268489838
1783003150763537000,0.447536865234375,0.43504977226257324,0.7122369408607483,0.23029598593711853
1783003150773589000,0.457589111328125,-0.08876058459281921,0.9890636205673218,0.5750628113746643
1783003150783640800,0.467640869140625,-0.47303658723831177,0.9464916586875916,1.1674869060516357
1783003150793692000,0.47769189453125,-0.5810719728469849,0.3772754669189453,1.7235265970230103
1783003150803743700,0.48774365234375,-0.4172087013721466,-0.3957973122596741,2.074556827545166
1783003150813796000,0.497796142578125,-0.04308722913265228,-0.835644006729126,2.2578091621398926
1783003150823848000,0.507847900390625,0.3760455846786499,-0.5996173620223999,2.150104284286499
1783003150833900000,0.517900146484375,0.8136062622070312,0.14465507864952087,1.7716562747955322
1783003150843951000,0.527951171875,1.3219722509384155,0.9973902702331543,1.1119422912597656
1783003150854003000,0.5380029296875,1.7897924184799194,1.587233543395996,0.3117353618144989
1783003150864055000,0.548054931640625,1.9289960861206055,1.6525225639343262,-0.4261895418167114
1783003150874107000,0.55810693359375,1.6744486093521118,1.4515358209609985,-0.7687733769416809
1783003150884159000,0.568158935546875,1.1650646924972534,1.298548698425293,-0.7555686235427856
1783003150894209800,0.578209716796875,0.5411873459815979,1.2967610359191895,-0.5902811884880066
1783003150904262000,0.588261962890625,-0.02312498353421688,1.4889254570007324,-0.4563199281692505
1783003150914314000,0.59831396484375,-0.4561445713043213,1.7059153318405151,-0.4215313196182251
1783003150924366000,0.608365966796875,-0.8152968883514404,1.7317447662353516,-0.5323680639266968
1783003150934418000,0.61841796875,-1.1278541088104248,1.5223557949066162,-0.7452979683876038
1783003150944469000,0.628468994140625,-1.4381107091903687,1.131685733795166,-0.9612646102905273
1783003150954520800,0.638520751953125,-1.6049644947052002,0.6863378286361694,-1.0693295001983643
1783003150964573000,0.648572998046875,-1.6096605062484741,0.31452295184135437,-1.0530340671539307
1783003150974624800,0.658624755859375,-1.4102827310562134,0.050889305770397186,-0.8454259634017944
1783003150984676900,0.6686767578125,-1.1382910013198853,-0.20147690176963806,-0.584318995475769
1783003150994728000,0.67872802734375,-0.8379120230674744,-0.470839262008667,-0.28970566391944885
1783003151004779800,0.68877978515625,-0.5064480900764465,-0.630055844783783,-0.023160267621278763
1783003151014832000,0.69883203125,-0.2245686948299408,-0.6450169086456299,0.14325368404388428
1783003151024884000,0.708884033203125,0.022887447848916054,-0.6477927565574646,0.19688761234283447
1783003151034936000,0.71893603515625,0.24748951196670532,-0.6144634485244751,0.24106648564338684
1783003151044988000,0.72898779296875,0.43958330154418945,-0.49906042218208313,0.23910826444625854
1783003151055039000,0.7390390625,0.5814532041549683,-0.41811344027519226,0.2246757447719574
1783003151065090800,0.7490908203125,0.6921179294586182,-0.436770498752594,0.257241427898407
1783003151075143000,0.759142822265625,0.7592923641204834,-0.5215739607810974,0.31221243739128113
1783003151085194800,0.76919482421875,0.8011194467544556,-0.6730758547782898,0.3670352101325989
1783003151095245800,0.779245849609375,0.8106520175933838,-0.8949814438819885,0.40293270349502563
1783003151105298000,0.7892978515625,0.817355215549469,-1.047443151473999,0.4214688241481781
1783003151115350000,0.79935009765625,0.8459304571151733,-1.0542646646499634,0.41035035252571106
1783003151125401900,0.80940185546875,0.9362057447433472,-0.8980960845947266,0.34745341539382935
1783003151135454000,0.819453857421875,1.1021939516067505,-0.5669040679931641,0.230581134557724
1783003151145505800,0.829505859375,1.295827031135559,-0.24433134496212006,0.15206103026866913
1783003151155556900,0.839556884765625,1.4043209552764893,-0.010447856038808823,0.1376630663871765
1783003151165609000,0.84960888671875,1.420883059501648,0.06510229408740997,0.12325270473957062
1783003151175660800,0.859660888671875,1.406141757965088,0.060663074254989624,0.07533924281597137
1783003151185713000,0.869712890625,1.373283863067627,0.11084315180778503,-0.0582830011844635
1783003151195765000,0.879764892578125,1.263545274734497,0.24953292310237885,-0.23244449496269226
1783003151205816000,0.889816162109375,1.0187933444976807,0.38351523876190186,-0.409550279378891
1783003151215868000,0.899867919921875,0.677923321723938,0.3527408540248871,-0.5513074994087219
1783003151225920000,0.909919921875,0.3447472155094147,0.2643958330154419,-0.48909467458724976
1783003151235971800,0.919971923828125,0.16189835965633392,0.46941977739334106,-0.27598732709884644
1783003151246024000,0.93002392578125,0.19055770337581635,0.775323748588562,0.16638928651809692
1783003151256075000,0.940074951171875,0.45671403408050537,1.1006851196289062,0.7798641324043274
1783003151266126800,0.950126953125,0.8345007300376892,1.1088404655456543,1.3070626258850098
1783003151276179000,0.960178955078125,1.0558772087097168,0.6007150411605835,1.5885788202285767
1783003151286231000,0.97023095703125,0.9231644868850708,-0.2445584237575531,1.6157445907592773
1783003151296283000,0.980282958984375,0.46089768409729004,-1.404085397720337,1.3673803806304932
1783003151306334000,0.990333984375,-0.2194824516773224,-2.574777364730835,0.921852707862854
1783003151316386000,1.000385986328125,-0.8600994348526001,-3.114372491836548,0.4082315266132355
1783003151326438000,1.01043798828125,-1.2286018133163452,-2.695405960083008,-0.16027426719665527
1783003151336490000,1.020489990234375,-1.1880881786346436,-1.4807597398757935,-0.6342307925224304
1783003151346541800,1.030541748046875,-0.7825454473495483,0.3387044370174408,-0.8066888451576233
1783003151356593000,1.040593017578125,-0.2021835595369339,2.1641323566436768,-0.6289077401161194
1783003151366644700,1.050644775390625,0.30917423963546753,3.227489471435547,-0.37117770314216614
1783003151376696800,1.06069677734375,0.6193280220031738,3.384995937347412,-0.2893033027648926
1783003151386749000,1.0707490234375,0.7305400371551514,2.663139581680298,-0.38753318786621094
1783003151396801000,1.080801025390625,0.6741809248924255,1.3432470560073853,-0.6304342746734619
1783003151406852000,1.09085205078125,0.46446922421455383,0.03720119222998619,-0.931086003780365
1783003151416904000,1.100904052734375,0.11560773104429245,-0.7139024138450623,-1.239543080329895
1783003151426956000,1.1109560546875,-0.3398769795894623,-0.940537691116333,-1.61338210105896
1783003151437008000,1.1210078125,-0.7496022582054138,-0.7334017753601074,-2.165208339691162
1783003151447060000,1.13106005859375,-1.0977582931518555,-0.04926527664065361,-2.8814284801483154
1783003151457110800,1.14111083984375,-1.2953428030014038,0.8770239353179932,-3.577502727508545
1783003151467163000,1.151162841796875,-1.23085355758667,1.5217094421386719,-4.109067916870117
1783003151477214700,1.161214599609375,-0.8669658899307251,1.7564563751220703,-4.350919723510742
1783003151487267000,1.17126708984375,-0.34557005763053894,1.5851471424102783,-4.221892356872559
1783003151497319000,1.18131884765625,0.10582147538661957,1.129242181777954,-3.725856065750122
1783003151507370000,1.191369873046875,0.3741599917411804,0.4476202428340912,-2.998903512954712
1783003151517422000,1.201422119140625,0.4363000988960266,-0.36633849143981934,-2.2684662342071533
1783003151527474000,1.211473876953125,0.3235280215740204,-1.0147594213485718,-1.6873170137405396
1783003151537526000,1.221526123046875,0.10479455441236496,-1.3629294633865356,-1.374691367149353
1783003151547577900,1.231577880859375,-0.15433502197265625,-1.4210727214813232,-1.3065074682235718
1783003151557629700,1.241629638671875,-0.39690324664115906,-1.2358951568603516,-1.3605124950408936
1783003151567680800,1.2516806640625,-0.5860183238983154,-0.9281386137008667,-1.4064797163009644
1783003151577733000,1.261733154296875,-0.6688512563705444,-0.640626847743988,-1.3862495422363281
1783003151587785000,1.271784912109375,-0.6698057055473328,-0.4437830150127411,-1.309978723526001
1783003151597837000,1.281837158203125,-0.6142492294311523,-0.34668391942977905,-1.1617765426635742
1783003151607888000,1.291887939453125,-0.5406993627548218,-0.19602304697036743,-0.9163657426834106
1783003151617940000,1.30193994140625,-0.4749056100845337,-0.03803907707333565,-0.5921604633331299
1783003151627991800,1.31199169921875,-0.40830180048942566,0.07536631077528,-0.26366543769836426
1783003151638044000,1.3220439453125,-0.320279985666275,0.11510934680700302,0.02873976156115532
1783003151648095700,1.332095703125,-0.2107103317975998,0.09058429300785065,0.2670269012451172
1783003151658148400,1.3421484375,-0.12624044716358185,-0.013520315289497375,0.4158240258693695
1783003151668199200,1.35219921875,-0.09185397624969482,-0.15587639808654785,0.5098730325698853
1783003151678251300,1.362251220703125,-0.08663943409919739,-0.2892076075077057,0.6162186861038208
1783003151688303400,1.372303466796875,-0.09930302202701569,-0.4472646117210388,0.7129055261611938
1783003151698355200,1.382355224609375,-0.1115989238023758,-0.6100395917892456,0.7614085674285889
1783003151708407000,1.392406982421875,-0.09622422605752945,-0.67397540807724,0.7326384782791138
1783003151718458000,1.4024580078125,-0.07983618974685669,-0.566058874130249,0.6713064312934875
1783003151728510200,1.41251025390625,-0.06857021898031235,-0.4710471034049988,0.601569414138794
1783003151738562000,1.42256201171875,-0.07285435497760773,-0.4264421761035919,0.5437974333763123
1783003151748614100,1.4326142578125,-0.026863157749176025,-0.3974938988685608,0.485955148935318
1783003151758666200,1.442666259765625,0.04859503358602524,-0.41280433535575867,0.4451267123222351
1783003151768717300,1.45271728515625,0.12778572738170624,-0.5353723168373108,0.5063589811325073
1783003151778769200,1.46276904296875,0.18704450130462646,-0.5025424957275391,0.7206215262413025
1783003151788821200,1.4728212890625,0.2059449553489685,-0.14369617402553558,1.070435881614685
1783003151798873000,1.482873046875,0.1767762303352356,0.4421651065349579,1.4671251773834229
1783003151808925200,1.49292529296875,0.14169734716415405,1.1416823863983154,1.8110812902450562
1783003151818976300,1.502976318359375,0.17110420763492584,1.7367000579833984,1.998806357383728
1783003151829028000,1.513028076171875,0.2369343489408493,1.8653852939605713,1.9116268157958984
1783003151839080200,1.523080078125,0.20690904557704926,1.2190301418304443,1.3814221620559692
1783003151849132000,1.533132080078125,-0.010119138285517693,-0.16107140481472015,0.4609812796115875
1783003151859184400,1.543184326171875,-0.29737216234207153,-1.523754596710205,-0.34977269172668457
1783003151869235200,1.553235107421875,-0.5951349139213562,-2.383978843688965,-0.7057201266288757
1783003151879287300,1.563287353515625,-0.7418021559715271,-2.6077358722686768,-0.47139009833335876
1783003151889339100,1.573339111328125,-0.6498069763183594,-2.2137482166290283,0.10319863259792328
1783003151899391200,1.58339111328125,-0.36300909519195557,-1.5905691385269165,0.582626461982727
1783003151909443000,1.593443115234375,0.016054607927799225,-0.9028685688972473,0.7014008164405823
1783003151919494100,1.603494140625,0.3968198299407959,-0.4542521834373474,0.5279479026794434
1783003151929546200,1.613546142578125,0.7646394371986389,-0.3327782154083252,0.24202243983745575
1783003151939598000,1.62359814453125,1.0871340036392212,-0.3194926381111145,-0.16726258397102356
1783003151949650200,1.633650146484375,1.251807689666748,-0.11918696761131287,-0.6953439712524414
1783003151959702300,1.643702392578125,1.095542550086975,0.33361443877220154,-1.3187257051467896
1783003151969753300,1.65375341796875,0.5283493995666504,0.764136552810669,-1.9760948419570923
1783003151979805200,1.66380517578125,-0.309758722782135,0.7623473405838013,-2.54049015045166
1783003151989857300,1.673857177734375,-1.2082527875900269,0.4656094014644623,-2.8755178451538086
1783003151999909000,1.6839091796875,-1.9429744482040405,-0.0338340662419796,-2.8786261081695557
1783003152009961200,1.693961181640625,-2.3262104988098145,-0.716846764087677,-2.558258533477783
1783003152020012000,1.704011962890625,-2.3789303302764893,-1.4697659015655518,-1.9954050779342651
1783003152030064000,1.714064208984375,-2.106631278991699,-2.0631420612335205,-1.3696330785751343
1783003152040116000,1.724115966796875,-1.620829701423645,-2.09918475151062,-1.0052028894424438
1783003152050168300,1.734168212890625,-1.0416558980941772,-1.6235637664794922,-0.9544237852096558
1783003152060220200,1.74422021484375,-0.47938740253448486,-0.8695020079612732,-1.0573465824127197
1783003152070271200,1.754271240234375,-0.03167860582470894,-0.06754377484321594,-1.134419322013855
1783003152080323300,1.7643232421875,0.2235785275697708,0.6317988038063049,-1.0344375371932983
1783003152090375200,1.774375244140625,0.3131781816482544,1.076818823814392,-0.776675820350647
1783003152100427300,1.78442724609375,0.26973268389701843,1.189797043800354,-0.42051711678504944
1783003152110479000,1.79447900390625,0.12482504546642303,1.037959098815918,0.003328944556415081
1783003152120530200,1.8045302734375,-0.08510513603687286,0.7074907422065735,0.42618656158447266
1783003152130582000,1.81458203125,-0.3275553286075592,0.31761887669563293,0.7452098727226257
1783003152140634000,1.824634033203125,-0.5867000222206116,-0.002609466901049018,0.9009976983070374
1783003152150686200,1.834686279296875,-0.8150333762168884,-0.1593596637248993,0.8737967014312744
1783003152160738300,1.84473828125,-0.9380727410316467,-0.13495789468288422,0.6788200736045837
1783003152170789000,1.8547890625,-0.9403191208839417,0.020828764885663986,0.4504452347755432
1783003152180841200,1.86484130859375,-0.842411458492279,0.27134543657302856,0.3161639869213104
1783003152190893000,1.87489306640625,-0.6664303541183472,0.45633259415626526,0.31728091835975647
1783003152200945200,1.884945068359375,-0.44882404804229736,0.4922906160354614,0.4601130783557892
1783003152210997000,1.8949970703125,-0.217192143201828,0.43245869874954224,0.6966758370399475
1783003152221049000,1.905049072265625,-0.017624037340283394,0.3118610680103302,0.9349955320358276
1783003152231100200,1.91510009765625,0.09523274004459381,0.08513844758272171,1.0601415634155273
1783003152241152300,1.92515234375,0.11132639646530151,-0.2173672318458557,1.0899994373321533
1783003152251204400,1.935204345703125,0.07622166723012924,-0.5012497901916504,1.0291815996170044
1783003152261256200,1.945256103515625,0.006182616110891104,-0.6364851593971252,0.8652323484420776
1783003152271308300,1.955308349609375,-0.08390706032514572,-0.6890338063240051,0.6597372889518738
1783003152281359000,1.965359130859375,-0.16340501606464386,-0.6518170237541199,0.4846930205821991
1783003152291411200,1.9754111328125,-0.1843465119600296,-0.6731654405593872,0.30869296193122864
1783003152301463000,1.985463134765625,-0.12833856046199799,-0.6588688492774963,0.08536215126514435
1783003152311515100,1.99551513671875,0.012644930742681026,-0.5435779094696045,-0.16330519318580627
1783003152321567000,2.00556689453125,0.26806145906448364,-0.3183751702308655,-0.36482319235801697
1783003152331618000,2.0156181640625,0.649623453617096,-0.024423694238066673,-0.29046082496643066
1783003152341670400,2.02567041015625,1.0745515823364258,0.15068191289901733,0.15829777717590332
1783003152351722200,2.03572216796875,1.344045639038086,-0.031757138669490814,0.9945236444473267
1783003152361774000,2.045774169921875,1.3514034748077393,-0.6933422088623047,1.9189878702163696
1783003152371826200,2.055826171875,1.1672616004943848,-1.6441192626953125,2.634026288986206
1783003152381877200,2.065877197265625,0.8345479965209961,-2.5792768001556396,2.8178117275238037
1783003152391929000,2.07592919921875,0.2863869369029999,-3.1957621574401855,2.104867696762085
1783003152401981200,2.085981201171875,-0.39167582988739014,-3.2294704914093018,0.6762155890464783
1783003152412033000,2.096032958984375,-1.0082764625549316,-2.377285957336426,-0.9150857329368591
1783003152422085400,2.10608544921875,-1.4304461479187012,-0.7463840246200562,-2.1913442611694336
1783003152432136000,2.116135986328125,-1.515328288078308,1.0776760578155518,-2.7622733116149902
1783003152442188300,2.126188232421875,-1.1079219579696655,2.4252467155456543,-2.5425736904144287
1783003152452240100,2.136240234375,-0.3316866457462311,3.0321478843688965,-1.8242424726486206
1783003152462292200,2.146292236328125,0.39324241876602173,2.9095122814178467,-1.2426658868789673
1783003152472344000,2.156343994140625,0.72849440574646,2.3269660472869873,-0.9982271790504456
1783003152482395100,2.16639501953125,0.7724404335021973,1.483840823173523,-0.857006847858429
1783003152492447200,2.176447265625,0.5763558745384216,0.5500420331954956,-0.6266114115715027
1783003152502499000,2.1864990234375,0.16907845437526703,-0.4209590554237366,-0.308185875415802
1783003152512551200,2.19655126953125,-0.42804646492004395,-1.2232115268707275,-0.13541890680789948
1783003152522603300,2.206603271484375,-1.1401408910751343,-1.3984522819519043,-0.45876383781433105
1783003152532654300,2.216654296875,-1.8553754091262817,-0.8139174580574036,-1.5430808067321777
1783003152542706200,2.2267060546875,-2.619731903076172,0.4799872636795044,-3.272671699523926
1783003152552758300,2.23675830078125,-3.3823952674865723,2.177610158920288,-5.080883979797363
1783003152562810000,2.24681005859375,-3.978081464767456,3.633335828781128,-6.3221588134765625
1783003152572862200,2.2568623046875,-4.279678821563721,4.309023380279541,-6.536749362945557
1783003152582913300,2.266913330078125,-4.1067118644714355,4.163622856140137,-5.626184940338135
1783003152592965000,2.276965087890625,-3.4862823486328125,3.2846481800079346,-4.072600364685059
1783003152603017200,2.287017333984375,-2.6247448921203613,1.864050030708313,-2.3730170726776123
1783003152613069300,2.2970693359375,-1.79458749294281,0.28057146072387695,-0.9104034304618835
1783003152623121200,2.30712109375,-1.186302661895752,-1.0784869194030762,0.12993748486042023
1783003152633173200,2.31717333984375,-0.6940264701843262,-1.9436931610107422,0.7636625170707703
1783003152643224300,2.327224365234375,-0.22716154158115387,-2.1227355003356934,1.0040256977081299
1783003152653276200,2.337276123046875,0.060856934636831284,-1.8568572998046875,0.8291454911231995
1783003152663328300,2.347328369140625,0.07431890070438385,-1.296716332435608,0.2540634572505951
1783003152673380000,2.357380126953125,-0.11245657503604889,-0.649943470954895,-0.6662451028823853
1783003152683432200,2.36743212890625,-0.27798572182655334,-0.15273576974868774,-1.6638336181640625
1783003152693483000,2.37748291015625,-0.33562716841697693,0.06036213040351868,-2.3940589427948
1783003152703535000,2.38753515625,-0.2426409274339676,-0.14472270011901855,-2.663511037826538
1783003152713587000,2.3975869140625,-0.010692383162677288,-0.5475521683692932,-2.396901845932007
1783003152723639000,2.40763916015625,0.2716810405254364,-1.0055210590362549,-1.7428364753723145
1783003152733691000,2.41769091796875,0.5286619663238525,-1.4386203289031982,-0.9064220190048218
1783003152743742000,2.427741943359375,0.70253986120224,-1.7619500160217285,-0.10450275242328644
1783003152753794300,2.437794189453125,0.8001449704170227,-1.8849228620529175,0.577416718006134
1783003152763846100,2.44784619140625,0.8322592973709106,-1.7399076223373413,1.0994001626968384
1783003152773898200,2.457898193359375,0.7788583636283875,-1.362605094909668,1.3472543954849243
1783003152783950000,2.4679501953125,0.6319465041160583,-0.8759644031524658,1.322283387184143
1783003152794001200,2.478001220703125,0.4272404909133911,-0.41615527868270874,1.1290148496627808
1783003152804053000,2.488052978515625,0.21276997029781342,-0.0628163293004036,0.8641193509101868
1783003152814105000,2.49810498046875,0.006761149503290653,0.1222296878695488,0.5617784261703491
1783003152824157000,2.508156982421875,-0.2130369246006012,0.11109064519405365,0.24642054736614227
1783003152834209300,2.518209228515625,-0.3678872287273407,0.12957271933555603,0.04982360079884529
1783003152844260000,2.528260009765625,-0.4060555100440979,0.17257070541381836,-0.011992258951067924
1783003152854312200,2.538312255859375,-0.3490782678127289,0.13821911811828613,0.07932007312774658
1783003152864364000,2.548364013671875,-0.21798346936702728,0.04187804460525513,0.26517453789711
1783003152874416000,2.558416015625,-0.054181765764951706,-0.08659551292657852,0.5643316507339478
1783003152884468000,2.568468017578125,0.12113997340202332,-0.26367121934890747,0.936669647693634
1783003152894519000,2.57851904296875,0.2675009071826935,-0.35725417733192444,1.2905479669570923
1783003152904571100,2.588571044921875,0.36373525857925415,-0.19030773639678955,1.5173912048339844
1783003152914623000,2.598623046875,0.4028832018375397,0.18926702439785004,1.5147781372070312
1783003152924675000,2.608675048828125,0.45689070224761963,0.49118244647979736,1.1471030712127686
1783003152934727200,2.61872705078125,0.5163547992706299,0.34678027033805847,0.2852495312690735
1783003152944778200,2.6287783203125,0.42262399196624756,-0.3971073627471924,-1.0526739358901978
1783003152954830000,2.638830078125,0.1044609472155571,-1.3923438787460327,-2.427382469177246
1783003152964882200,2.648882080078125,-0.27505606412887573,-2.0526680946350098,-3.2292141914367676
1783003152974934000,2.65893408203125,-0.6592274308204651,-2.27584171295166,-3.3319709300994873
1783003152984986000,2.668986083984375,-0.8895819783210754,-2.057305097579956,-2.810114622116089
1783003152995038000,2.679037841796875,-0.8565976619720459,-1.639955759048462,-1.8812668323516846
1783003153005089000,2.689089111328125,-0.5715997219085693,-1.0717614889144897,-0.8695248961448669
1783003153015141000,2.69914111328125,-0.20665454864501953,-0.5628745555877686,-0.3101298213005066
1783003153025193000,2.70919287109375,0.1446867436170578,-0.04968475177884102,-0.14903566241264343
1783003153035245000,2.7192451171875,0.4579162895679474,0.48882320523262024,-0.10540136694908142
1783003153045297200,2.729297119140625,0.63370680809021,0.7711424231529236,-0.26188403367996216
1783003153055348200,2.73934814453125,0.6179611086845398,0.9025973677635193,-0.6240859627723694
1783003153065400000,2.749400146484375,0.46405139565467834,1.0020127296447754,-0.9638912081718445
1783003153075452200,2.7594521484375,0.2026994228363037,1.0596344470977783,-1.1086221933364868
1783003153085504000,2.76950390625,-0.13308949768543243,1.0783826112747192,-1.0726515054702759
1783003153095556000,2.77955615234375,-0.5127145648002625,1.0936627388000488,-1.05083167552948
1783003153105607000,2.78960693359375,-0.8955284357070923,1.1768518686294556,-1.195897102355957
1783003153115659000,2.799658935546875,-1.2367782592773438,1.3099446296691895,-1.5186657905578613
1783003153125711000,2.809711181640625,-1.5427274703979492,1.4568589925765991,-1.9326822757720947
1783003153135763200,2.81976318359375,-1.7991318702697754,1.6334894895553589,-2.2471539974212646
1783003153145815000,2.82981494140625,-1.9285101890563965,1.7878074645996094,-2.3083112239837646
1783003153155866000,2.8398662109375,-1.8875257968902588,1.8526272773742676,-2.08954119682312
1783003153165918200,2.849918212890625,-1.7137091159820557,1.7734225988388062,-1.610409140586853
1783003153175970000,2.859969970703125,-1.454026699066162,1.5607271194458008,-0.965542733669281
1783003153186022100,2.870022216796875,-1.1162539720535278,1.2177824974060059,-0.269487589597702
1783003153196074000,2.880073974609375,-0.7484692931175232,0.8002521395683289,0.3349003195762634
1783003153206126000,2.8901259765625,-0.36335888504981995,0.3970852196216583,0.8540378212928772
1783003153216177000,2.900177001953125,0.0045626964420080185,0.07439371943473816,1.2511435747146606
1783003153226229200,2.910229248046875,0.31387507915496826,-0.1574646532535553,1.4552637338638306
1783003153236281000,2.920281005859375,0.5496820211410522,-0.2873547375202179,1.4581143856048584
1783003153246333200,2.930333251953125,0.7202616930007935,-0.2985425889492035,1.2852857112884521
1783003153256385000,2.940385009765625,0.8077987432479858,-0.24248328804969788,0.9234543442726135
1783003153266436000,2.95043603515625,0.7903592586517334,-0.17299479246139526,0.4891287088394165
1783003153276488200,2.96048828125,0.6864528059959412,-0.08706603944301605,0.11355376243591309
1783003153286540000,2.9705400390625,0.5581737160682678,0.03918244689702988,-0.11241704970598221
1783003153296592000,2.980591796875,0.4313446581363678,0.17192798852920532,-0.1551714390516281
1783003153306644200,2.990644287109375,0.3360055387020111,0.24501584470272064,-0.0223979689180851
1783003153316695000,3.000695068359375,0.26375851035118103,0.256776362657547,0.28985312581062317
1783003153326747100,3.0107470703125,0.23440152406692505,0.22117914259433746,0.7457348704338074
1783003153336799200,3.02079931640625,0.22775427997112274,0.10227221250534058,1.278541088104248
1783003153346851000,3.03085107421875,0.23169226944446564,-0.1369054615497589,1.7560993432998657
1783003153356903200,3.040903076171875,0.24986328184604645,-0.3623737692832947,2.1137008666992188
1783003153366954000,3.0509541015625,0.2856050133705139,-0.47205573320388794,2.2907564640045166
1783003153377006000,3.061006103515625,0.2922258973121643,-0.5244068503379822,2.275796890258789
1783003153387058000,3.071057861328125,0.2600002586841583,-0.5165648460388184,2.1161038875579834
1783003153397110000,3.081110107421875,0.22677598893642426,-0.47292548418045044,1.9273275136947632
1783003153407162000,3.091162109375,0.25237366557121277,-0.3563697934150696,1.8308976888656616
1783003153417213200,3.101213134765625,0.3313206732273102,-0.1563006192445755,1.860844373703003
1783003153427265300,3.111265380859375,0.4873238503932953,0.1265343725681305,2.026704788208008
1783003153437317000,3.121317138671875,0.7383744716644287,0.653363823890686,2.38071608543396
1783003153447369200,3.131369140625,1.100669026374817,1.475838541984558,2.9133572578430176
1783003153457421000,3.141421142578125,1.5610243082046509,2.0761022567749023,3.4530231952667236
1783003153467472100,3.15147216796875,1.8997671604156494,2.128127098083496,3.7879111766815186
1783003153477524000,3.16152392578125,2.080752372741699,1.6109039783477783,3.7995738983154297
1783003153487576000,3.171576171875,2.095357894897461,0.6794240474700928,3.471038341522217
1783003153497628200,3.181628173828125,1.9324774742126465,-0.32385584712028503,2.807032823562622
1783003153507680300,3.19168017578125,1.6719398498535156,-1.3080867528915405,1.701779842376709
1783003153517731000,3.20173095703125,1.4237347841262817,-2.4315710067749023,0.20371021330356598
1783003153527783200,3.211783203125,1.1880966424942017,-3.2857019901275635,-1.3703457117080688
1783003153537835000,3.2218349609375,0.7324768900871277,-3.529329538345337,-2.565180540084839
1783003153547887000,3.23188720703125,0.04847395792603493,-3.080709457397461,-2.958625316619873
1783003153557939000,3.24193896484375,-0.46221381425857544,-2.362506628036499,-2.590487480163574
1783003153567991000,3.251990966796875,-0.6036408543586731,-1.4660818576812744,-1.7118752002716064
1783003153578042000,3.2620419921875,-0.4037359952926636,-0.3881668448448181,-0.8704840540885925
1783003153588094000,3.272093994140625,-0.12952913343906403,0.4446863532066345,-0.5046991109848022
1783003153598146300,3.282146240234375,0.07585279643535614,1.0353580713272095,-0.6734625101089478
1783003153608198100,3.2921982421875,0.28706681728363037,1.3323719501495361,-1.0764789581298828
1783003153618250200,3.302250244140625,0.4744282066822052,1.3371858596801758,-1.4193832874298096
1783003153628301000,3.312301025390625,0.5484035015106201,1.194561243057251,-1.5458391904830933
1783003153638353200,3.322353271484375,0.48642829060554504,1.0394490957260132,-1.5046887397766113
1783003153648405000,3.332405029296875,0.3107639253139496,0.9908724427223206,-1.512734055519104
1783003153658457000,3.34245703125,0.08358775079250336,1.031187891960144,-1.6343672275543213
1783003153668509000,3.352509033203125,-0.1852809637784958,1.2073053121566772,-1.8201627731323242
1783003153678560000,3.36256005859375,-0.521514892578125,1.5101786851882935,-1.9849450588226318
1783003153688612000,3.372612060546875,-0.9426475763320923,1.7589997053146362,-2.056989908218384
1783003153698664200,3.382664306640625,-1.3931061029434204,1.8649389743804932,-1.980806827545166
1783003153708716000,3.392716064453125,-1.7166262865066528,1.8906834125518799,-1.7647578716278076
1783003153718768000,3.40276806640625,-1.792911171913147,1.8215237855911255,-1.5007184743881226
1783003153728819200,3.412819091796875,-1.6749602556228638,1.5759295225143433,-1.2388637065887451
1783003153738871000,3.42287109375,-1.4209955930709839,1.1806399822235107,-0.9895132780075073
1783003153748923100,3.432923095703125,-1.0794715881347656,0.7418829202651978,-0.7712358832359314
1783003153758975000,3.44297509765625,-0.7002235054969788,0.29940563440322876,-0.5932533740997314
1783003153769027000,3.453027099609375,-0.3197568655014038,-0.02316976711153984,-0.4524732232093811
1783003153779079200,3.4630791015625,0.026318006217479706,-0.19292764365673065,-0.3820408880710602
1783003153789130200,3.473130126953125,0.2894849181175232,-0.24671870470046997,-0.3589256703853607
1783003153799182000,3.48318212890625,0.42735302448272705,-0.19977250695228577,-0.3399439752101898
1783003153809234200,3.493234130859375,0.46357303857803345,-0.08187593519687653,-0.32009127736091614
1783003153819286000,3.5032861328125,0.43608948588371277,0.04668550193309784,-0.3143734633922577
1783003153829338000,3.513338134765625,0.3804240822792053,0.1879451721906662,-0.31204742193222046
1783003153839389200,3.52338916015625,0.328260213136673,0.32122814655303955,-0.2906484007835388
1783003153849441000,3.53344091796875,0.30184078216552734,0.39440470933914185,-0.23336996138095856
1783003153859493000,3.5434931640625,0.2948768734931946,0.4370139539241791,-0.15749970078468323
1783003153869545000,3.553544921875,0.3379342555999756,0.40099239349365234,-0.0674377977848053
1783003153879597300,3.563597412109375,0.4408380091190338,0.33275821805000305,0.02311393991112709
1783003153889648000,3.573648193359375,0.5607698559761047,0.22367818653583527,0.08931741863489151
1783003153899700200,3.5837001953125,0.6502349972724915,0.08792194724082947,0.11007010191679001
1783003153909752000,3.593751953125,0.6514734029769897,-0.03721179440617561,0.13195957243442535
1783003153919804200,3.60380419921875,0.5906763672828674,-0.17619206011295319,0.22726210951805115
1783003153929856000,3.61385595703125,0.5147936344146729,-0.237596794962883,0.4136655032634735
1783003153939907000,3.623906982421875,0.45153287053108215,-0.23069919645786285,0.6455543637275696
1783003153949959000,3.633958984375,0.4083746671676636,-0.1626492142677307,0.8735564351081848
1783003153960011000,3.644010986328125,0.4076191186904907,-0.057376593351364136,1.094259262084961
1783003153970063000,3.65406298828125,0.47248345613479614,0.041749294847249985,1.2787189483642578
1783003153980115200,3.664115234375,0.5600815415382385,0.04378208518028259,1.381199836730957
1783003153990166300,3.674166259765625,0.6310898661613464,-0.1378507912158966,1.3808128833770752
1783003154000218000,3.684218017578125,0.6301633715629578,-0.5415367484092712,1.2986669540405273
1783003154010270200,3.694270263671875,0.5517624020576477,-1.05193293094635,1.1840271949768066
1783003154020322000,3.704322021484375,0.46982550621032715,-1.5497055053710938,1.058994174003601
1783003154030374100,3.7143740234375,0.3993905484676361,-1.8321892023086548,0.9727344512939453
1783003154040426000,3.724426025390625,0.352289080619812,-1.7443333864212036,1.0435692071914673
1783003154050477000,3.73447705078125,0.3494661748409271,-1.2417582273483276,1.3741399049758911
1783003154060529000,3.74452880859375,0.45860356092453003,-0.5222764611244202,1.8874354362487793
1783003154070581200,3.754581298828125,0.6501916646957397,-0.02007729560136795,2.315366744995117
1783003154080633000,3.764633056640625,0.7958202362060547,0.0926058366894722,2.365185499191284
1783003154090684200,3.77468408203125,0.7633436918258667,-0.4175888001918793,1.92302668094635
1783003154100736300,3.784736328125,0.42064544558525085,-1.5191466808319092,1.2164345979690552
1783003154110788000,3.7947880859375,-0.1192731037735939,-2.7685041427612305,0.5692741274833679
1783003154120840200,3.804840087890625,-0.610971987247467,-3.7251713275909424,0.09577631950378418
1783003154130892000,3.81489208984375,-0.7678197622299194,-3.8454723358154297,-0.3173719644546509
1783003154140944100,3.824944091796875,-0.5691247582435608,-3.193124294281006,-0.7323923707008362
1783003154150995000,3.834994873046875,-0.2155539095401764,-2.219184637069702,-1.0023750066757202
1783003154161047000,3.845047119140625,0.13744330406188965,-1.167155146598816,-0.928105354309082
1783003154171099100,3.85509912109375,0.35064375400543213,-0.34579166769981384,-0.6176567077636719
1783003154181151200,3.865151123046875,0.34483006596565247,0.30663084983825684,-0.298606812953949
1783003154191203000,3.875203125,0.21989399194717407,0.8466911911964417,-0.04423925280570984
1783003154201254100,3.885254150390625,0.06650976836681366,1.2586156129837036,0.07504666596651077
1783003154211306000,3.895305908203125,-0.11873646080493927,1.6194864511489868,0.00976781826466322
1783003154221358000,3.905358154296875,-0.32918688654899597,1.9677592515945435,-0.19783411920070648
1783003154231410000,3.915409912109375,-0.556024968624115,2.3136324882507324,-0.46224671602249146
1783003154241462000,3.9254619140625,-0.8108364939689636,2.5828373432159424,-0.8037680983543396
1783003154251513000,3.93551318359375,-1.1344444751739502,2.52400541305542,-1.2859578132629395
1783003154261565200,3.945565185546875,-1.519345760345459,1.8663424253463745,-2.053140640258789
1783003154271617300,3.9556171875,-1.9003382921218872,0.939410924911499,-2.924801826477051
1783003154281669000,3.965669189453125,-2.07346773147583,0.20725791156291962,-3.4992835521698
1783003154291721200,3.97572119140625,-1.93727707862854,-0.15194816887378693,-3.5472564697265625
1783003154301773000,3.98577294921875,-1.5759426355361938,-0.1425005942583084,-2.8977479934692383
1783003154311824100,3.99582421875,-0.9876906871795654,-0.05322117730975151,-1.7452975511550903
1783003154321876000,4.0058759765625,-0.25354906916618347,0.014554405584931374,-0.4587193727493286
1783003154331928000,4.015927978515625,0.4225858151912689,0.148001030087471,0.6386203169822693
1783003154341980000,4.02597998046875,0.8889407515525818,0.26389700174331665,1.4062938690185547
1783003154352031000,4.036031005859375,1.140533685684204,0.3773755729198456,1.9193543195724487
1783003154362083000,4.0460830078125,1.1997274160385132,0.5411586761474609,2.201535224914551
1783003154372135200,4.05613525390625,1.1010887622833252,0.6999759078025818,2.2835357189178467
1783003154382187000,4.06618701171875,0.8752021789550781,0.7933418154716492,2.2237210273742676
1783003154392239000,4.076239013671875,0.5730109810829163,0.8019559979438782,2.066415548324585
1783003154402291000,4.086291015625,0.24873945116996765,0.7733938097953796,1.8246890306472778
1783003154412342000,4.096342041015625,-0.03561355918645859,0.8540531396865845,1.5221350193023682
1783003154422394000,4.10639404296875,-0.23788145184516907,1.0169745683670044,1.207200527191162
1783003154432446000,4.116446044921875,-0.2962600886821747,1.1496363878250122,0.9706786274909973
1783003154442498300,4.126498291015625,-0.2442469596862793,1.1648826599121094,0.8622493743896484
1783003154452550100,4.136550048828125,-0.11069990694522858,1.016371250152588,0.9020713567733765
1783003154462601200,4.146601318359375,0.06366311013698578,0.7055564522743225,1.0693364143371582
1783003154472653000,4.156653076171875,0.2418195754289627,0.29199305176734924,1.3141511678695679
1783003154482705200,4.166705078125,0.3633902072906494,-0.15301290154457092,1.5819716453552246
1783003154492757000,4.176757080078125,0.38808751106262207,-0.5786837339401245,1.7981891632080078
1783003154502809000,4.18680908203125,0.30104368925094604,-0.9660645127296448,1.9599254131317139
1783003154512860200,4.196860107421875,0.16154415905475616,-1.2889238595962524,2.060609817504883
1783003154522912000,4.206912109375,0.03187750652432442,-1.3915297985076904,2.0526516437530518
1783003154532964000,4.216964111328125,-0.03981054201722145,-1.3358067274093628,1.9351781606674194
1783003154543016200,4.22701611328125,-0.06159893050789833,-1.1655734777450562,1.8038121461868286
1783003154553068300,4.237068359375,-0.056162748485803604,-0.9469758868217468,1.7664904594421387
1783003154563119000,4.247119140625,-0.09209838509559631,-0.7137793898582458,1.8769067525863647
1783003154573171200,4.257171142578125,-0.20975340902805328,-0.6025042533874512,2.1064376831054688
1783003154583223000,4.26722314453125,-0.43979594111442566,-0.7499560117721558,2.289567708969116
1783003154593275100,4.277275146484375,-0.7601872682571411,-1.1567444801330566,2.315748691558838
1783003154603327000,4.287326904296875,-1.0679391622543335,-1.5305202007293701,2.197143077850342
1783003154613378000,4.2973779296875,-1.2085212469100952,-1.5879673957824707,2.0077953338623047
1783003154623430000,4.307429931640625,-1.1496264934539795,-1.4218801259994507,1.8725789785385132
1783003154633482000,4.31748193359375,-1.0075328350067139,-0.9703243374824524,1.9648394584655762
1783003154643534000,4.3275341796875,-0.8077744245529175,-0.2821158766746521,2.4562103748321533
1783003154653586200,4.337586181640625,-0.6170262694358826,0.3473655581474304,3.189807891845703
1783003154663637200,4.34763720703125,-0.492923766374588,0.4624394178390503,3.7143661975860596
1783003154673689000,4.357689208984375,-0.4657941162586212,-0.00502014858648181,3.7344367504119873
1783003154683741400,4.367741455078125,-0.48513397574424744,-1.0814777612686157,3.154581069946289
1783003154693793300,4.377793212890625,-0.5226898789405823,-2.255122184753418,2.1251637935638428
1783003154703845400,4.387845458984375,-0.6128280162811279,-3.092874526977539,0.9640538096427917
1783003154713896200,4.397896240234375,-0.6700515747070312,-3.1273069381713867,0.15784235298633575
1783003154723948300,4.4079482421875,-0.5821709632873535,-2.1195507049560547,0.1380918174982071
1783003154734000000,4.418000244140625,-0.36320701241493225,-0.501248836517334,0.715382993221283
1783003154744052200,4.42805224609375,-0.09037280827760696,0.7678762674331665,1.3624577522277832
1783003154754104000,4.43810400390625,0.25736987590789795,1.3514047861099243,1.5906013250350952
1783003154764155100,4.448155029296875,0.5643841028213501,1.3019168376922607,1.3645975589752197
1783003154774207200,4.458207275390625,0.703423023223877,0.752424418926239,0.8355810046195984
1783003154784259300,4.46825927734375,0.7301403880119324,-0.1118033230304718,0.2385503500699997
1783003154794311200,4.478311279296875,0.698558509349823,-0.8041290044784546,-0.2911090552806854
1783003154804363300,4.48836328125,0.6388160586357117,-1.0537508726119995,-0.7762123346328735
1783003154814414300,4.498414306640625,0.5610727071762085,-0.8524642586708069,-1.195133090019226
1783003154824466200,4.508466064453125,0.48299360275268555,-0.39517712593078613,-1.581900715827942
1783003154834518300,4.518518310546875,0.3934347331523895,0.06087774410843849,-2.0101919174194336
1783003154844570000,4.528570068359375,0.30634668469429016,0.29547157883644104,-2.5998551845550537
1783003154854622200,4.538622314453125,0.25288450717926025,0.33204561471939087,-3.33178448677063
1783003154864674300,4.54867431640625,0.15627220273017883,0.30574503540992737,-3.9178006649017334
1783003154874725000,4.55872509765625,0.026197372004389763,0.2818470895290375,-4.133716583251953
1783003154884777200,4.568777099609375,-0.07186713814735413,0.36772578954696655,-3.870115280151367
1783003154894829300,4.578829345703125,-0.12252607196569443,0.5764792561531067,-3.142768621444702
1783003154904881200,4.588881103515625,-0.15617671608924866,0.8290870189666748,-2.1849658489227295
1783003154914933200,4.598933349609375,-0.18005810678005219,1.0294127464294434,-1.29989755153656
1783003154924984300,4.608984375,-0.15151993930339813,1.1725869178771973,-0.6596672534942627
1783003154935036200,4.6190361328125,-0.08432464301586151,1.1577014923095703,-0.2988590598106384
1783003154945088300,4.629088134765625,-0.05520031601190567,1.0013701915740967,-0.21290099620819092
1783003154955140000,4.63914013671875,-0.11212418228387833,0.7248532176017761,-0.31248554587364197
1783003154965192200,4.649192138671875,-0.19734720885753632,0.3964172601699829,-0.4590241312980652
1783003154975243300,4.6592431640625,-0.23334898054599762,0.1590317040681839,-0.6222889423370361
1783003154985295400,4.66929541015625,-0.2091432511806488,0.04257619380950928,-0.8062773942947388
1783003154995347200,4.67934716796875,-0.15732432901859283,-0.02991952933371067,-0.9990851879119873
1783003155005399300,4.6893994140625,-0.08754311501979828,-0.04849587380886078,-1.1259769201278687
1783003155015451100,4.699451171875,-0.008538438007235527,-0.05431634187698364,-1.2003356218338013
1783003155025502200,4.709502197265625,0.05112648755311966,-0.008469760417938232,-1.207906723022461
1783003155035554000,4.719553955078125,0.11266634613275528,0.18052487075328827,-1.0667890310287476
1783003155045606100,4.729606201171875,0.1961979866027832,0.3781993091106415,-0.8708453178405762
1783003155055658000,4.739657958984375,0.2588265836238861,0.3973209857940674,-0.6687516570091248
1783003155065710300,4.74971044921875,0.31384509801864624,0.2939509153366089,-0.43411728739738464
1783003155075761400,4.759761474609375,0.3686750829219818,0.10820875316858292,-0.17049315571784973
1783003155085813200,4.769813232421875,0.38634568452835083,-0.1544199287891388,0.11946702003479004
1783003155095865300,4.779865234375,0.3568170368671417,-0.43413886427879333,0.38713833689689636
1783003155105917200,4.789917236328125,0.2765445411205292,-0.6763118505477905,0.5578245520591736
1783003155115969300,4.79996923828125,0.1826764941215515,-0.8667293190956116,0.6425367593765259
1783003155126020000,4.81002001953125,0.110703244805336,-0.8768339157104492,0.7060174345970154
1783003155136072200,4.820072265625,0.06770162284374237,-0.7679885029792786,0.7610247135162354
1783003155146124000,4.8301240234375,0.05289285257458687,-0.6165283918380737,0.8699197769165039
1783003155156176400,4.84017626953125,0.08256777375936508,-0.42806199193000793,0.9881457090377808
1783003155166228200,4.850228271484375,0.17842425405979156,-0.32922250032424927,1.0941123962402344
1783003155176279300,4.860279296875,0.25416111946105957,-0.39282864332199097,1.178623080253601
1783003155186331400,4.870331298828125,0.2490164339542389,-0.5414151549339294,1.1707348823547363
1783003155196383200,4.88038330078125,0.15817475318908691,-0.7534295320510864,1.051213026046753
1783003155206435300,4.890435302734375,-0.055266156792640686,-1.064002275466919,0.8764526844024658
1783003155216487200,4.900487060546875,-0.32348284125328064,-1.2861984968185425,0.6604833006858826
1783003155226538200,4.910538330078125,-0.5479865074157715,-1.1256415843963623,0.48081663250923157
1783003155236590000,4.920590087890625,-0.6223493218421936,-0.48552030324935913,0.5325413346290588
1783003155246642200,4.93064208984375,-0.5805270075798035,0.3695698380470276,0.8716128468513489
1783003155256694300,4.9406943359375,-0.5209577679634094,0.8368417620658875,1.4068794250488281
1783003155266746400,4.950746337890625,-0.390438973903656,0.6709660291671753,2.0508198738098145
1783003155276797200,4.960797119140625,-0.25901955366134644,-0.11929675191640854,2.6171069145202637
1783003155286849300,4.970849365234375,-0.32688915729522705,-1.2848401069641113,2.997018814086914
1783003155296901000,4.980901123046875,-0.6363649368286133,-2.2619497776031494,3.094468355178833
1783003155306953200,4.990953125,-1.0966039896011353,-2.606882333755493,2.883462429046631
1783003155317005000,5.001005126953125,-1.536213755607605,-2.1263527870178223,2.4043102264404297
1783003155327056100,5.01105615234375,-1.7891829013824463,-1.0022507905960083,1.6967514753341675
1783003155337108200,5.021108154296875,-1.761969804763794,0.4703119993209839,0.97588050365448
1783003155347160000,5.03116015625,-1.5459704399108887,1.7390259504318237,0.2864781320095062
1783003155357212400,5.04121240234375,-1.3058065176010132,2.4089722633361816,-0.22077880799770355
1783003155367264300,5.05126416015625,-1.1447193622589111,2.3177571296691895,-0.5677061080932617
1783003155377316400,5.06131640625,-1.0436557531356812,1.545271396636963,-0.8455823659896851
1783003155387367200,5.0713671875,-0.8934230208396912,0.3405711054801941,-1.0462627410888672
1783003155397419300,5.081419189453125,-0.6101688146591187,-0.9901658892631531,-1.2032873630523682
1783003155407471000,5.09147119140625,-0.2975546717643738,-1.9370919466018677,-1.2777777910232544
1783003155417523200,5.101523193359375,-0.07362309098243713,-2.0506417751312256,-1.1418192386627197
1783003155427575000,5.111574951171875,0.05065998435020447,-1.4541904926300049,-0.8389952778816223
1783003155437626000,5.121626220703125,0.13285426795482635,-0.661545991897583,-0.5932307243347168
1783003155447678200,5.13167822265625,0.14043842256069183,0.00898575596511364,-0.5985394716262817
1783003155457730300,5.141730224609375,-0.09095648676156998,0.3959601819515228,-0.9132630228996277
1783003155467782100,5.1517822265625,-0.5644351243972778,0.3959106504917145,-1.48899507522583
1783003155477834200,5.161834228515625,-1.1404258012771606,0.129255011677742,-2.237154006958008
1783003155487885300,5.17188525390625,-1.5970078706741333,-0.2662654221057892,-3.0724036693573
1783003155497937200,5.181937255859375,-1.785117268562317,-0.5809068083763123,-3.6357123851776123
1783003155507989200,5.1919892578125,-1.5725699663162231,-0.5394983887672424,-3.477837324142456
1783003155518041000,5.202041015625,-1.0317689180374146,-0.049031779170036316,-2.685093402862549
1783003155528093400,5.212093505859375,-0.44452646374702454,0.2270946055650711,-1.8073381185531616
1783003155538144000,5.22214404296875,0.07577324658632278,0.3437284827232361,-0.8148098587989807
1783003155548196400,5.2321962890625,0.5311425924301147,0.1771073043346405,0.09071662276983261
1783003155558248200,5.242248291015625,0.7853525876998901,-0.1664775311946869,0.8151530623435974
1783003155568300300,5.25230029296875,0.8034202456474304,-0.4929368495941162,1.2833373546600342
1783003155578352000,5.26235205078125,0.6242578625679016,-0.585827648639679,1.4499123096466064
1783003155588403200,5.2724033203125,0.3358684480190277,-0.3941865563392639,1.315192699432373
1783003155598455300,5.282455322265625,0.008069340139627457,0.017843564972281456,0.9333896636962891
1783003155608507100,5.292507080078125,-0.32608041167259216,0.509906530380249,0.46436890959739685
1783003155618559200,5.302559326171875,-0.5860795974731445,0.9499289989471436,0.003571907989680767
1783003155628610000,5.312610107421875,-0.7103555202484131,1.2244716882705688,-0.4032443165779114
1783003155638662100,5.322662109375,-0.6732040047645569,1.2550883293151855,-0.6950176954269409
1783003155648714200,5.33271435546875,-0.4959735870361328,1.0848289728164673,-0.8381857872009277
1783003155658765800,5.342765869140625,-0.2525767982006073,0.7485597729682922,-0.8220992684364319
1783003155668817700,5.352817626953125,0.04614625871181488,0.31830713152885437,-0.5802600383758545
1783003155678869800,5.362869873046875,0.3509503901004791,-0.06327194720506668,-0.13907206058502197
1783003155688920800,5.3729208984375,0.5716894268989563,-0.23515024781227112,0.367214560508728
1783003155698972700,5.38297265625,0.6858828663825989,-0.28529149293899536,0.8448144793510437
1783003155709025000,5.39302490234375,0.7345348596572876,-0.2883155047893524,1.2702949047088623
1783003155719076900,5.403076904296875,0.7172152996063232,-0.2668851613998413,1.5534931421279907
1783003155729129000,5.41312890625,0.5975096821784973,-0.19580191373825073,1.6416714191436768
1783003155739179800,5.4231796875,0.4078734815120697,-0.05690077692270279,1.5244675874710083
1783003155749231900,5.43323193359375,0.21609526872634888,0.0943681001663208,1.2481435537338257
1783003155759283700,5.44328369140625,0.05288079380989075,0.1925322562456131,0.8737480044364929
1783003155769335800,5.453335693359375,-0.06278322637081146,0.2660682499408722,0.49132078886032104
1783003155779387600,5.4633876953125,-0.13977202773094177,0.3354710340499878,0.22837549448013306
1783003155789438700,5.473438720703125,-0.16572533547878265,0.2992832064628601,0.15656229853630066
1783003155799490800,5.48349072265625,-0.06741727888584137,0.018104400485754013,0.2706352174282074
1783003155809543000,5.49354296875,0.1911226511001587,-0.33140993118286133,0.44725075364112854
1783003155819594800,5.5035947265625,0.4806911051273346,-0.5288503170013428,0.542758047580719
1783003155829646800,5.513646728515625,0.7153384685516357,-0.6509703397750854,0.5084541440010071
1783003155839698000,5.523697998046875,0.8204169869422913,-0.5193462371826172,0.4840465784072876
1783003155849749800,5.533749755859375,0.7315419316291809,-0.1646939069032669,0.6076457500457764
1783003155859801900,5.5438017578125,0.5143428444862366,0.24330708384513855,0.971618115901947
1783003155869853700,5.553853759765625,0.18249037861824036,0.6021541953086853,1.4641269445419312
1783003155879905800,5.56390576171875,-0.2123831808567047,0.6776100993156433,1.6499286890029907
1783003155889956600,5.57395654296875,-0.6197501420974731,0.05273210257291794,1.2719038724899292
1783003155900009000,5.584009033203125,-1.0179517269134521,-0.8459013104438782,0.49747273325920105
1783003155910060800,5.594060791015625,-1.2726482152938843,-1.6249386072158813,-0.12466884404420853
1783003155920113000,5.60411279296875,-1.3784137964248657,-1.5852216482162476,-0.2871324419975281
1783003155930164700,5.614164794921875,-1.4574542045593262,-1.111333966255188,-0.07654697448015213
1783003155940215800,5.6242158203125,-1.4965242147445679,-0.42111924290657043,0.1488383561372757
1783003155950268000,5.634267822265625,-1.5016475915908813,0.20153048634529114,0.06682869791984558
1783003155960319700,5.64431982421875,-1.1700702905654907,0.7417044639587402,-0.2605849802494049
1783003155970371800,5.654371826171875,-0.5615937113761902,1.0471396446228027,-0.6970331072807312
1783003155980423700,5.664423583984375,0.03926743194460869,1.0775351524353027,-1.1407610177993774
1783003155990474800,5.674474853515625,0.37491628527641296,0.9544291496276855,-1.429295539855957
1783003156000526800,5.68452685546875,0.3078329265117645,1.0579769611358643,-1.4897563457489014
1783003156010579000,5.694578857421875,-0.1445198655128479,1.384721040725708,-1.3636900186538696
1783003156020630800,5.704630859375,-0.7338331341743469,1.502072811126709,-1.1890649795532227
1783003156030683000,5.714682861328125,-1.187451958656311,1.454071283340454,-1.1009573936462402
1783003156040733700,5.724733642578125,-1.485220193862915,1.0765159130096436,-1.1841657161712646
1783003156050785800,5.734785888671875,-1.61580491065979,0.2726508677005768,-1.4283173084259033
1783003156060837600,5.744837646484375,-1.5373722314834595,-0.8518285751342773,-1.7765177488327026
1783003156070889700,5.7548896484375,-1.2422324419021606,-1.8925319910049438,-2.0496721267700195
1783003156080941800,5.76494189453125,-0.8181928396224976,-2.487966537475586,-2.112825632095337
1783003156090992600,5.77499267578125,-0.42365720868110657,-2.4826345443725586,-1.9233412742614746
1783003156101045000,5.785044921875,-0.1311144083738327,-1.8995535373687744,-1.4870481491088867
1783003156111096800,5.795096923828125,0.1100982204079628,-0.9443703889846802,-0.8111453652381897
1783003156121149000,5.80514892578125,0.3432832658290863,-0.15659348666667938,-0.06630634516477585
1783003156131199700,5.81519970703125,0.5726985931396484,0.25282278656959534,0.5798255205154419
1783003156141251800,5.825251953125,0.7592759132385254,0.25585782527923584,1.0404276847839355
1783003156151303700,5.8353037109375,0.7638309597969055,0.028122643008828163,1.2889933586120605
1783003156161355800,5.845355712890625,0.6812306046485901,-0.29616913199424744,1.303910255432129
1783003156171407600,5.85540771484375,0.4149664342403412,-0.4677557945251465,1.008949637413025
1783003156181458700,5.865458740234375,-0.08437082171440125,-0.49912476539611816,0.4541367292404175
1783003156191511000,5.875510986328125,-0.6872410178184509,-0.42332586646080017,-0.09159291535615921
1783003156201563000,5.88556298828125,-1.1058236360549927,-0.19356635212898254,-0.4558643698692322
1783003156211614700,5.89561474609375,-1.15951669216156,-0.12547199428081512,-0.590525209903717
1783003156221666800,5.905666748046875,-0.841297447681427,-0.11921652406454086,-0.5821251273155212
1783003156231718000,5.9157177734375,-0.34182536602020264,-0.11286807805299759,-0.40398094058036804
1783003156241769700,5.925769775390625,0.13995447754859924,-0.1179620549082756,0.07563744485378265
1783003156251821800,5.93582177734375,0.4537627398967743,0.009643571451306343,0.7021316885948181
1783003156261873700,5.945873779296875,0.5557650923728943,0.002153355162590742,1.2071855068206787
1783003156271925800,5.95592578125,0.5661823153495789,-0.12303652614355087,1.5747401714324951
1783003156281976600,5.9659765625,0.563637375831604,-0.45959797501564026,1.8168455362319946
1783003156292029000,5.97602880859375,0.5515722036361694,-0.8606956005096436,1.9147281646728516
1783003156302080800,5.986080810546875,0.4757596254348755,-1.0898150205612183,1.8667174577713013
1783003156312132900,5.9961328125,0.39731940627098083,-1.0796619653701782,1.6826858520507812
1783003156322184700,6.006184814453125,0.37114855647087097,-0.8849108815193176,1.401803731918335
1783003156332235800,6.01623583984375,0.3782173991203308,-0.5327722430229187,1.080765724182129
1783003156342288000,6.026287841796875,0.3919561207294464,-0.19260647892951965,0.8069416880607605
1783003156352339700,6.036339599609375,0.34033048152923584,0.07235593348741531,0.6812806725502014
1783003156362391800,6.046391845703125,0.244665265083313,0.213345468044281,0.7725955247879028
1783003156372444000,6.05644384765625,0.1811576634645462,0.1845090240240097,1.065170168876648
1783003156382494700,6.06649462890625,0.08878397941589355,0.048466332256793976,1.4316996335983276
1783003156392546800,6.076546875,-0.005102835595607758,-0.09589297324419022,1.737959623336792
1783003156402599000,6.086598876953125,0.03500934690237045,-0.3645099699497223,1.9460035562515259
1783003156412650800,6.096650634765625,0.1486901044845581,-0.6810375452041626,2.0320839881896973
1783003156422702800,6.106702880859375,0.26423799991607666,-0.927578866481781,1.9588161706924438
1783003156432754000,6.11675390625,0.3188764750957489,-1.0125826597213745,1.6203254461288452
1783003156442805800,6.1268056640625,0.27280646562576294,-0.8524566888809204,1.1326665878295898
1783003156452857900,6.13685791015625,0.21803481876850128,-0.45992594957351685,0.9203188419342041
1783003156462909700,6.14690966796875,0.2196630835533142,0.3534170091152191,1.3145004510879517
1783003156472961800,6.1569619140625,0.1158570647239685,1.0728061199188232,1.5934953689575195
1783003156483012900,6.167012939453125,-0.1158047467470169,1.2894608974456787,1.2512118816375732
1783003156493065000,6.17706494140625,-0.4539726674556732,1.7158921957015991,1.0303130149841309
1783003156503116800,6.18711669921875,-0.5946435332298279,0.6625835299491882,0.768146812915802
1783003156513169000,6.1971689453125,-0.48251354694366455,-0.35073888301849365,-0.2566077411174774
1783003156523220700,6.207220703125,-0.6017113924026489,-0.460836261510849,-1.5341640710830688
1783003156533271800,6.217271728515625,-0.6738319396972656,-0.4806262254714966,-2.403031826019287
1783003156543323600,6.22732373046875,-0.4816024899482727,-0.2551140785217285,-2.356903553009033
1783003156553375700,6.237375732421875,-0.050295837223529816,0.2101406753063202,-1.9177592992782593
1783003156563427600,6.247427490234375,0.31504300236701965,0.3311333954334259,-1.5230447053909302
1783003156573480000,6.25747998046875,0.744600236415863,0.35011082887649536,-1.0932466983795166
1783003156583531000,6.267531005859375,1.2333431243896484,0.07516808062791824,-0.8240805864334106
1783003156593582800,6.277582763671875,1.617592215538025,-0.04502890259027481,-0.8635614514350891
1783003156603635000,6.287635009765625,1.7043826580047607,0.17763535678386688,-1.2490758895874023
1783003156613686800,6.297686767578125,1.460331916809082,0.7071127891540527,-1.856199860572815
1783003156623739000,6.30773876953125,0.9535845518112183,1.1610852479934692,-2.5074453353881836
1783003156633789700,6.317789794921875,0.29966503381729126,1.26272714138031,-2.8204784393310547
1783003156643841800,6.327841796875,-0.2944464683532715,0.9834288954734802,-2.650747299194336
1783003156653893600,6.3378935546875,-0.6936002373695374,0.6502312421798706,-2.1565909385681152
1783003156663949800,6.34794970703125,-0.940030038356781,0.403352290391922,-1.5297167301177979
1783003156674001700,6.358001708984375,-1.0885963439941406,0.2517845928668976,-0.7578549385070801
1783003156684052700,6.368052734375,-1.1189435720443726,-0.03891550004482269,0.06317872554063797
1783003156694104800,6.378104736328125,-1.0644973516464233,-0.5751544237136841,0.682979941368103
1783003156704157000,6.388156982421875,-0.9009716510772705,-1.0111018419265747,1.0158157348632812
1783003156714208800,6.398208740234375,-0.7148222923278809,-1.273061752319336,1.0193029642105103
1783003156724260900,6.4082607421875,-0.6674461364746094,-1.4273203611373901,0.6463027596473694
1783003156734312000,6.41831201171875,-0.6663827300071716,-1.2824372053146362,-0.034727685153484344
1783003156744363800,6.42836376953125,-0.6243394613265991,-0.7817221879959106,-0.8626328110694885
1783003156754415900,6.438415771484375,-0.5972556471824646,-0.15305903553962708,-1.5872201919555664
1783003156764467700,6.4484677734375,-0.6159315705299377,0.4724138677120209,-2.031334161758423
1783003156774519800,6.458519775390625,-0.6115163564682007,1.032741904258728,-2.118333101272583
1783003156784570600,6.468570556640625,-0.5343306660652161,1.461683750152588,-1.8295326232910156
1783003156794623000,6.478623046875,-0.3338278830051422,1.4003565311431885,-1.3117212057113647
1783003156804674800,6.4886748046875,-0.13939806818962097,0.8960866332054138,-0.7823443412780762
1783003156814727000,6.498726806640625,-0.06246412917971611,0.3235032558441162,-0.33189332485198975
1783003156824777700,6.50877783203125,-0.11132561415433884,-0.13515867292881012,0.05316310375928879
1783003156834829800,6.518829833984375,-0.23934216797351837,-0.4194399416446686,0.31555691361427307
1783003156844881700,6.528881591796875,-0.36917200684547424,-0.5003688931465149,0.35638171434402466
1783003156854933800,6.538933837890625,-0.46222418546676636,-0.38071122765541077,0.23339612782001495
1783003156864985600,6.548985595703125,-0.5250130295753479,-0.11009305715560913,0.0324072428047657
1783003156875036700,6.55903662109375,-0.5526766180992126,0.18956662714481354,-0.18717758357524872
1783003156885089000,6.569089111328125,-0.5204178094863892,0.40913474559783936,-0.31511926651000977
1783003156895140900,6.579140869140625,-0.3843609094619751,0.5307834148406982,-0.24060294032096863
1783003156905193000,6.58919287109375,-0.14487673342227936,0.5499728918075562,0.020006194710731506
1783003156915244800,6.599244873046875,0.13481509685516357,0.4102887511253357,0.33012571930885315
1783003156925295900,6.6092958984375,0.3717467784881592,0.1946476846933365,0.6717796921730042
1783003156935347700,6.61934765625,0.5372286438941956,-0.0532958097755909,1.031416416168213
1783003156945399800,6.62939990234375,0.6299940943717957,-0.23854239284992218,1.2511440515518188
1783003156955451600,6.63945166015625,0.6461086273193359,-0.2933361530303955,1.1699410676956177
1783003156965503700,6.649503662109375,0.5727536082267761,-0.2523137331008911,0.774872899055481
1783003156975554800,6.659554931640625,0.41575199365615845,-0.2790161967277527,0.04103352874517441
1783003156985607000,6.66960693359375,0.16491679847240448,-0.33528581261634827,-0.9938570261001587
1783003156995658800,6.67965869140625,-0.1370031088590622,-0.16243627667427063,-2.0661184787750244
1783003157005710800,6.6897109375,-0.3824118673801422,0.21041618287563324,-2.87467885017395
1783003157015762700,6.6997626953125,-0.4540881812572479,0.44978243112564087,-3.1616413593292236
1783003157025813800,6.709813720703125,-0.34089067578315735,0.5814013481140137,-2.7608351707458496
1783003157035865900,6.719865966796875,-0.07290156930685043,0.48461538553237915,-1.8129792213439941
1783003157045917700,6.729917724609375,0.24780741333961487,0.24160070717334747,-0.6540547013282776
1783003157055969800,6.7399697265625,0.5314513444900513,0.001711138989776373,0.41138067841529846
1783003157066022000,6.75002197265625,0.7362625002861023,-0.18573565781116486,1.0959751605987549
1783003157076072700,6.76007275390625,0.8107561469078064,-0.19812121987342834,1.3645387887954712
1783003157086124800,6.770124755859375,0.7139195799827576,-0.1054423525929451,1.274457335472107
1783003157096177000,6.780177001953125,0.5224153995513916,0.04627154767513275,0.879966676235199
1783003157106228700,6.790228759765625,0.30972614884376526,0.2785477936267853,0.37153559923171997
1783003157116280800,6.80028076171875,0.058593522757291794,0.539747416973114,-0.18058989942073822
1783003157126332000,6.810331787109375,-0.22225184738636017,0.7260950803756714,-0.6098676323890686
1783003157136383700,6.8203837890625,-0.4325912296772003,0.7435547709465027,-0.8181830644607544
1783003157146435800,6.830435791015625,-0.4596250653266907,0.6801077127456665,-0.6849033236503601
1783003157156487700,6.84048779296875,-0.27302244305610657,0.5375838279724121,-0.21591611206531525
1783003157166538800,6.850538818359375,-0.013909663073718548,0.4389241337776184,0.32696080207824707
1783003157176590800,6.8605908203125,0.2066623866558075,0.40267983078956604,0.7670287489891052
1783003157186643000,6.870642822265625,0.29579514265060425,0.5111021995544434,1.0646629333496094
1783003157196694800,6.88069482421875,0.21303023397922516,0.645240843296051,1.2132306098937988
1783003157206747000,6.890746826171875,0.036716945469379425,0.6439141035079956,1.3538107872009277
1783003157216798000,6.9007978515625,-0.06367064267396927,0.47651922702789307,1.2986340522766113
1783003157226849800,6.910849853515625,-0.05760769173502922,0.375052273273468,1.078845500946045
1783003157236902000,6.92090185546875,-0.019955120980739594,0.2461608648300171,0.730820894241333
1783003157246953700,6.93095361328125,-0.02537963166832924,0.12974868714809418,0.3000359833240509
1783003157257005600,6.941005615234375,-0.0021249093115329742,0.043758414685726166,-0.09103216975927353
1783003157267056600,6.951056640625,0.131466343998909,-0.043137725442647934,-0.3552004098892212
1783003157277109000,6.96110888671875,0.32313618063926697,-0.07938601076602936,-0.45065927505493164
1783003157287160800,6.971160888671875,0.4627107083797455,-0.10165976732969284,-0.374178946018219
1783003157297213000,6.981212890625,0.683956503868103,-0.04147445783019066,-0.22794395685195923
1783003157307264800,6.9912646484375,0.9661089777946472,0.13212966918945312,-0.15446031093597412
