time,seconds_elapsed,z,y,x
1783003150387852300,0.071852294921875,0.10606944561004639,0.16052976250648499,0.1235930472612381
1783003150397904100,0.081904052734375,0.09895400702953339,0.28790155053138733,0.059838298708200455
1783003150407956200,0.091956298828125,0.09920594841241837,0.3893775939941406,-0.04420820623636246
1783003150418008300,0.10200830078125,0.10100331157445908,0.43659302592277527,-0.17956922948360443
1783003150428059100,0.11205908203125,0.11078856885433197,0.43591925501823425,-0.2892339527606964
1783003150438111200,0.122111328125,0.1307111382484436,0.3633209466934204,-0.35775360465049744
1783003150448163300,0.132163330078125,0.15692223608493805,0.1891116052865982,-0.41221365332603455
1783003150458215200,0.142215087890625,0.1803804337978363,-0.06091581657528877,-0.47938045859336853
1783003150468267300,0.152267333984375,0.19490636885166168,-0.278207391500473,-0.5416712760925293
1783003150478318300,0.162318359375,0.15542474389076233,-0.4140230119228363,-0.596027135848999
1783003150488370200,0.1723701171875,0.11059042811393738,-0.37974733114242554,-0.5616382956504822
1783003150498422300,0.18242236328125,0.10347498953342438,-0.15520982444286346,-0.4084431529045105
1783003150508474000,0.19247412109375,0.06716226041316986,0.07586147636175156,-0.20640456676483154
1783003150518526200,0.202526123046875,-0.01410729717463255,0.19625872373580933,-0.006685333326458931
1783003150528577300,0.212577392578125,-0.08830562978982925,0.24033670127391815,0.1984236091375351
1783003150538629400,0.22262939453125,-0.13172100484371185,0.2466164380311966,0.44929951429367065
1783003150548681200,0.23268115234375,-0.16151246428489685,0.24994832277297974,0.6634756922721863
1783003150558733300,0.2427333984375,-0.16754558682441711,0.2221028357744217,0.7512183785438538
1783003150568785200,0.25278515625,-0.17370574176311493,0.08650453388690948,0.771315336227417
1783003150578836200,0.262836181640625,-0.20847438275814056,-0.11510102450847626,0.7514718770980835
1783003150588888000,0.27288818359375,-0.2474803626537323,-0.2754363715648651,0.7096101641654968
1783003150598940200,0.282940185546875,-0.24262942373752594,-0.37385961413383484,0.6971087455749512
1783003150608992000,0.292991943359375,-0.17876708507537842,-0.4239632487297058,0.7758525609970093
1783003150619044400,0.30304443359375,-0.036263998597860336,-0.3810325562953949,0.921868622303009
1783003150629096200,0.31309619140625,0.16946040093898773,-0.3190394937992096,1.051282525062561
1783003150639147300,0.323147216796875,0.3895280659198761,-0.5232906341552734,0.9959189295768738
1783003150649199000,0.33319921875,0.5149158239364624,-0.7747316360473633,0.7640841007232666
1783003150659251000,0.3432509765625,0.480844110250473,-0.9543291330337524,0.5916635990142822
1783003150669303000,0.353302978515625,0.23510625958442688,-0.9207112193107605,0.6143372058868408
1783003150679355000,0.36335498046875,0.04288967698812485,0.026066221296787262,0.8013233542442322
1783003150689406000,0.373406005859375,0.053528737276792526,1.3400582075119019,1.3023536205291748
1783003150699457800,0.383457763671875,0.3819875717163086,2.6602132320404053,1.9615347385406494
1783003150709510000,0.393510009765625,0.8382661938667297,2.5518832206726074,2.3274004459381104
1783003150719561700,0.403561767578125,1.1383322477340698,1.1375505924224854,1.9564920663833618
1783003150729614000,0.413614013671875,1.4344935417175293,0.30313724279403687,1.5516282320022583
1783003150739665200,0.4236650390625,1.3763206005096436,-0.17651218175888062,1.0025038719177246
1783003150749717000,0.433717041015625,1.001968264579773,-0.07371203601360321,0.36606693267822266
1783003150759769000,0.44376904296875,0.5913330912590027,0.4998691976070404,0.17441920936107635
1783003150769821000,0.453821044921875,0.10383372008800507,0.930081307888031,0.4224244952201843
1783003150779872800,0.463872802734375,-0.36544403433799744,1.0173346996307373,0.9370611906051636
1783003150789923800,0.473923828125,-0.5767472386360168,0.6592101454734802,1.548388957977295
1783003150799976000,0.483975830078125,-0.514362633228302,-0.11592233926057816,1.9663149118423462
1783003150810027800,0.49402783203125,-0.20218345522880554,-0.7316670417785645,2.225881814956665
1783003150820080000,0.504080078125,0.21980080008506775,-0.7801442742347717,2.2376630306243896
1783003150830132000,0.514132080078125,0.6372497081756592,-0.15754355490207672,1.954681396484375
1783003150840183000,0.52418310546875,1.121284008026123,0.6836408972740173,1.3968695402145386
1783003150850235000,0.53423486328125,1.6325262784957886,1.4288666248321533,0.6238689422607422
1783003150860287000,0.544286865234375,1.9198414087295532,1.6915006637573242,-0.17074884474277496
1783003150870338800,0.5543388671875,1.806876540184021,1.5324862003326416,-0.6873679757118225
1783003150880391000,0.564390869140625,1.3709089756011963,1.3555290699005127,-0.7855499386787415
1783003150890442000,0.57444189453125,0.7763820290565491,1.2751646041870117,-0.6449907422065735
1783003150900493800,0.584493896484375,0.15886688232421875,1.4101006984710693,-0.4954342544078827
1783003150910546000,0.5945458984375,-0.30330368876457214,1.63601815700531,-0.4140253961086273
1783003150920598000,0.604597900390625,-0.7020255327224731,1.7655706405639648,-0.46978479623794556
1783003150930650000,0.614650146484375,-1.010631799697876,1.6279282569885254,-0.6490328311920166
1783003150940701000,0.624700927734375,-1.3366280794143677,1.2986217737197876,-0.8805617094039917
1783003150950753000,0.6347529296875,-1.5649828910827637,0.8548539280891418,-1.038962483406067
1783003150960804900,0.644804931640625,-1.6333308219909668,0.4440016746520996,-1.0662919282913208
1783003150970857000,0.65485693359375,-1.5045675039291382,0.14929227530956268,-0.9295438528060913
1783003150980908800,0.66490869140625,-1.247352957725525,-0.10401641577482224,-0.6832789778709412
1783003150990959900,0.6749599609375,-0.9576053619384766,-0.3638450503349304,-0.3903736174106598
1783003151001012000,0.685011962890625,-0.6370238661766052,-0.5905871391296387,-0.10847960412502289
1783003151011063800,0.695063720703125,-0.3241695463657379,-0.6401887536048889,0.10605905950069427
1783003151021116000,0.705115966796875,-0.07556852698326111,-0.6407528519630432,0.18809294700622559
1783003151031168000,0.71516796875,0.16096438467502594,-0.6346680521965027,0.23394937813282013
1783003151041219800,0.7252197265625,0.36615481972694397,-0.5410991907119751,0.24958239495754242
1783003151051271000,0.73527099609375,0.5290095210075378,-0.43133941292762756,0.23301780223846436
1783003151061323000,0.745322998046875,0.6477790474891663,-0.4138890504837036,0.25058695673942566
1783003151071374800,0.755374755859375,0.7331048846244812,-0.47856470942497253,0.301221638917923
1783003151081427000,0.765427001953125,0.7849299907684326,-0.6026467084884644,0.3560393452644348
1783003151091477800,0.775477783203125,0.8047787547111511,-0.8041777014732361,0.40207552909851074
1783003151101529900,0.78552978515625,0.8110715746879578,-1.0049967765808105,0.42735105752944946
1783003151111582000,0.79558203125,0.8266345262527466,-1.0646233558654785,0.4308083951473236
1783003151121634000,0.805634033203125,0.8900979161262512,-0.9771004915237427,0.38586968183517456
1783003151131686000,0.815685791015625,1.0232573747634888,-0.7012662291526794,0.28438830375671387
1783003151141738000,0.825738037109375,1.2250988483428955,-0.34358346462249756,0.17900331318378448
1783003151151789000,0.8357890625,1.3720741271972656,-0.08355002105236053,0.14885126054286957
1783003151161841000,0.8458408203125,1.4156019687652588,0.06065668910741806,0.13782790303230286
1783003151171893000,0.85589306640625,1.4086713790893555,0.06391959637403488,0.11158005893230438
1783003151181944800,0.86594482421875,1.3846160173416138,0.08830562978982925,0.008901349268853664
1783003151191997000,0.875996826171875,1.3153200149536133,0.189951553940773,-0.1564338207244873
1783003151202047700,0.8860478515625,1.1190056800842285,0.3483758270740509,-0.3351500332355499
1783003151212100000,0.89610009765625,0.8058083653450012,0.38493943214416504,-0.4999547004699707
1783003151222152000,0.90615185546875,0.45535022020339966,0.28714388608932495,-0.5327067971229553
1783003151232204000,0.9162041015625,0.20520401000976562,0.36388927698135376,-0.36393213272094727
1783003151242256000,0.926255859375,0.1458514779806137,0.6624916791915894,-0.026215624064207077
1783003151252307000,0.936306884765625,0.3298088014125824,0.9951966404914856,0.5512669086456299
1783003151262358800,0.94635888671875,0.6898034811019897,1.1739213466644287,1.1415506601333618
1783003151272411000,0.956410888671875,1.0036265850067139,0.8423022031784058,1.5209400653839111
1783003151282462700,0.966462646484375,1.0087497234344482,0.11094063520431519,1.6402353048324585
1783003151292515000,0.97651513671875,0.6650821566581726,-0.9390804171562195,1.502274513244629
1783003151302566000,0.98656591796875,0.04093491658568382,-2.1673715114593506,1.1080838441848755
1783003151312618000,0.996617919921875,-0.6434676647186279,-3.0238537788391113,0.6144629120826721
1783003151322670000,1.006670166015625,-1.1391663551330566,-2.9461476802825928,0.06566982716321945
1783003151332722000,1.016721923828125,-1.2592370510101318,-2.0168449878692627,-0.47980496287345886
1783003151342774000,1.02677392578125,-0.9723110795021057,-0.38453301787376404,-0.7746791839599609
1783003151352824800,1.036824951171875,-0.43049120903015137,1.5495491027832031,-0.7170121669769287
1783003151362877000,1.046876953125,0.13380466401576996,2.9356281757354736,-0.44623473286628723
1783003151372928800,1.0569287109375,0.520625114440918,3.44059419631958,-0.28706371784210205
1783003151382980900,1.06698095703125,0.7050132751464844,3.0277678966522217,-0.31618887186050415
1783003151393033000,1.077032958984375,0.7121572494506836,1.8818000555038452,-0.5213550329208374
1783003151403084000,1.087083984375,0.557318389415741,0.4835544228553772,-0.8096571564674377
1783003151413136100,1.09713623046875,0.25848135352134705,-0.5031382441520691,-1.107624888420105
1783003151423188000,1.10718798828125,-0.16974695026874542,-0.9024680256843567,-1.4506875276565552
1783003151433240000,1.117239990234375,-0.6102772355079651,-0.8599349856376648,-1.9237521886825562
1783003151443292000,1.1272919921875,-0.9805591106414795,-0.35634613037109375,-2.594221353530884
1783003151453343000,1.137343017578125,-1.2516462802886963,0.5487622022628784,-3.325087785720825
1783003151463394800,1.147394775390625,-1.2960011959075928,1.3312433958053589,-3.9278228282928467
1783003151473447000,1.157447021484375,-1.034630298614502,1.72441565990448,-4.291743278503418
1783003151483498800,1.167498779296875,-0.55000239610672,1.6906113624572754,-4.307369232177734
1783003151493551000,1.177551025390625,-0.04887646064162254,1.3269122838974,-3.9403231143951416
1783003151503602000,1.187601806640625,0.2918401062488556,0.7356548309326172,-3.272664785385132
1783003151513654000,1.197654052734375,0.4327849745750427,-0.05757061764597893,-2.5227372646331787
1783003151523705900,1.207705810546875,0.3780412971973419,-0.7987445592880249,-1.8721846342086792
1783003151533758000,1.217758056640625,0.18965594470500946,-1.2629969120025635,-1.4507181644439697
1783003151543809800,1.227809814453125,-0.06432466208934784,-1.4238945245742798,-1.3000638484954834
1783003151553862000,1.23786181640625,-0.31394702196121216,-1.322876214981079,-1.326967716217041
1783003151563913000,1.247912841796875,-0.5314268469810486,-1.0442057847976685,-1.3867918252944946
1783003151573964800,1.25796484375,-0.6557320356369019,-0.7393742203712463,-1.3916878700256348
1783003151584017200,1.26801708984375,-0.6812536716461182,-0.49610137939453125,-1.335782766342163
1783003151594069000,1.278069091796875,-0.6459819674491882,-0.3814496099948883,-1.2216148376464844
1783003151604120000,1.2881201171875,-0.5714933276176453,-0.2553614675998688,-1.008309245109558
1783003151614172000,1.298171875,-0.5043132305145264,-0.09085587412118912,-0.7091134786605835
1783003151624224000,1.30822412109375,-0.43906816840171814,0.046364568173885345,-0.37704741954803467
1783003151634275800,1.31827587890625,-0.3607555329799652,0.11277581751346588,-0.06605278700590134
1783003151644328000,1.328327880859375,-0.2582736313343048,0.11086899042129517,0.19471675157546997
1783003151654380000,1.338380126953125,-0.15649107098579407,0.03896896913647652,0.37713077664375305
1783003151664431000,1.34843115234375,-0.10291892290115356,-0.09814947098493576,0.4849770665168762
1783003151674483000,1.35848291015625,-0.09012829512357712,-0.23068514466285706,0.5843263268470764
1783003151684535300,1.368535400390625,-0.09772922098636627,-0.37873879075050354,0.6868558526039124
1783003151694587100,1.378587158203125,-0.11389514058828354,-0.5493810772895813,0.7596560716629028
1783003151704639200,1.38863916015625,-0.10741753876209259,-0.6666541695594788,0.7558999061584473
1783003151714690300,1.398690185546875,-0.09350065886974335,-0.6133049726486206,0.708320140838623
1783003151724742100,1.4087421875,-0.07367289066314697,-0.491117000579834,0.6344603300094604
1783003151734794200,1.418794189453125,-0.07926046848297119,-0.4382367432117462,0.569866418838501
1783003151744846000,1.42884619140625,-0.057321880012750626,-0.4019485116004944,0.5160790681838989
1783003151754898200,1.438898193359375,0.01661679334938526,-0.3860134780406952,0.46053165197372437
1783003151764949000,1.448948974609375,0.0939299538731575,-0.48535603284835815,0.4716591536998749
1783003151775001300,1.45900146484375,0.16073641180992126,-0.5450542569160461,0.6310730576515198
1783003151785053200,1.46905322265625,0.20014028251171112,-0.3081572949886322,0.932335376739502
1783003151795105300,1.479105224609375,0.19110551476478577,0.20658379793167114,1.3261399269104004
1783003151805157000,1.4891572265625,0.14496491849422455,0.8756929039955139,1.7043945789337158
1783003151815208200,1.499208251953125,0.1465148776769638,1.557911992073059,1.962969422340393
1783003151825260300,1.50926025390625,0.21230266988277435,1.8941969871520996,1.9921395778656006
1783003151835312000,1.51931201171875,0.22868643701076508,1.5644094944000244,1.6488221883773804
1783003151845364000,1.529364013671875,0.08542941510677338,0.4114093780517578,0.8308271765708923
1783003151855416000,1.539416015625,-0.1927574723958969,-1.0657200813293457,-0.08315933495759964
1783003151865467100,1.549467041015625,-0.49321210384368896,-2.114346504211426,-0.6294525265693665
1783003151875519200,1.559519287109375,-0.7232580780982971,-2.612197160720825,-0.6204280853271484
1783003151885571300,1.5695712890625,-0.7149133682250977,-2.4022884368896484,-0.11434734612703323
1783003151895623200,1.579623046875,-0.4927047789096832,-1.8326513767242432,0.4493306577205658
1783003151905675300,1.58967529296875,-0.13539937138557434,-1.1461656093597412,0.7082034945487976
1783003151915726000,1.59972607421875,0.25241759419441223,-0.5777243375778198,0.6163633465766907
1783003151925778200,1.609778076171875,0.6239631772041321,-0.3472394645214081,0.3679250180721283
1783003151935830000,1.619830078125,0.9739584922790527,-0.32512617111206055,0.010811102576553822
1783003151945882000,1.629882080078125,1.213195562362671,-0.2228597104549408,-0.4778400659561157
1783003151955934200,1.639934326171875,1.1952112913131714,0.15107287466526031,-1.0686978101730347
1783003151965985000,1.649985107421875,0.7854647636413574,0.6311001777648926,-1.7250585556030273
1783003151976037400,1.660037353515625,0.014282000251114368,0.8308881521224976,-2.338345766067505
1783003151986089200,1.670089111328125,-0.8803558349609375,0.5981504917144775,-2.78078293800354
1783003151996141300,1.680141357421875,-1.7088623046875,0.18849880993366241,-2.9103572368621826
1783003152006193200,1.690193115234375,-2.22741436958313,-0.44822412729263306,-2.7043585777282715
1783003152016244200,1.700244140625,-2.400226593017578,-1.1765449047088623,-2.2175920009613037
1783003152026296000,1.710296142578125,-2.247317314147949,-1.890056848526001,-1.5835214853286743
1783003152036348200,1.72034814453125,-1.8198904991149902,-2.144258499145508,-1.0886595249176025
1783003152046400000,1.73039990234375,-1.2660635709762573,-1.8492729663848877,-0.9392952919006348
1783003152056452400,1.740452392578125,-0.6872782707214355,-1.1667596101760864,-1.0054434537887573
1783003152066503200,1.750503173828125,-0.1844199150800705,-0.35638394951820374,-1.1129709482192993
1783003152076555300,1.76055517578125,0.1431984305381775,0.3913533687591553,-1.0825872421264648
1783003152086607000,1.770607177734375,0.2944156527519226,0.9532103538513184,-0.8806756734848022
1783003152096659200,1.7806591796875,0.2968287467956543,1.1870616674423218,-0.5509009957313538
1783003152106711000,1.7907109375,0.18487024307250977,1.1279566287994385,-0.15061374008655548
1783003152116762000,1.80076220703125,-0.005870406050235033,0.8450814485549927,0.2800329923629761
1783003152126814200,1.810814208984375,-0.23883947730064392,0.466009259223938,0.651913046836853
1783003152136866000,1.820865966796875,-0.4931228756904602,0.10877681523561478,0.872326672077179
1783003152146918100,1.830918212890625,-0.7395294904708862,-0.12002494186162949,0.9159228801727295
1783003152156970200,1.84097021484375,-0.91343092918396,-0.1566583216190338,0.7713974118232727
1783003152167021300,1.851021240234375,-0.9533045887947083,-0.04910602793097496,0.5399186015129089
1783003152177073200,1.8610732421875,-0.8970211148262024,0.17676572501659393,0.35928651690483093
1783003152187125200,1.871125244140625,-0.7421875596046448,0.4072745740413666,0.30637696385383606
1783003152197177000,1.881177001953125,-0.5398193001747131,0.49988624453544617,0.3977375030517578
1783003152207229200,1.891229248046875,-0.3066059947013855,0.4648638069629669,0.6113712191581726
1783003152217281000,1.901281005859375,-0.0907789021730423,0.37528225779533386,0.8643851280212402
1783003152227332000,1.91133203125,0.0603719986975193,0.18649505078792572,1.036470890045166
1783003152237384200,1.92138427734375,0.10592430084943771,-0.09436006098985672,1.0945738554000854
1783003152247436300,1.931436279296875,0.08995598554611206,-0.40608012676239014,1.0730438232421875
1783003152257488100,1.941488037109375,0.026813238859176636,-0.5932023525238037,0.9435044527053833
1783003152267540200,1.951540283203125,-0.0529409795999527,-0.6793345808982849,0.743730366230011
1783003152277591300,1.96159130859375,-0.14270681142807007,-0.6661282181739807,0.5553838610649109
1783003152287643100,1.97164306640625,-0.1906314641237259,-0.6538084149360657,0.38777729868888855
1783003152297695200,1.9816953125,-0.16237612068653107,-0.6727498769760132,0.18214982748031616
1783003152307747000,1.9917470703125,-0.05771522596478462,-0.5900363922119141,-0.058401789516210556
1783003152317799200,2.001799072265625,0.15464337170124054,-0.4153766930103302,-0.30295559763908386
1783003152327850000,2.01185009765625,0.4869536757469177,-0.12948767840862274,-0.3511441648006439
1783003152337902000,2.021902099609375,0.9189503788948059,0.11655484139919281,-0.050091661512851715
1783003152347954200,2.0319541015625,1.2673264741897583,0.0934913381934166,0.653035044670105
1783003152358006300,2.04200634765625,1.3740800619125366,-0.3852323591709137,1.5921682119369507
1783003152368058000,2.05205810546875,1.2466049194335938,-1.2677054405212402,2.4127984046936035
1783003152378109200,2.062109130859375,0.9777249693870544,-2.249614715576172,2.8535943031311035
1783003152388161300,2.072161376953125,0.5086158514022827,-3.011368751525879,2.488001823425293
1783003152398213000,2.082213134765625,-0.13537965714931488,-3.3021066188812256,1.2668484449386597
1783003152408265200,2.09226513671875,-0.7976273894309998,-2.8073551654815674,-0.32225555181503296
1783003152418317000,2.102317138671875,-1.3009033203125,-1.4130228757858276,-1.771185040473938
1783003152428368100,2.1123681640625,-1.544943928718567,0.42553025484085083,-2.6373016834259033
1783003152438420200,2.122420166015625,-1.3191637992858887,1.9967159032821655,-2.699014902114868
1783003152448472300,2.132472412109375,-0.6512880325317383,2.906233072280884,-2.102179765701294
1783003152458524200,2.142524169921875,0.15685805678367615,3.0177853107452393,-1.4062491655349731
1783003152468576300,2.152576171875,0.6424697637557983,2.5934598445892334,-1.0549230575561523
1783003152478627300,2.16262744140625,0.7777138948440552,1.8220019340515137,-0.9039613008499146
1783003152488679200,2.17267919921875,0.6717669367790222,0.9089054465293884,-0.7211949229240417
1783003152498731300,2.182731201171875,0.34067556262016296,-0.055749814957380295,-0.41791069507598877
1783003152508783000,2.192783203125,-0.18701809644699097,-0.9645947813987732,-0.15435148775577545
1783003152518835000,2.2028349609375,-0.8787819147109985,-1.4203897714614868,-0.24615730345249176
1783003152528886000,2.212885986328125,-1.5871771574020386,-1.1221998929977417,-1.036716103553772
1783003152538938400,2.2229384765625,-2.3361783027648926,-0.06568793207406998,-2.5709826946258545
1783003152548990200,2.232990234375,-3.111098289489746,1.5267385244369507,-4.429572105407715
1783003152559042300,2.243042236328125,-3.7865350246429443,3.169853925704956,-5.947651386260986
1783003152569094100,2.25309423828125,-4.21736478805542,4.157051086425781,-6.587312698364258
1783003152579145200,2.263145263671875,-4.2370829582214355,4.313729286193848,-6.06812047958374
1783003152589197000,2.273197021484375,-3.7655370235443115,3.699061632156372,-4.687340259552002
1783003152599249200,2.283249267578125,-2.9638898372650146,2.444382905960083,-2.9888713359832764
1783003152609301000,2.293301025390625,-2.091564893722534,0.8636223673820496,-1.4050257205963135
1783003152619353300,2.303353271484375,-1.3929150104522705,-0.6012594699859619,-0.19824545085430145
1783003152629405200,2.3134052734375,-0.8800423741340637,-1.6913597583770752,0.5786886811256409
1783003152639456300,2.323456298828125,-0.3937544822692871,-2.120032548904419,0.9700431227684021
1783003152649508400,2.33350830078125,-0.022793995216488838,-1.9892306327819824,0.951836109161377
1783003152659560200,2.343560302734375,0.09746823459863663,-1.5270602703094482,0.5226365923881531
1783003152669612300,2.3536123046875,-0.03846723213791847,-0.8797882795333862,-0.28356432914733887
1783003152679664000,2.3636640625,-0.23536032438278198,-0.28107428550720215,-1.3093074560165405
1783003152689715200,2.373715087890625,-0.332869291305542,0.018248777836561203,-2.1510000228881836
1783003152699767000,2.38376708984375,-0.30131828784942627,-0.018267953768372536,-2.6171014308929443
1783003152709819100,2.393819091796875,-0.11396917700767517,-0.3837905526161194,-2.545591354370117
1783003152719871000,2.40387109375,0.15735900402069092,-0.823767364025116,-2.009660482406616
1783003152729923000,2.413923095703125,0.43375036120414734,-1.280791163444519,-1.2169444561004639
1783003152739974100,2.42397412109375,0.6444823145866394,-1.654619574546814,-0.3825974464416504
1783003152750026000,2.43402587890625,0.7678577899932861,-1.8644553422927856,0.3441893458366394
1783003152760078000,2.444078125,0.8241274356842041,-1.8215854167938232,0.9370622634887695
1783003152770130200,2.454130126953125,0.8034879565238953,-1.5192720890045166,1.2960470914840698
1783003152780182000,2.46418212890625,0.6903669834136963,-1.0565094947814941,1.366502046585083
1783003152790233000,2.474233154296875,0.4998505711555481,-0.57442706823349,1.2226500511169434
1783003152800285200,2.48428515625,0.2872730493545532,-0.1779918372631073,0.974088728427887
1783003152810337000,2.4943369140625,0.08071135729551315,0.08573994040489197,0.6893102526664734
1783003152820389000,2.50438916015625,-0.13453304767608643,0.12186678498983383,0.3660126030445099
1783003152830441000,2.51444091796875,-0.32616639137268066,0.11882918328046799,0.11608186364173889
1783003152840492000,2.524491943359375,-0.4071597754955292,0.16748113930225372,0.001636246219277382
1783003152850543900,2.5345439453125,-0.3855365216732025,0.16027329862117767,0.0397237092256546
1783003152860596200,2.54459619140625,-0.2794630825519562,0.08562968671321869,0.19393165409564972
1783003152870648000,2.55464794921875,-0.12357040494680405,-0.02394900843501091,0.44438624382019043
1783003152880700200,2.5647001953125,0.05523449182510376,-0.1945798695087433,0.7989552617073059
1783003152890751200,2.574751220703125,0.21342945098876953,-0.33772265911102295,1.1717650890350342
1783003152900803000,2.584802978515625,0.33050575852394104,-0.2879617512226105,1.4610381126403809
1783003152910855200,2.594855224609375,0.3893775939941406,0.046125683933496475,1.5554170608520508
1783003152920907000,2.604906982421875,0.427869588136673,0.412814199924469,1.342532753944397
1783003152930959000,2.614958984375,0.4983517527580261,0.4736389219760895,0.6801199316978455
1783003152941010000,2.625010009765625,0.48159804940223694,-0.04397518187761307,-0.5015248656272888
1783003152951062300,2.635062255859375,0.23781761527061462,-1.0382468700408936,-1.95264732837677
1783003152961114000,2.645114013671875,-0.13142700493335724,-1.8537065982818604,-2.999168872833252
1783003152971166200,2.655166259765625,-0.5248211622238159,-2.242553234100342,-3.3682634830474854
1783003152981218000,2.665218017578125,-0.8315675258636475,-2.177077293395996,-3.053096294403076
1783003152991270100,2.675270263671875,-0.9093957543373108,-1.8041601181030273,-2.2610902786254883
1783003153001321000,2.685321044921875,-0.7029291391372681,-1.2974201440811157,-1.2116032838821411
1783003153011373000,2.695373046875,-0.3463427722454071,-0.7277636528015137,-0.4425598382949829
1783003153021425000,2.7054248046875,0.00926140882074833,-0.2647989094257355,-0.18231387436389923
1783003153031477000,2.71547705078125,0.34588974714279175,0.31627514958381653,-0.09917531907558441
1783003153041529000,2.725529052734375,0.5902771353721619,0.6991117596626282,-0.16146932542324066
1783003153051580200,2.735580078125,0.6367080211639404,0.8624391555786133,-0.46468591690063477
1783003153061632300,2.74563232421875,0.5263863205909729,0.9716021418571472,-0.8451381921768188
1783003153071684000,2.75568408203125,0.30739936232566833,1.0451316833496094,-1.069745421409607
1783003153081736200,2.765736083984375,-0.004456001333892345,1.0796537399291992,-1.0923727750778198
1783003153091788000,2.7757880859375,-0.36908403038978577,1.0872927904129028,-1.0358593463897705
1783003153101839000,2.785839111328125,-0.7570557594299316,1.1414194107055664,-1.1085727214813232
1783003153111891000,2.795890869140625,-1.1196274757385254,1.2644374370574951,-1.3709617853164673
1783003153121943000,2.805943115234375,-1.4345753192901611,1.4027596712112427,-1.7704764604568481
1783003153131995100,2.8159951171875,-1.7177338600158691,1.5716367959976196,-2.1465659141540527
1783003153142047200,2.826047119140625,-1.9052571058273315,1.7411179542541504,-2.309443473815918
1783003153152098300,2.836098388671875,-1.9272279739379883,1.8463200330734253,-2.19539475440979
1783003153162150100,2.846150146484375,-1.793133020401001,1.823688268661499,-1.8095651865005493
1783003153172202000,2.856201904296875,-1.5657453536987305,1.6603496074676514,-1.212202787399292
1783003153182254000,2.866254150390625,-1.254952311515808,1.3619065284729004,-0.5148630738258362
1783003153192306000,2.876305908203125,-0.8940846920013428,0.9662193655967712,0.12772946059703827
1783003153202358000,2.88635791015625,-0.51450115442276,0.5442824959754944,0.678066611289978
1783003153212409000,2.8964091796875,-0.13299213349819183,0.18657733500003815,1.1301382780075073
1783003153222461000,2.9064609375,0.2013019472360611,-0.07546093314886093,1.411645531654358
1783003153232513300,2.91651318359375,0.4675900936126709,-0.24510589241981506,1.486423134803772
1783003153242565000,2.926565185546875,0.658031702041626,-0.30311328172683716,1.3805958032608032
1783003153252617200,2.9366171875,0.7828071713447571,-0.2629386782646179,1.0843923091888428
1783003153262668000,2.94666796875,0.8043428063392639,-0.19787633419036865,0.6580703258514404
1783003153272720100,2.95672021484375,0.728193461894989,-0.12004092335700989,0.251311331987381
1783003153282772000,2.96677197265625,0.5991761088371277,-0.007868309505283833,-0.03923901543021202
1783003153292824000,2.976823974609375,0.4704500734806061,0.13154125213623047,-0.1527048498392105
1783003153302876000,2.9868759765625,0.36389032006263733,0.2292744666337967,-0.08567016571760178
1783003153312927000,2.996927001953125,0.27886518836021423,0.2620430588722229,0.1650581955909729
1783003153322979300,3.006979248046875,0.23620720207691193,0.24424302577972412,0.5691345930099487
1783003153333031200,3.01703125,0.22427810728549957,0.16791896522045135,1.083986759185791
1783003153343083300,3.027083251953125,0.22238540649414062,-0.03561045974493027,1.5982862710952759
1783003153353135000,3.037135009765625,0.23259782791137695,-0.28276538848876953,2.0045599937438965
1783003153363186200,3.047186279296875,0.2672753632068634,-0.44037872552871704,2.251591205596924
1783003153373238000,3.057238037109375,0.2909950911998749,-0.5090022683143616,2.311133623123169
1783003153383290000,3.0672900390625,0.271857351064682,-0.5179781913757324,2.195979595184326
1783003153393342000,3.077342041015625,0.23329024016857147,-0.48980244994163513,2.002258539199829
1783003153403394000,3.08739404296875,0.22815486788749695,-0.4078593850135803,1.8587383031845093
1783003153413445000,3.097445068359375,0.2923373281955719,-0.23197677731513977,1.8417338132858276
1783003153423497200,3.107497314453125,0.4169783294200897,0.007813181728124619,1.948643445968628
1783003153433549000,3.117549072265625,0.6309388279914856,0.41339370608329773,2.2368452548980713
1783003153443601200,3.12760107421875,0.9450690150260925,1.163261890411377,2.707685708999634
1783003153453653000,3.137653076171875,1.3866381645202637,1.9129358530044556,3.275325059890747
1783003153463704000,3.1477041015625,1.7892996072769165,2.1800897121429443,3.7040891647338867
1783003153473756200,3.157756103515625,2.024360179901123,1.8766223192214966,3.847263813018799
1783003153483808000,3.16780810546875,2.104924201965332,1.059556484222412,3.6371071338653564
1783003153493860000,3.177860107421875,2.007230043411255,0.04568146914243698,3.1114509105682373
1783003153503912200,3.187912109375,1.7720023393630981,-0.9189612865447998,2.1757726669311523
1783003153513963000,3.197962890625,1.5023038387298584,-2.005131959915161,0.8076179623603821
1783003153524015000,3.20801513671875,1.2849043607711792,-3.0320847034454346,-0.7960241436958313
1783003153534067200,3.218067138671875,0.9331066608428955,-3.5118000507354736,-2.1871044635772705
1783003153544119000,3.228119140625,0.30946171283721924,-3.3179471492767334,-2.900205135345459
1783003153554171100,3.238171142578125,-0.31653428077697754,-2.6224217414855957,-2.8008928298950195
1783003153564223000,3.248222900390625,-0.6013779640197754,-1.8508716821670532,-2.062648057937622
1783003153574274000,3.258274169921875,-0.5112688541412354,-0.7669355273246765,-1.140332579612732
1783003153584326100,3.268326171875,-0.2320907562971115,0.16281741857528687,-0.5629429817199707
1783003153594378000,3.2783779296875,-0.004503405187278986,0.8423120379447937,-0.5533952713012695
1783003153604430000,3.28843017578125,0.20191794633865356,1.2612688541412354,-0.9097238183021545
1783003153614482200,3.298482177734375,0.40755951404571533,1.3665637969970703,-1.3068746328353882
1783003153624533200,3.308533203125,0.5362266898155212,1.2658745050430298,-1.518315315246582
1783003153634585000,3.318585205078125,0.5213795304298401,1.0916308164596558,-1.5180190801620483
1783003153644637200,3.32863720703125,0.3806149959564209,1.0014894008636475,-1.489137887954712
1783003153654689000,3.33868896484375,0.16748087108135223,1.0073691606521606,-1.5688823461532593
1783003153664741000,3.3487412109375,-0.08431701362133026,1.1281051635742188,-1.7414194345474243
1783003153674792000,3.3587919921875,-0.3906090259552002,1.3908212184906006,-1.9212552309036255
1783003153684844000,3.368843994140625,-0.7799602746963501,1.6851332187652588,-2.041231155395508
1783003153694895900,3.378895751953125,-1.2330867052078247,1.8434501886367798,-2.020322561264038
1783003153704948200,3.3889482421875,-1.6240373849868774,1.88914155960083,-1.848975419998169
1783003153715000000,3.399,-1.7956502437591553,1.869345784187317,-1.5935457944869995
1783003153725051100,3.409051025390625,-1.7432104349136353,1.6965938806533813,-1.3283135890960693
1783003153735103200,3.419103271484375,-1.532889723777771,1.3411402702331543,-1.0735141038894653
1783003153745155000,3.429155029296875,-1.21782386302948,0.9119971394538879,-0.8422811627388
1783003153755207200,3.439207275390625,-0.8470950722694397,0.46420547366142273,-0.6473939418792725
1783003153765259000,3.449259033203125,-0.46697863936424255,0.07948923110961914,-0.48972415924072266
1783003153775311000,3.45931103515625,-0.10247630625963211,-0.14058054983615875,-0.38921433687210083
1783003153785362000,3.46936181640625,0.20105400681495667,-0.23387427628040314,-0.3570321500301361
1783003153795414300,3.479414306640625,0.3826938569545746,-0.2244727909564972,-0.34061482548713684
1783003153805466000,3.489466064453125,0.45473769307136536,-0.12396109104156494,-0.31918278336524963
1783003153815518200,3.499518310546875,0.448041170835495,0.0012418320402503014,-0.30684807896614075
1783003153825570000,3.509570068359375,0.3973950445652008,0.1389504224061966,-0.30562862753868103
1783003153835621000,3.51962109375,0.33921322226524353,0.2826751172542572,-0.2946220338344574
1783003153845673000,3.5296728515625,0.3076731264591217,0.3712470531463623,-0.24879597127437592
1783003153855725000,3.53972509765625,0.2860274910926819,0.4310259521007538,-0.17569752037525177
1783003153865777000,3.54977685546875,0.30762574076652527,0.4262959063053131,-0.09668872505426407
1783003153875829000,3.5598291015625,0.3942525088787079,0.3654029965400696,0.0012724583502858877
1783003153885880000,3.569880126953125,0.5135818123817444,0.27473703026771545,0.07872623950242996
1783003153895932200,3.57993212890625,0.6182928085327148,0.14624349772930145,0.11752317100763321
1783003153905984300,3.589984375,0.6573099493980408,0.008105331100523472,0.12862162292003632
1783003153916036000,3.6000361328125,0.6131172180175781,-0.12237171828746796,0.18616214394569397
1783003153926088200,3.610088134765625,0.5371875762939453,-0.22338168323040009,0.3433097004890442
1783003153936139000,3.620138916015625,0.4668899476528168,-0.23557551205158234,0.5649698972702026
1783003153946191000,3.630191162109375,0.4174550175666809,-0.19415882229804993,0.8009832501411438
1783003153956243000,3.640242919921875,0.39608314633369446,-0.0920412465929985,1.023238182067871
1783003153966295000,3.650294921875,0.43535733222961426,0.01537336315959692,1.2222111225128174
1783003153976347100,3.66034716796875,0.5230746865272522,0.06444636732339859,1.365817904472351
1783003153986398000,3.67039794921875,0.6068214774131775,-0.04021346569061279,1.4001049995422363
1783003153996450300,3.6804501953125,0.6365631222724915,-0.3612458109855652,1.3443807363510132
1783003154006502100,3.690502197265625,0.5787035822868347,-0.8549743294715881,1.2369847297668457
1783003154016554200,3.70055419921875,0.4931474030017853,-1.3708539009094238,1.1123440265655518
1783003154026606000,3.710606201171875,0.4213150143623352,-1.7594610452651978,1.0017712116241455
1783003154036658200,3.720658203125,0.3602050542831421,-1.8177824020385742,0.9945492744445801
1783003154046709000,3.730708984375,0.33415135741233826,-1.4727882146835327,1.2316614389419556
1783003154056761000,3.740760986328125,0.40082278847694397,-0.7850058674812317,1.69189453125
1783003154066813000,3.75081298828125,0.5712230205535889,-0.16465073823928833,2.1938250064849854
1783003154076865300,3.760865234375,0.7457777857780457,0.11848696321249008,2.411616086959839
1783003154086916000,3.770916015625,0.805971086025238,-0.1471433788537979,2.1471829414367676
1783003154096968200,3.78096826171875,0.5779163241386414,-1.053356647491455,1.4970682859420776
1783003154107020000,3.79102001953125,0.08894238620996475,-2.3076930046081543,0.797162652015686
1783003154117072100,3.801072021484375,-0.4549350142478943,-3.4368274211883545,0.27009621262550354
1783003154127124000,3.8111240234375,-0.7630883455276489,-3.909022331237793,-0.15394508838653564
1783003154137176000,3.821176025390625,-0.6765126585960388,-3.4826087951660156,-0.5690940618515015
1783003154147227100,3.83122705078125,-0.3608391582965851,-2.5980794429779053,-0.9300296306610107
1783003154157279000,3.841279052734375,0.00788455456495285,-1.5486414432525635,-0.988502025604248
1783003154167331000,3.8513310546875,0.29092586040496826,-0.6127731204032898,-0.735814094543457
1783003154177383200,3.861383056640625,0.36490634083747864,0.07697360962629318,-0.40171948075294495
1783003154187435300,3.871435302734375,0.26457732915878296,0.662894606590271,-0.12230833619832993
1783003154197486000,3.881486083984375,0.1225176602602005,1.1222081184387207,0.05625022202730179
1783003154207538200,3.8915380859375,-0.05139448121190071,1.488739252090454,0.06873565167188644
1783003154217590000,3.901590087890625,-0.2499544471502304,1.8420592546463013,-0.10165818780660629
1783003154227642000,3.91164208984375,-0.4719710052013397,2.1936771869659424,-0.3499161899089813
1783003154237694000,3.92169384765625,-0.7136642932891846,2.5064947605133057,-0.6558316349983215
1783003154247745000,3.9317451171875,-1.0078098773956299,2.618831157684326,-1.068446159362793
1783003154257797000,3.941797119140625,-1.373442530632019,2.177696704864502,-1.7201926708221436
1783003154267849200,3.95184912109375,-1.7785245180130005,1.2872319221496582,-2.6062681674957275
1783003154277901000,3.961901123046875,-2.0490646362304688,0.4388388693332672,-3.3310701847076416
1783003154287953200,3.971953125,-2.0225837230682373,-0.0628623217344284,-3.595334768295288
1783003154298005000,3.9820048828125,-1.7425882816314697,-0.17068785429000854,-3.206634759902954
1783003154308056000,3.99205615234375,-1.2376055717468262,-0.07348646968603134,-2.203885316848755
1783003154318108200,4.002108154296875,-0.5386733412742615,-0.013246563263237476,-0.9220779538154602
1783003154328160000,4.012159912109375,0.18237194418907166,0.0996650755405426,0.26803678274154663
1783003154338212000,4.022212158203125,0.7400115132331848,0.22470954060554504,1.1613720655441284
1783003154348263000,4.032262939453125,1.0677741765975952,0.3346269726753235,1.7595961093902588
1783003154358315000,4.04231494140625,1.1902905702590942,0.4794566035270691,2.131289005279541
1783003154368367000,4.0523671875,1.1475545167922974,0.651692807674408,2.2801878452301025
1783003154378419200,4.062419189453125,0.9661557078361511,0.7719611525535583,2.264198064804077
1783003154388471000,4.072470947265625,0.6881275177001953,0.8123570680618286,2.1455259323120117
1783003154398523100,4.082523193359375,0.3621307909488678,0.7812345623970032,1.9335696697235107
1783003154408574200,4.09257421875,0.0608321912586689,0.8120856881141663,1.6495553255081177
1783003154418626000,4.1026259765625,-0.18523217737674713,0.958852231502533,1.3295317888259888
1783003154428678100,4.11267822265625,-0.2944103181362152,1.1138734817504883,1.0525829792022705
1783003154438730000,4.12272998046875,-0.2789685130119324,1.1820213794708252,0.8949425220489502
1783003154448782000,4.132781982421875,-0.17328763008117676,1.0983999967575073,0.8759093880653381
1783003154458833000,4.1428330078125,-0.0065444521605968475,0.8419133424758911,1.0044420957565308
1783003154468885200,4.15288525390625,0.1739177405834198,0.45886796712875366,1.2244000434875488
1783003154478937000,4.16293701171875,0.3282013237476349,0.017703097313642502,1.492094874382019
1783003154488989200,4.1729892578125,0.38754773139953613,-0.4165250360965729,1.7309551239013672
1783003154499041000,4.183041015625,0.3393647372722626,-0.8186125755310059,1.9143449068069458
1783003154509092000,4.193092041015625,0.21101637184619904,-1.1843503713607788,2.040661334991455
1783003154519144000,4.20314404296875,0.06975404918193817,-1.3702826499938965,2.076392650604248
1783003154529196000,4.213196044921875,-0.02231888845562935,-1.3655768632888794,1.998613715171814
1783003154539247900,4.223247802734375,-0.06511055678129196,-1.235366940498352,1.8506442308425903
1783003154549300200,4.23330029296875,-0.06060076132416725,-1.023263931274414,1.773115873336792
1783003154559351300,4.243351318359375,-0.07476558536291122,-0.7959602475166321,1.8245502710342407
1783003154569403100,4.253403076171875,-0.15848524868488312,-0.6124375462532043,2.02664852142334
1783003154579455200,4.263455322265625,-0.3466242551803589,-0.6541213393211365,2.2491650581359863
1783003154589507000,4.273507080078125,-0.6372275948524475,-0.9817335605621338,2.330108880996704
1783003154599559200,4.28355908203125,-0.9659125208854675,-1.419642448425293,2.263338804244995
1783003154609610000,4.29360986328125,-1.186514139175415,-1.590272068977356,2.089055299758911
1783003154619662000,4.303662109375,-1.1910876035690308,-1.5116853713989258,1.9170701503753662
1783003154629714000,4.3137138671875,-1.0705558061599731,-1.165442943572998,1.8944164514541626
1783003154639766000,4.32376611328125,-0.894288957118988,-0.5547705292701721,2.23268723487854
1783003154649818000,4.333818115234375,-0.6855360269546509,0.16712400317192078,2.9227631092071533
1783003154659869200,4.343869140625,-0.530646562576294,0.48398318886756897,3.5775208473205566
1783003154669921300,4.35392138671875,-0.4731539785861969,0.2569979727268219,3.807098627090454
1783003154679973000,4.36397314453125,-0.4822870194911957,-0.6279315948486328,3.4474825859069824
1783003154690025200,4.374025146484375,-0.5108427405357361,-1.8369669914245605,2.559634208679199
1783003154700077300,4.384077392578125,-0.5768153667449951,-2.8455617427825928,1.3997491598129272
1783003154710128400,4.39412841796875,-0.6660614013671875,-3.2269461154937744,0.3846248984336853
1783003154720180200,4.40418017578125,-0.6375657916069031,-2.6081576347351074,0.06261704117059708
1783003154730232300,4.414232421875,-0.45770391821861267,-1.1119472980499268,0.4671480059623718
1783003154740284200,4.4242841796875,-0.20537152886390686,0.3740636110305786,1.159671664237976
1783003154750336300,4.434336181640625,0.11814901232719421,1.2172033786773682,1.5702881813049316
1783003154760387000,4.444386962890625,0.462907999753952,1.3907221555709839,1.5046870708465576
1783003154770439200,4.454439208984375,0.6659988164901733,1.0107641220092773,1.0657485723495483
1783003154780491000,4.464490966796875,0.7223105430603027,0.22293055057525635,0.45978623628616333
1783003154790543400,4.47454345703125,0.7137452960014343,-0.5828093886375427,-0.09137305617332458
1783003154800595200,4.48459521484375,0.6563475131988525,-1.0183815956115723,-0.5915695428848267
1783003154810646300,4.494646240234375,0.5905746221542358,-0.9618362784385681,-1.0370838642120361
1783003154820698400,4.504698486328125,0.5060977935791016,-0.5805347561836243,-1.4290117025375366
1783003154830750200,4.514750244140625,0.42196720838546753,-0.09151686728000641,-1.833055853843689
1783003154840802300,4.52480224609375,0.3295198380947113,0.24813656508922577,-2.3458359241485596
1783003154850854100,4.534854248046875,0.2701593041419983,0.3311576843261719,-3.0451505184173584
1783003154860906200,4.54490625,0.19302405416965485,0.32192185521125793,-3.7259511947631836
1783003154870957000,4.55495703125,0.06989199668169022,0.288669615983963,-4.097609996795654
1783003154881009200,4.565009033203125,-0.04556934908032417,0.3221500813961029,-4.019919395446777
1783003154891061200,4.575061279296875,-0.11121067404747009,0.48830416798591614,-3.4492859840393066
1783003154901113300,4.58511328125,-0.15243880450725555,0.7472241520881653,-2.543696165084839
1783003154911165200,4.595165283203125,-0.18018415570259094,0.9648376703262329,-1.5992891788482666
1783003154921216300,4.60521630859375,-0.1770261824131012,1.133391261100769,-0.8600060939788818
1783003154931268000,4.61526806640625,-0.1164613664150238,1.187630295753479,-0.3937489092350006
1783003154941320200,4.6253203125,-0.06578727066516876,1.0806306600570679,-0.20673267543315887
1783003154951372000,4.6353720703125,-0.08524272590875626,0.8452945351600647,-0.2568379044532776
1783003154961424100,4.645424072265625,-0.1728561967611313,0.520479142665863,-0.3942341208457947
1783003154971475200,4.65547509765625,-0.2322007417678833,0.23284442722797394,-0.5515920519828796
1783003154981527300,4.66552734375,-0.22849921882152557,0.07843861728906631,-0.726635754108429
1783003154991579400,4.675579345703125,-0.1858590841293335,-0.00056219327962026,-0.9214074015617371
1783003155001631200,4.68563134765625,-0.11969071626663208,-0.04042385518550873,-1.0790513753890991
1783003155011683300,4.695683349609375,-0.043716587126255035,-0.04596429690718651,-1.1704987287521362
1783003155021734100,4.705734130859375,0.02851846069097519,-0.03538275882601738,-1.2100759744644165
1783003155031786200,4.7157861328125,0.08249940723180771,0.09957479685544968,-1.123004674911499
1783003155041838000,4.725838134765625,0.1624099463224411,0.32386595010757446,-0.93747878074646
1783003155051890200,4.73589013671875,0.23359358310699463,0.41327226161956787,-0.7389031052589417
1783003155061942000,4.74594189453125,0.2882799804210663,0.34975239634513855,-0.519585907459259
1783003155071993000,4.7559931640625,0.3483526408672333,0.1878356784582138,-0.2635911703109741
1783003155082045400,4.76604541015625,0.3808128535747528,-0.04603300616145134,0.017590444535017014
1783003155092097300,4.77609716796875,0.36523789167404175,-0.3259328305721283,0.30207571387290955
1783003155102149400,4.7861494140625,0.30477800965309143,-0.5863726735115051,0.5140726566314697
1783003155112201200,4.796201171875,0.20834708213806152,-0.8057106137275696,0.6250167489051819
1783003155122252300,4.806252197265625,0.1297345608472824,-0.8907016515731812,0.6920887231826782
1783003155132304100,4.81630419921875,0.07789400219917297,-0.8149294257164001,0.7488545179367065
1783003155142356200,4.826356201171875,0.04781998693943024,-0.6725331544876099,0.8339462280273438
1783003155152408000,4.836407958984375,0.06250093132257462,-0.49549710750579834,0.9571627378463745
1783003155162460400,4.84646044921875,0.13389788568019867,-0.3448154330253601,1.0622668266296387
1783003155172511000,4.856510986328125,0.22916767001152039,-0.3453376889228821,1.163056492805481
1783003155182563300,4.866563232421875,0.25814738869667053,-0.4781833589076996,1.1947846412658691
1783003155192615200,4.876615234375,0.2038455456495285,-0.6572625637054443,1.1140016317367554
1783003155202667300,4.886667236328125,0.031326230615377426,-0.9356971383094788,0.9543589353561401
1783003155212719000,4.896718994140625,-0.2275324910879135,-1.2240253686904907,0.7553685903549194
1783003155222770200,4.906770263671875,-0.4804249405860901,-1.2368884086608887,0.5385998487472534
1783003155232822300,4.916822265625,-0.6203162670135498,-0.7721907496452332,0.49113935232162476
1783003155242874000,4.9268740234375,-0.6030440330505371,0.0630391538143158,0.7229124307632446
1783003155252926200,4.93692626953125,-0.5564736127853394,0.7431313991546631,1.1928801536560059
1783003155262978300,4.946978271484375,-0.44940656423568726,0.8071969151496887,1.811153531074524
1783003155273029400,4.957029296875,-0.30243656039237976,0.25219497084617615,2.4347126483917236
1783003155283081200,4.967081298828125,-0.2762819230556488,-0.8344405293464661,2.887068748474121
1783003155293133300,4.97713330078125,-0.5006452798843384,-1.9428428411483765,3.1069061756134033
1783003155303185200,4.98718505859375,-0.9207069873809814,-2.5686161518096924,3.000298023223877
1783003155313237200,4.9972373046875,-1.3912463188171387,-2.3886759281158447,2.623011589050293
1783003155323288300,5.007288330078125,-1.7281478643417358,-1.4851444959640503,1.982574224472046
1783003155333340200,5.017340087890625,-1.809433937072754,-0.08424297720193863,1.2514086961746216
1783003155343392300,5.027392333984375,-1.637878656387329,1.3242714405059814,0.5388016700744629
1783003155353444000,5.037444091796875,-1.3978612422943115,2.249643564224243,-0.04902426898479462
1783003155363496200,5.04749609375,-1.192322015762329,2.438220739364624,-0.4379752278327942
1783003155373548300,5.05754833984375,-1.0892189741134644,1.9109141826629639,-0.7416581511497498
1783003155383599400,5.067599365234375,-0.9688917994499207,0.8294615149497986,-0.9688867330551147
1783003155393651200,5.077651123046875,-0.7315772771835327,-0.5008175373077393,-1.1417073011398315
1783003155403703300,5.087703369140625,-0.4141308665275574,-1.6511071920394897,-1.261367917060852
1783003155413755100,5.097755126953125,-0.1478816121816635,-2.1119847297668457,-1.212138056755066
1783003155423807200,5.10780712890625,0.00926167517900467,-1.726276159286499,-0.9487282037734985
1783003155433858000,5.117858154296875,0.09659178555011749,-0.9478003978729248,-0.6577275395393372
1783003155443910100,5.12791015625,0.14810504019260406,-0.216605544090271,-0.5515608787536621
1783003155453962200,5.137962158203125,0.02676929533481598,0.2976655066013336,-0.752623975276947
1783003155464014300,5.148014404296875,-0.3668837249279022,0.44650477170944214,-1.2406128644943237
1783003155474066200,5.158066162109375,-0.9304144978523254,0.2444869726896286,-1.9322596788406372
1783003155484117200,5.1681171875,-1.4509519338607788,-0.10361773520708084,-2.754493474960327
1783003155494169300,5.17816943359375,-1.7615982294082642,-0.475839763879776,-3.480818271636963
1783003155504221200,5.18822119140625,-1.7193742990493774,-0.6459457278251648,-3.654219388961792
1783003155514273300,5.198273193359375,-1.2512295246124268,-0.2478817105293274,-2.979389190673828
1783003155524325000,5.2083251953125,-0.6668145060539246,0.16261234879493713,-2.1525516510009766
1783003155534376200,5.218376220703125,-0.11489302664995193,0.3247937858104706,-1.1736258268356323
1783003155544428000,5.228427978515625,0.36696362495422363,0.28038477897644043,-0.22776737809181213
1783003155554480400,5.23848046875,0.7139074802398682,-0.025017468258738518,0.5757951140403748
1783003155564532200,5.2485322265625,0.8136122226715088,-0.3861064314842224,1.149837613105774
1783003155574584300,5.258584228515625,0.7052740454673767,-0.5811435580253601,1.4283627271652222
1783003155584635100,5.26863525390625,0.4483961760997772,-0.49428030848503113,1.4079335927963257
1783003155594687200,5.278687255859375,0.13054175674915314,-0.15133599936962128,1.1033828258514404
1783003155604739000,5.288739013671875,-0.20826558768749237,0.3272859752178192,0.6508203744888306
1783003155614791200,5.298791259765625,-0.5060160756111145,0.8035579919815063,0.1841445416212082
1783003155624842200,5.30884228515625,-0.6884114146232605,1.1504602432250977,-0.25435638427734375
1783003155634894000,5.31889404296875,-0.708704948425293,1.2799586057662964,-0.593108594417572
1783003155644946400,5.328946533203125,-0.5793962478637695,1.1709411144256592,-0.7935229539871216
1783003155654997800,5.338997802734375,-0.3519340753555298,0.8984541296958923,-0.8401135802268982
1783003155665049900,5.3490498046875,-0.07486491650342941,0.4881955087184906,-0.6894753575325012
1783003155675101700,5.359101806640625,0.2398485541343689,0.06102021038532257,-0.3099490702152252
1783003155685152800,5.36915283203125,0.4941695034503937,-0.18213677406311035,0.18670223653316498
1783003155695204600,5.37920458984375,0.6493052840232849,-0.272566556930542,0.6767374277114868
1783003155705256700,5.389256591796875,0.7154068350791931,-0.28363969922065735,1.1322330236434937
1783003155715308800,5.399308837890625,0.7300563454627991,-0.27533623576164246,1.4762756824493408
1783003155725361000,5.40936083984375,0.6488205790519714,-0.224117249250412,1.6441413164138794
1783003155735412000,5.419411865234375,0.4804997742176056,-0.11330551654100418,1.5978244543075562
1783003155745463800,5.4294638671875,0.28061968088150024,0.047997087240219116,1.3764675855636597
1783003155755516000,5.439515869140625,0.10345235466957092,0.16287679970264435,1.0281740427017212
1783003155765567700,5.449567626953125,-0.030224481597542763,0.24043044447898865,0.6368553042411804
1783003155775619800,5.459619873046875,-0.12269023060798645,0.31314486265182495,0.31195175647735596
1783003155785670700,5.469670654296875,-0.1709328591823578,0.3385133445262909,0.1661759316921234
1783003155795722800,5.47972265625,-0.12810656428337097,0.15713822841644287,0.21942156553268433
1783003155805774600,5.489774658203125,0.0771576315164566,-0.21970413625240326,0.38932883739471436
1783003155815827000,5.499826904296875,0.37137433886528015,-0.45222365856170654,0.5335749983787537
1783003155825878800,5.509878662109375,0.634199857711792,-0.6276796460151672,0.5360565185546875
1783003155835929900,5.519929931640625,0.7961632013320923,-0.5945065021514893,0.49087652564048767
1783003155845982000,5.52998193359375,0.7808595895767212,-0.3122095763683319,0.5443146824836731
1783003155856033800,5.54003369140625,0.6056861877441406,0.09674917906522751,0.8199833035469055
1783003155866086000,5.5500859375,0.31651562452316284,0.47241413593292236,1.2911889553070068
1783003155876137700,5.5601376953125,-0.0659867376089096,0.7431071400642395,1.6522200107574463
1783003155886188800,5.570188720703125,-0.4706711173057556,0.3431245982646942,1.4837082624435425
1783003155896240600,5.58024072265625,-0.8815686106681824,-0.48402419686317444,0.8126915693283081
1783003155906293000,5.59029296875,-1.2041666507720947,-1.4103189706802368,0.06095682829618454
1783003155916344800,5.6003447265625,-1.3497822284698486,-1.657964825630188,-0.2729510962963104
1783003155926397000,5.61039697265625,-1.4358015060424805,-1.326380729675293,-0.17251957952976227
1783003155936447700,5.62044775390625,-1.4855506420135498,-0.681727409362793,0.10097695142030716
1783003155946499800,5.630499755859375,-1.519593358039856,-0.017550498247146606,0.14067722856998444
1783003155956551700,5.6405517578125,-1.349697470664978,0.5636609792709351,-0.10718397796154022
1783003155966603800,5.650603759765625,-0.8069937229156494,0.961310863494873,-0.5143061876296997
1783003155976655600,5.660655517578125,-0.17211636900901794,1.1042851209640503,-0.9760522842407227
1783003155986706700,5.670706787109375,0.288634717464447,1.0047749280929565,-1.3356261253356934
1783003155996758800,5.6807587890625,0.378854364156723,0.9668923020362854,-1.4861717224121094
1783003156006811000,5.690810791015625,0.05577165260910988,1.2821853160858154,-1.413291335105896
1783003156016863000,5.700863037109375,-0.5223100781440735,1.4819782972335815,-1.2473028898239136
1783003156026914800,5.710914794921875,-1.0440478324890137,1.5048545598983765,-1.1062936782836914
1783003156036966000,5.7209658203125,-1.393336534500122,1.2684603929519653,-1.1226571798324585
1783003156047017700,5.731017822265625,-1.5957634449005127,0.6317694783210754,-1.3131107091903687
1783003156057069800,5.74106982421875,-1.5981792211532593,-0.4202883541584015,-1.6335909366607666
1783003156067121700,5.75112158203125,-1.3780364990234375,-1.5344494581222534,-1.9583847522735596
1783003156077173800,5.761173828125,-0.9905425310134888,-2.322936534881592,-2.1128125190734863
1783003156087224800,5.771224853515625,-0.5666735172271729,-2.5565311908721924,-2.012890100479126
1783003156097276700,5.781276611328125,-0.2316204458475113,-2.1746888160705566,-1.6727982759475708
1783003156107328800,5.791328857421875,0.01733105257153511,-1.3065662384033203,-1.072562575340271
1783003156117380900,5.801380859375,0.2535952627658844,-0.4073360860347748,-0.3307954967021942
1783003156127432000,5.811431884765625,0.47819826006889343,0.15781758725643158,0.3677076995372772
1783003156137483800,5.82148388671875,0.7014651894569397,0.29507505893707275,0.8995534777641296
1783003156147536000,5.831535888671875,0.7771309018135071,0.13293328881263733,1.2324930429458618
1783003156157587700,5.841587646484375,0.7207001447677612,-0.17554625868797302,1.330063819885254
1783003156167639800,5.851639892578125,0.5411878824234009,-0.42529964447021484,1.1709096431732178
1783003156177690600,5.861690673828125,0.12545113265514374,-0.4922861158847809,0.6838715076446533
1783003156187742700,5.87174267578125,-0.46757519245147705,-0.470791220664978,0.10295594483613968
1783003156197794800,5.881794921875,-0.9933598637580872,-0.2716064751148224,-0.33364349603652954
1783003156207847000,5.891846923828125,-1.1916351318359375,-0.12532755732536316,-0.5583996176719666
1783003156217898800,5.901898681640625,-1.0014811754226685,-0.11907898634672165,-0.5805895924568176
1783003156227949800,5.91194970703125,-0.5400704145431519,-0.10015882551670074,-0.49831339716911316
1783003156238002000,5.922001953125,-0.03629489243030548,-0.12831908464431763,-0.12900325655937195
1783003156248053800,5.9320537109375,0.3645143210887909,-0.029879335314035416,0.48017725348472595
1783003156258105900,5.94210595703125,0.5272156000137329,0.026683276519179344,1.0447986125946045
1783003156268157700,5.95215771484375,0.5677933692932129,-0.05037369206547737,1.4600330591201782
1783003156278208800,5.962208740234375,0.5609133839607239,-0.3054715096950531,1.7507919073104858
1783003156288260600,5.972260498046875,0.5603983402252197,-0.7151721715927124,1.9076417684555054
1783003156298313000,5.98231298828125,0.5057835578918457,-1.0262477397918701,1.9099637269973755
1783003156308364800,5.99236474609375,0.4149942696094513,-1.1077921390533447,1.7758828401565552
1783003156318417000,6.0024169921875,0.3700835108757019,-0.9693988561630249,1.5254278182983398
1783003156328468000,6.012468017578125,0.3655553460121155,-0.6756317019462585,1.2059677839279175
1783003156338519800,6.022519775390625,0.38515275716781616,-0.3029361665248871,0.9076836109161377
1783003156348572000,6.032572021484375,0.36416250467300415,-0.010091782547533512,0.7124195694923401
1783003156358623700,6.042623779296875,0.2785346806049347,0.1791095733642578,0.7208260893821716
1783003156368675600,6.052675537109375,0.19870483875274658,0.21659356355667114,0.9451148509979248
1783003156378726700,6.0627265625,0.1282237470149994,0.10620579868555069,1.3046852350234985
1783003156388778800,6.07277880859375,0.01552196778357029,-0.03459739312529564,1.6427687406539917
1783003156398830800,6.082830810546875,-0.0008902947301976383,-0.2385188341140747,1.8888616561889648
1783003156408883000,6.092883056640625,0.1016501933336258,-0.5614840984344482,2.025796413421631
1783003156418934800,6.102934814453125,0.21978110074996948,-0.8385820388793945,2.016964912414551
1783003156428985900,6.11298583984375,0.30684995651245117,-1.0108562707901,1.787378191947937
1783003156439037700,6.12303759765625,0.2952588200569153,-0.9234212636947632,1.321519136428833
1783003156449089800,6.13308984375,0.227345809340477,-0.6422127485275269,0.9341580867767334
1783003156459141600,6.1431416015625,0.21784257888793945,0.008320780470967293,1.150856614112854
1783003156469193700,6.15319384765625,0.16280755400657654,0.8686978220939636,1.5341349840164185
1783003156479244800,6.163244873046875,0.018263159319758415,1.3086267709732056,1.5686535835266113
1783003156489297000,6.173296875,-0.36119282245635986,1.4199657440185547,0.9713645577430725
1783003156499349000,6.183348876953125,-0.6098998188972473,1.238576054573059,0.9561057090759277
1783003156509400800,6.19340087890625,-0.4863818883895874,-0.08158966898918152,0.22991761565208435
1783003156519453000,6.203452880859375,-0.5648745894432068,-0.461943656206131,-1.068300485610962
1783003156529503700,6.213503662109375,-0.6626405715942383,-0.4641183912754059,-2.1512887477874756
1783003156539555800,6.223555908203125,-0.6104143857955933,-0.39539578557014465,-2.4693799018859863
1783003156549607700,6.233607666015625,-0.21988868713378906,0.07311708480119705,-2.0749387741088867
1783003156559659800,6.24365966796875,0.18167684972286224,0.3100566565990448,-1.6568869352340698
1783003156569711600,6.253711669921875,0.5534583926200867,0.36112383008003235,-1.2500367164611816
1783003156579762700,6.2637626953125,1.0517139434814453,0.2058386504650116,-0.8812692761421204
1783003156589814800,6.273814697265625,1.4959393739700317,-0.038227811455726624,-0.8050869107246399
1783003156599867000,6.283866943359375,1.7082992792129517,0.04561781883239746,-1.060481071472168
1783003156609918700,6.293918701171875,1.5834393501281738,0.5096608400344849,-1.6050035953521729
1783003156619970800,6.303970703125,1.1664714813232422,1.0178310871124268,-2.2812113761901855
1783003156630022000,6.31402197265625,0.5451306700706482,1.286483645439148,-2.7526986598968506
1783003156640073700,6.32407373046875,-0.09808741509914398,1.1149747371673584,-2.761927843093872
1783003156650125800,6.334125732421875,-0.5721505880355835,0.7761468887329102,-2.3554418087005615
1783003156660181800,6.344181640625,-0.8623493909835815,0.47843796014785767,-1.772675633430481
1783003156670233600,6.354233642578125,-1.0520533323287964,0.30963507294654846,-1.0627278089523315
1783003156680284700,6.36428466796875,-1.1197832822799683,0.11535908281803131,-0.22101333737373352
1783003156690336800,6.374336669921875,-1.1012303829193115,-0.3632517158985138,0.4894988536834717
1783003156700388900,6.384388916015625,-0.975367546081543,-0.8731243014335632,0.9408889412879944
1783003156710441000,6.39444091796875,-0.779819130897522,-1.1797081232070923,1.0699065923690796
1783003156720492800,6.404492919921875,-0.6772335767745972,-1.38950777053833,0.8352434635162354
1783003156730543900,6.4145439453125,-0.6724811792373657,-1.3816874027252197,0.26263055205345154
1783003156740595700,6.424595703125,-0.6495130062103271,-0.9931199550628662,-0.5424640774726868
1783003156750647800,6.434647705078125,-0.6079402565956116,-0.3895656168460846,-1.331926703453064
1783003156760699600,6.44469970703125,-0.611414909362793,0.24627448618412018,-1.8997470140457153
1783003156770751700,6.454751708984375,-0.6212260127067566,0.8309406042098999,-2.120781660079956
1783003156780802800,6.464802734375,-0.5857702493667603,1.3445799350738525,-1.9709831476211548
1783003156790854700,6.474854736328125,-0.4218287467956543,1.5020297765731812,-1.5104682445526123
1783003156800907000,6.484906982421875,-0.20377443730831146,1.1130279302597046,-0.9650499224662781
1783003156810958800,6.494958740234375,-0.07825884968042374,0.5300816893577576,-0.48232191801071167
1783003156821010000,6.505010009765625,-0.08795329183340073,0.02442970871925354,-0.07653365284204483
1783003156831061800,6.515061767578125,-0.19073426723480225,-0.33184319734573364,0.2494652271270752
1783003156841113900,6.52511376953125,-0.32502496242523193,-0.48998913168907166,0.3730369508266449
1783003156851165700,6.535165771484375,-0.4332912564277649,-0.4417648911476135,0.3016860783100128
1783003156861217800,6.5452177734375,-0.5097918510437012,-0.2199842929840088,0.1173228994011879
1783003156871268900,6.555268798828125,-0.554107666015625,0.08848778903484344,-0.09709645807743073
1783003156881320700,6.56532080078125,-0.5456830263137817,0.3458005487918854,-0.27943962812423706
1783003156891372800,6.575372802734375,-0.455363005399704,0.49554237723350525,-0.2868301570415497
1783003156901425000,6.5854248046875,-0.24836693704128265,0.566807210445404,-0.08085117489099503
1783003156911476700,6.595476806640625,0.02719646692276001,0.48731401562690735,0.22229965031147003
1783003156921527800,6.60552783203125,0.28808265924453735,0.28964993357658386,0.5418201088905334
1783003156931580000,6.615579833984375,0.48080524802207947,0.03880518674850464,0.9135348200798035
1783003156941631700,6.6256318359375,0.6018802523612976,-0.17341172695159912,1.202438235282898
1783003156951683800,6.635683837890625,0.6442655324935913,-0.28591111302375793,1.2463082075119019
1783003156961735700,6.645735595703125,0.604015052318573,-0.26555392146110535,0.9684353470802307
1783003156971786800,6.655786865234375,0.48515790700912476,-0.2504628300666809,0.3651960790157318
1783003156981838600,6.665838623046875,0.26206091046333313,-0.32191306352615356,-0.5793877243995667
1783003156991891000,6.675890869140625,-0.02899463288486004,-0.2617485225200653,-1.6649377346038818
1783003157001942800,6.68594287109375,-0.31562188267707825,0.07243984192609787,-2.616752862930298
1783003157011995000,6.695994873046875,-0.4515674412250519,0.39363011717796326,-3.1103549003601074
1783003157022046000,6.7060458984375,-0.40678292512893677,0.5497661828994751,-2.9900035858154297
1783003157032097800,6.716097900390625,-0.19332365691661835,0.553809642791748,-2.199138879776001
1783003157042150000,6.72614990234375,0.12211792171001434,0.33950722217559814,-1.0849484205245972
1783003157052201700,6.73620166015625,0.425851970911026,0.09978251904249191,0.049433063715696335
1783003157062253800,6.74625390625,0.6654331088066101,-0.12989194691181183,0.9031005501747131
1783003157072304600,6.7563046875,0.7997323274612427,-0.2044474184513092,1.3155165910720825
1783003157082356700,6.766356689453125,0.7609487175941467,-0.14404186606407166,1.3592870235443115
1783003157092408800,6.776408935546875,0.5957573652267456,-0.014193316921591759,1.0559306144714355
1783003157102461000,6.7864609375,0.3857852518558502,0.18113037943840027,0.5827513337135315
1783003157112512800,6.7965126953125,0.1543584167957306,0.4463905394077301,0.028986910358071327
1783003157122563800,6.806563720703125,-0.12385643273591995,0.6843104362487793,-0.46355488896369934
1783003157132615700,6.81661572265625,-0.3753160834312439,0.7436560392379761,-0.7635732889175415
1783003157142667800,6.826667724609375,-0.4778001308441162,0.7254088521003723,-0.7707547545433044
1783003157152719600,6.8367197265625,-0.3642037808895111,0.5871159434318542,-0.41141337156295776
1783003157162770700,6.846770751953125,-0.11203598976135254,0.4828915596008301,0.14100079238414764
1783003157172822800,6.85682275390625,0.13060195744037628,0.4020949900150299,0.6228817105293274
1783003157182875000,6.866875,0.27917784452438354,0.4673493504524231,0.9800879955291748
1783003157192927000,6.876927001953125,0.2514146566390991,0.6030906438827515,1.1827173233032227
1783003157202978800,6.886978759765625,0.10703244060277939,0.6948203444480896,1.332959771156311
1783003157213030000,6.89702978515625,-0.04602262005209923,0.5247279405593872,1.3413444757461548
1783003157223081700,6.907081787109375,-0.07227952033281326,0.42138320207595825,1.1840475797653198
1783003157233133800,6.9171337890625,-0.03581685200333595,0.29989856481552124,0.8875005841255188
1783003157243185700,6.927185546875,-0.021682659164071083,0.17423544824123383,0.4689280688762665
1783003157253237800,6.93723779296875,-0.026800988242030144,0.07660716027021408,0.05592132359743118
1783003157263288800,6.947288818359375,0.06419709324836731,-0.011892878450453281,-0.2645869255065918
1783003157273340700,6.957340576171875,0.24827292561531067,-0.06835322827100754,-0.42209985852241516
1783003157283393000,6.96739306640625,0.4016997516155243,-0.09681548923254013,-0.4127524197101593
1783003157293444900,6.97744482421875,0.5895407795906067,-0.06725440174341202,-0.2669922709465027
1783003157303497000,6.9874970703125,0.8542344570159912,0.04975397512316704,-0.16677114367485046
